,time_ms,delta_ms,aX,aY,aZ,gX,gY,gZ
0,0.0,0,3255,-1781,-464,-511,-221,258
1,10.674903000108316,10,3327,-1840,-451,-469,-172,213
2,19.728820999716845,9,3392,-1745,-357,-427,-152,166
3,28.90473799971005,9,3507,-1579,-288,-384,-165,193
4,38.038656000026094,9,3577,-1794,-264,-379,-197,233
5,47.48156999994535,9,3663,-2039,-286,-380,-230,285
6,56.73548599997957,9,3695,-1863,-368,-360,-253,337
7,66.00840200007951,9,3701,-2003,-487,-338,-239,354
8,75.21931900009804,9,3765,-2148,-528,-278,-166,361
9,84.50423399972351,9,3734,-2283,-542,-235,-104,356
10,93.72415100006037,9,3807,-2329,-505,-186,-37,337
11,103.36606400005621,9,3848,-2342,-447,-183,22,327
12,112.20798299973467,8,3865,-2327,-401,-203,60,338
13,121.17690200011566,8,3850,-2320,-433,-223,72,350
14,130.09482100005698,8,3849,-2349,-408,-252,85,358
15,139.05474000011964,8,3816,-2298,-440,-270,111,357
16,147.89565999990373,8,3816,-2266,-486,-290,151,384
17,156.76357999973334,8,3736,-2551,-509,-282,214,426
18,166.3634930000626,9,3725,-2380,-508,-3,297,401
19,175.2744119999079,8,3686,-2443,-459,-217,407,323
20,185.50531899973066,10,3672,-2443,-414,-184,467,274
21,194.2472400000952,8,3666,-2369,-399,-169,502,243
22,203.1831589997637,8,3652,-2370,-410,-155,511,233
23,212.1640780001144,8,3668,-2352,-383,-162,525,218
24,220.84499899983712,8,3654,-2324,-428,-170,526,215
25,229.80991799977346,8,3595,-2285,-434,-180,548,204
26,238.76883699995233,8,3613,-2283,-407,-172,584,204
27,247.69275600010587,8,3331,-2288,-343,-167,604,197
28,256.5906750000977,8,3572,-2311,-302,-135,614,166
29,265.5695939997713,8,3579,-2328,-214,-110,629,126
30,274.43451299996013,8,3571,-2334,-146,-64,621,84
31,283.4544319998713,9,3839,-2381,-42,-29,610,54
32,292.35435100008544,8,3648,-2472,53,25,582,83
33,301.17927099990993,8,3605,-2245,148,38,528,32
34,309.9681909998253,8,3646,-2286,208,46,456,45
35,318.79011099999843,8,3617,-2269,205,62,346,64
36,327.63803099987854,8,3594,-2395,140,32,1,60
37,336.47195100002136,8,3545,-2489,71,8,174,21
38,345.22987199989075,8,3525,-2607,-1,-10,111,-52
39,354.30978900012633,9,3495,-2727,-51,-11,69,-134
40,363.2237090000672,8,3494,-2772,-73,11,25,-201
41,372.06062899986136,8,3503,-2735,-79,9,-29,-269
42,380.9175480000704,8,3421,-2748,-117,-12,-107,-320
43,389.8734669996884,8,3396,-2702,-145,-45,-171,-359
44,398.72938700000304,8,3370,-2671,-197,-115,-231,-399
45,407.66730599989387,8,3338,-2560,-239,-155,-282,-406
46,416.5312259997336,8,3281,-2422,-271,-166,-303,-409
47,425.53314399992814,9,3304,-2392,-283,-187,-315,-397
48,434.42906299969763,8,3239,-2388,-249,-162,-307,-418
49,443.4089819997098,8,3285,-2323,-167,-146,-298,-464
50,452.3789009999746,8,3301,-2268,-97,-128,-319,-486
51,461.259820000123,8,3322,-2136,-42,-118,-370,-518
52,470.1987389998976,8,3378,-2130,-25,-121,-404,-504
53,479.13965799989455,8,3376,-2111,-23,-127,-451,-455
54,488.0495779998455,8,3400,-2027,-51,-142,-491,-439
55,497.0014959999389,8,3413,-2011,-98,-142,-525,-405
56,505.90141599968774,8,3381,-2046,-165,-137,-554,-357
57,514.8653349997403,8,3369,-2068,-259,-144,-554,-346
58,523.8722529998086,9,3317,-2145,-387,-133,-547,-346
59,532.6881729997694,8,3270,-2143,-461,-123,-526,-345
60,541.4370939997752,8,3229,-2197,-487,-113,-470,-346
61,550.3410129999793,8,3220,-2225,-509,-106,-414,-349
62,559.2209329997786,8,3211,-2239,-497,-99,-369,-371
63,568.1848509998417,8,3231,-2207,-429,-111,-327,-402
64,577.0507709999038,8,3243,-2123,-365,-141,-307,-433
65,585.9876899999108,8,3288,-1961,-299,-187,-309,-462
66,594.8366100001294,8,3358,-1763,-286,-234,-336,-432
67,603.7165289999393,8,3426,-1302,-282,-284,-375,-383
68,612.6394489997438,8,3491,-1342,-332,-302,-417,-328
69,621.4973679998366,8,3532,-1273,-438,-303,-445,-241
70,630.3552879999188,8,3570,-1241,-517,-256,-461,-167
71,639.2002079996928,8,3637,-1256,-622,-220,-453,-103
72,648.0131280000023,8,3690,-1242,-696,-158,-437,-47
73,656.9450470001357,8,3745,-1243,-834,-90,-429,13
74,665.7549669998843,8,3786,-1276,-966,-24,-425,68
75,674.636886999906,8,3822,-1354,-1122,71,-408,132
76,683.5008059997563,8,3815,-1460,-1293,157,-350,198
77,692.3597259997223,8,3769,-1594,-1548,505,-262,334
78,701.2066459997186,8,3726,-1635,-1683,358,-146,456
79,709.9965659999725,8,3649,-2059,-1783,487,5,534
80,718.8304860001153,8,3450,-2670,-1778,573,242,544
81,727.5744069997927,8,3401,-3034,-1707,600,427,443
82,736.3363280001067,8,3305,-3349,-1518,593,586,189
83,745.2042469999469,8,3285,-3408,-1297,559,674,-15
84,754.0691670001252,8,3367,-3299,-1050,472,684,-152
85,762.889087000076,8,3399,-3043,-866,365,632,-205
86,771.9000050001341,9,3461,-2822,-729,0,568,-229
87,780.6999260001248,8,3478,-2661,-654,160,482,-219
88,789.560844999869,8,3486,-2494,-639,44,385,-222
89,798.433765000027,8,3479,-2384,-683,-20,292,-223
90,807.2126849997403,8,3429,-2327,-996,-48,234,-257
91,816.3416029997279,9,3384,-2250,-848,-45,202,-279
92,826.3595119997262,10,3362,-2176,-946,-41,173,-277
93,835.7204270000693,9,3301,-2119,-968,-53,174,-247
94,844.9513440000374,9,3221,-2095,-933,-77,178,-204
95,854.2502589998549,9,3139,-2074,-868,-154,176,-157
96,863.5391749999144,9,3152,-2019,-637,-270,146,-62
97,872.8340909997314,9,3115,-1940,-425,-525,60,24
98,882.0130079998307,9,3157,-1769,-247,-796,-102,157
99,891.2839239997083,9,3225,-1614,-136,-1155,-273,267
100,900.4748409997774,9,3313,-1450,-143,-1387,-517,393
101,909.4957590000377,9,3203,-1424,-379,-1515,-727,515
102,919.2476709999937,9,3044,-1396,-726,-1414,-852,526
103,928.073590999702,8,3014,-1265,-1117,-1091,-798,484
104,937.0185099996888,8,3018,-1205,-1448,-630,-618,421
105,945.8394299999782,8,3108,-1230,-1449,-142,-74,369
106,954.8293479997483,8,3325,-1352,-1032,71,48,385
107,963.6432679999416,8,3557,-1463,-819,90,235,529
108,972.6171869997415,8,3699,-1707,-805,-50,283,675
109,981.4841069996874,8,3979,-2062,-710,-297,282,750
110,990.35002599976,8,4101,-2568,-680,-450,256,740
111,999.1839459999028,8,4170,-2848,-686,-502,254,598
112,1008.0378659999951,8,4236,-3026,-741,-467,288,423
113,1016.9677849999061,8,4397,-3241,-684,-415,386,233
114,1025.8787049997409,8,4529,-3387,-613,-380,508,76
115,1034.8176239999702,8,4637,-3486,-546,-395,557,-37
116,1043.6695429998508,8,4631,-3585,-451,-447,575,-116
117,1052.6514620000853,8,4645,-3338,-430,-527,592,-226
118,1061.4933819997532,8,4555,-3497,-444,-522,592,-355
119,1070.3963010000734,8,4385,-3320,-580,-442,584,-540
120,1079.3122209997819,8,4252,-3107,-703,-245,613,-676
121,1088.283138999941,8,4065,-2902,-772,78,684,-803
122,1097.1580589998666,8,3905,-2705,-815,280,803,-939
123,1106.129977999899,8,3723,-2552,-677,399,903,-1092
124,1114.944897999976,8,3357,-2385,-497,367,962,-1150
125,1123.967816000004,9,3404,-2159,-345,224,935,-1144
126,1132.8137360001165,8,3261,-1836,-160,41,872,-1119
127,1141.756654999881,8,3035,-890,47,-151,818,-1246
128,1150.41257699977,8,2992,-1484,76,-308,707,-1155
129,1159.3994949998887,8,2807,-877,148,-391,543,-1089
130,1168.4254130000227,9,2692,-455,172,-509,487,-1011
131,1177.1933340000942,8,2608,-48,240,-576,406,-894
132,1186.0682540000198,8,2559,267,241,-659,343,-834
133,1194.8261739998998,8,2552,483,386,-758,383,-709
134,1203.602094999951,8,2485,645,478,-619,328,-511
135,1212.4910140000793,8,2369,948,548,-568,250,-334
136,1221.296933999838,8,2391,1041,652,-530,168,-160
137,1230.2698529997542,8,2364,1142,717,-525,39,4
138,1239.0477740000279,8,2414,1100,693,-539,-130,172
139,1247.7996939996956,8,2439,1031,610,-519,-300,472
140,1256.6856139997071,8,2452,861,357,-445,-492,743
141,1265.5585329998758,8,2349,300,72,-272,-668,983
142,1274.4064529997559,8,2327,190,-205,-135,-791,1150
143,1283.3733719999145,8,2290,-325,-717,14,-855,1251
144,1292.219292000027,8,2053,-823,-757,162,-891,1293
145,1301.135210999746,8,2319,-1165,-928,268,-893,1313
146,1310.0401309998233,8,2401,-1602,-1092,272,-896,1329
147,1319.01704899974,8,2517,-1893,-1226,248,-919,1366
148,1327.892969000004,8,2492,-2162,-1306,241,-979,1382
149,1336.8748869997944,8,2532,-2352,-1445,212,-986,1403
150,1345.7128069999271,8,2522,-2686,-1778,191,-961,1406
151,1354.748725999798,9,2502,-2818,-1610,190,-937,1337
152,1363.5796459998346,8,2328,-2930,-1719,258,-902,1277
153,1372.642562999772,9,2530,-3134,-1653,359,-829,1235
154,1381.4874830000008,8,2590,-3097,-1618,495,-765,1174
155,1390.3374030001032,8,2751,-3127,-1579,576,-736,1195
156,1399.265321999792,8,2825,-3208,-1446,492,-731,1226
157,1408.171241999753,8,2860,-3178,-1306,273,-717,1222
158,1417.0251609998559,8,2952,-3053,-1111,-10,-760,1221
159,1425.8680809998623,8,2928,-2864,-957,-277,-862,1207
160,1434.8110000000815,8,2934,-2901,-864,-531,-978,1168
161,1443.6699200000476,8,3101,-2566,-1146,-508,-1189,1533
162,1452.6148390000344,8,3056,-2709,-1349,-365,-1292,1382
163,1461.4517589998286,8,3045,-3041,-1681,-139,-1273,1328
164,1470.4296780000732,8,3155,-3723,-1925,154,-1187,1226
165,1479.26059800011,8,3306,-4123,-2086,267,-1043,1157
166,1488.2015170001068,8,3524,-4456,-2237,271,-924,1147
167,1497.005437000098,8,3857,-5132,-2414,183,-795,1102
168,1505.8283569997002,8,4014,-5671,-2607,10,-705,941
169,1514.740275999884,8,4130,-6117,-2725,-65,-632,703
170,1523.5841959997742,8,4162,-6119,-2872,-11,-536,304
171,1532.4501159998363,8,4234,-6057,-2879,115,-389,-24
172,1541.2610359999235,8,4244,-5639,-2786,345,-237,-341
173,1550.039957000081,8,4215,-5418,-2594,451,-36,-623
174,1558.9738759999818,8,4108,-5358,-2248,397,96,-879
175,1567.8127959999983,8,3981,-4916,-1728,205,182,-1152
176,1576.7057150001165,8,3833,-4009,-1259,-126,185,-1297
177,1585.5606350000926,8,3656,-3337,-888,-373,122,-1378
178,1594.3905549997908,8,3452,-2736,-653,-526,39,-1419
179,1603.3034739998584,8,3295,-2074,-386,-597,13,-1431
180,1612.481391000074,9,3052,-1517,-289,-572,1,-1392
181,1621.8773059999876,9,2873,-957,-272,-759,30,-1333
182,1631.2262209999062,9,2685,-761,-58,-472,74,-1039
183,1640.4741369997282,9,2578,-451,242,-208,-8,-1203
184,1649.6420539997416,9,2372,-341,83,-53,-57,-1135
185,1658.8269710000532,9,2042,-247,277,11,-58,-1135
186,1668.054887999915,9,1702,47,534,17,-50,-1221
187,1677.2858039998937,9,1430,707,660,50,-111,-1268
188,1686.5007199999127,9,1362,938,652,89,-196,-1130
189,1695.708636999825,9,1351,1422,630,143,-288,-935
190,1705.0125529999605,9,1340,1348,491,349,-523,-389
191,1714.8724630001198,9,1418,1229,443,559,-691,110
192,1723.8013829996817,8,1412,956,395,707,-952,553
193,1732.6373020000574,8,1334,659,248,772,-1151,1010
194,1741.4172230000986,8,1529,353,79,725,-1307,1307
195,1750.0051449997045,8,1308,-16,-255,596,-1459,1618
196,1758.7650659997962,8,1473,-737,-589,469,-1633,1993
197,1767.633984999975,8,1548,-1305,-1241,416,-1873,2339
198,1776.4589059997888,8,1714,-2289,-1541,467,-1990,2697
199,1785.3888249996999,8,1827,-3141,-2011,551,-2090,2832
200,1794.220745000075,8,2095,-3856,-2563,627,-2136,2889
201,1803.0216649999602,8,2293,-4788,-3099,701,-2175,2968
202,1811.916583999846,8,2364,-5642,-3714,695,-2178,2997
203,1820.8375039998828,8,2378,-6552,-4696,666,-1845,2087
204,1844.304290999844,23,2334,-9350,-5453,338,-1450,1117
205,1853.4862080000494,9,2312,-9267,-5593,203,-939,503
206,1862.6001259999612,9,2486,-8728,-5476,93,-610,-48
207,1871.7920419999245,9,2641,-7699,-5112,41,-156,-513
208,1880.8239609998054,9,2750,-6783,-4503,45,127,-991
209,1889.9688779997632,9,2863,-5604,-4082,169,346,-1228
210,1898.991795999791,9,2883,-4989,-3417,276,538,-1367
211,1908.0127140000513,9,2788,-4630,-3039,355,680,-1448
212,1917.1436319998065,9,2782,-4279,-2612,420,839,-1578
213,1926.2975490000827,9,2689,-3951,-2246,389,943,-1682
214,1935.4684659997474,9,2667,-3818,-1743,11,979,-1755
215,1944.5013839999774,9,2554,-3669,-1420,67,1003,-1807
216,1953.5673020000104,9,2469,-3391,-830,-107,986,-1859
217,1962.6942189997862,9,2374,-2970,-766,-277,938,-1908
218,1971.915136000007,9,2242,-2495,-636,-532,837,-1876
219,1981.051053000101,9,2175,-1959,-423,-679,756,-1730
220,1990.120971000124,9,2188,-1306,-286,-746,641,-1565
221,1999.2558879998796,9,2120,-1041,-296,-687,426,-1388
222,2008.3828050001102,9,2282,-949,-309,-558,300,-1153
223,2017.4347239999406,9,2001,-928,-377,-315,253,-991
224,2026.4966409999943,9,1967,-1150,-410,-105,192,-880
225,2035.6275589997495,9,1856,-1240,-464,56,184,-871
226,2044.7314759999244,9,1817,-1378,-437,164,201,-880
227,2053.7373950000983,9,1741,-1278,-348,146,194,-895
228,2062.801312999909,9,1698,-1023,-221,76,158,-870
229,2071.901230000094,9,1752,-743,-115,5,97,-773
230,2080.857148999712,8,1807,-332,-62,-14,-38,-592
231,2090.005065999776,9,1871,-51,-120,51,-178,-275
232,2099.0759839996826,9,1931,52,-174,172,-301,12
233,2108.047902999715,8,2001,-46,-310,268,-453,278
234,2117.13582099992,9,1978,-262,-601,396,-526,589
235,2126.227738000125,9,1932,-513,-758,482,-545,783
236,2135.2266569997482,8,1871,-853,-901,494,-503,916
237,2144.199576000119,8,1867,-1172,-1063,766,-465,1014
238,2153.333492999991,9,1992,-1720,-1198,541,-453,1099
239,2162.432410999827,9,2048,-1821,-1338,579,-510,1208
240,2171.457329000077,9,2148,-2103,-1434,606,-552,1355
241,2180.4922470000747,9,2249,-2423,-1585,600,-614,1468
242,2189.5591649999915,9,2250,-2777,-1640,532,-677,1532
243,2198.67608200002,9,2255,-2951,-1874,393,-722,1539
244,2207.8359990000536,9,2293,-3522,-2120,256,-783,1554
245,2216.968917000031,9,2322,-3709,-2252,191,-808,1537
246,2226.16383400009,9,2372,-3973,-2510,166,-820,1506
247,2236.0857439998654,9,2393,-4413,-2727,96,-846,1445
248,2246.0366539999086,9,2371,-4625,-2880,-52,-802,1297
249,2256.2235609998424,10,2483,-4518,-3286,-184,-776,1200
250,2272.167416999764,15,2317,-5336,-3486,-218,-703,1170
251,2289.645258999826,17,2446,-5508,-3627,-253,-541,1018
252,2299.0701730000183,9,2393,-5758,-3830,-456,-90,399
253,2327.841912999702,28,2401,-5601,-3718,-468,81,198
254,2337.960820999797,10,2428,-5217,-3375,-471,290,-29
255,2347.8147319997333,9,2459,-4936,-3389,-440,428,-175
256,2358.045639000011,10,2433,-4667,-2882,-379,625,-352
257,2374.744488000033,16,2366,-4098,-2847,-347,722,-452
258,2384.9133959997744,10,2373,-4174,-2588,-383,922,-661
259,2405.615208999734,20,2251,-4037,-2295,-425,1274,-878
260,2418.995086999985,13,2098,-3636,-2076,-437,1110,-1045
261,2427.639008999904,8,2142,-3322,-1573,-396,1161,-1153
262,2436.4819289999105,8,2121,-2919,-1451,-367,1208,-1272
263,2445.4258480000135,8,2102,-2585,-1375,-19,1241,-1295
264,2454.243767999742,8,2144,-2214,-1099,-191,1236,-1281
265,2463.110687999688,8,2142,-1851,-871,-115,1216,-1272
266,2471.957607999684,8,2131,-1674,-697,-59,1166,-1216
267,2480.804528000135,8,2280,-1515,-472,250,1108,-1156
268,2489.768446999733,8,2160,-1391,-302,-5,778,-1090
269,2498.5963670001183,8,2134,-1209,-209,-47,903,-774
270,2507.5612860000547,8,2207,-1081,-221,-69,748,-905
271,2516.5222040000117,8,2127,-1072,-207,-101,587,-800
272,2525.4591230000187,8,2135,-794,-174,-186,495,-737
273,2534.36104299999,8,2112,-883,-92,-240,413,-695
274,2543.268961999729,8,2062,-622,-12,-241,284,-622
275,2552.1548819997406,8,1797,-296,65,-176,122,-519
276,2561.131800000112,8,2055,0,60,-82,-53,-392
277,2569.9937199997294,8,2090,214,-1,46,-212,-203
278,2578.928638999969,8,2109,274,-167,161,-365,73
279,2587.805559000117,8,2123,144,-396,225,-483,357
280,2596.638478999921,8,2068,-256,-523,208,-579,637
281,2605.664397000055,9,1994,-162,-622,136,-625,957
282,2614.5033170000715,8,1884,-428,-666,49,-685,1178
283,2623.389237000083,8,1733,-840,-646,-42,-789,1306
284,2632.2601560000294,8,1615,-1281,-660,-74,-993,1300
285,2641.1800759997277,8,1600,-1575,-980,-62,-1153,1272
286,2650.060994999876,8,1619,-1742,-1049,254,-1355,1355
287,2658.98091400004,8,1698,-2265,-1410,102,-1603,1573
288,2667.834834000132,8,1706,-2795,-1861,187,-1860,1852
289,2676.804752999942,8,1675,-3329,-2519,150,-1956,2082
290,2685.6726729997717,8,1585,-3927,-3085,-236,-1934,2158
291,2694.6385920000466,8,1576,-4625,-3400,-268,-1546,2076
292,2703.490510999927,8,1572,-5080,-3835,-519,-1521,1777
293,2712.294431999908,8,1666,-4796,-3728,-586,-1387,1363
294,2721.2073509999755,8,1684,-4885,-3799,-450,-1452,1231
295,2729.9902710001334,8,1796,-4872,-4038,-237,-1490,1127
296,2738.7991919999877,8,1804,-5148,-4465,-77,-1380,1023
297,2747.6611110000704,8,1707,-5413,-5032,-17,-1233,864
298,2756.4700319999247,8,1648,-5681,-5093,-91,-1012,688
299,2765.272952000032,8,1735,-5737,-5103,-197,-739,479
300,2774.0618719999475,8,1828,-5628,-5005,-280,-466,218
301,2782.9107919997114,8,1913,-5466,-4777,-272,-118,-43
302,2791.8577109999205,8,1982,-5187,-4407,-205,79,-367
303,2800.6716320001033,8,2049,-4896,-4183,-131,212,-567
304,2809.515551000004,8,2049,-4664,-4087,-42,319,-740
305,2818.421470999965,8,2080,-4515,-4064,17,477,-884
306,2827.215390999754,8,2065,-4434,-3941,29,617,-996
307,2836.3903079998636,9,2103,-4396,-3782,-2,1017,-1091
308,2845.3202269997746,8,2068,-4241,-3563,-44,937,-1206
309,2854.2001470000287,8,2058,-4057,-3328,-97,1058,-1353
310,2863.205065999864,9,1941,-3718,-3023,-115,1150,-1457
311,2872.0719849998204,8,2014,-3533,-2851,-95,1231,-1501
312,2880.950904999736,8,1934,-3154,-2330,-61,1345,-1578
313,2889.9068239998087,8,1917,-2854,-2255,-29,1401,-1689
314,2898.7437440000576,8,1880,-2515,-1935,17,1407,-1760
315,2907.6776629999586,8,1900,-2247,-1630,64,1374,-1794
316,2916.5145829997527,8,1916,-1997,-1418,9,1424,-1757
317,2925.4595019997396,8,1856,-2027,-1078,-31,1414,-1754
318,2934.3504220000796,8,2009,-1528,-896,-6,1322,-1754
319,2943.243340999743,8,1792,-1024,-642,-86,1248,-1700
320,2952.1182610001233,8,1848,-583,-425,-89,1016,-1310
321,2960.903181000049,8,1548,-251,-330,-85,705,-1318
322,2969.865099999879,8,2077,-171,-363,-124,492,-1069
323,2978.8000190001185,8,1797,218,-339,-125,306,-853
324,2987.7139390000593,8,1730,33,-278,-225,139,-657
325,2996.5578589999495,8,1726,-74,-147,-268,13,-475
326,3005.4917779998505,8,1631,-149,-178,-285,-122,-422
327,3014.312697999685,8,1542,59,-168,-216,-296,-368
328,3023.2946169999195,8,1552,534,-31,-201,-501,-15
329,3032.087536999825,8,1561,514,-229,218,-655,54
330,3040.8444579998104,8,1495,568,-438,219,-823,374
331,3049.758376999762,8,1556,368,-623,397,-928,733
332,3058.5152979997474,8,1515,74,-704,542,-992,1030
333,3067.2942179999154,8,1457,-130,-836,617,-1079,1334
334,3076.118137999856,8,1383,-578,-1026,629,-1199,1519
335,3084.9720579999484,8,1418,-1471,-1236,611,-1290,1637
336,3093.8879780001116,8,1486,-1887,-1749,553,-1303,1692
337,3102.710897999714,8,1546,-2474,-1987,549,-1365,1711
338,3111.496817999978,8,1666,-2958,-2098,573,-1431,1722
339,3120.3247379999084,8,1738,-3292,-2395,609,-1481,1697
340,3128.9336599998023,8,1889,-3521,-2616,667,-1477,1671
341,3138.83357099985,9,2145,-3726,-3170,697,-1472,1730
342,3148.020487999929,9,2128,-4567,-3809,636,-1443,1801
343,3157.3234029997366,9,2171,-5240,-3938,509,-1298,1669
344,3166.567320000013,9,2143,-5856,-4195,313,-1129,1368
345,3175.7792359999257,9,2177,-5740,-4452,174,-997,1002
346,3185.0671520001015,9,2213,-5895,-4690,84,-945,833
347,3194.2510690000745,9,2261,-6025,-5089,38,-779,655
348,3203.480985999704,9,2254,-5958,-4966,37,-585,404
349,3212.7519020000364,9,2113,-5992,-4959,-70,-324,227
350,3221.964817999833,9,2162,-5812,-4914,-165,-75,-6
351,3231.677729999774,9,2163,-5467,-4656,-270,141,-504
352,3240.92964700003,9,2173,-5192,-4378,-321,304,-473
353,3249.8035660000824,8,2222,-4635,-4185,-336,444,-603
354,3258.660485999826,8,2181,-4679,-3957,-324,540,-730
355,3267.575405000116,8,2179,-4557,-3770,-310,644,-852
356,3276.281327000106,8,2111,-4402,-3535,-317,725,-1019
357,3285.039246999986,8,2035,-4175,-3195,-324,813,-1149
358,3293.8971670000683,8,1985,-3828,-2913,-335,913,-1258
359,3302.7410869999585,8,1975,-3520,-2634,-336,1025,-1304
360,3311.51300800002,8,1891,-3075,-2398,-353,1135,-1304
361,3320.3159280001273,8,1841,-2756,-2045,-372,1205,-1320
362,3329.12284799977,8,1786,-2569,-1701,-298,1155,-1349
363,3337.9547679996904,8,1659,-2291,-1383,-273,1085,-1396
364,3346.9206869999653,8,1672,-1910,-1152,-259,1014,-1427
365,3355.788606999795,8,1661,-1555,-883,-278,944,-1396
366,3364.6985259997564,8,1670,-1303,-687,-254,830,-1323
367,3373.59844599996,8,1633,-1128,-575,-193,670,-1225
368,3382.5633649998963,8,1650,-822,-501,-137,507,-1118
369,3391.47528400008,8,1618,-578,-449,-136,403,-934
370,3400.3482039997834,8,1676,-356,-332,-154,296,-754
371,3409.1851240000324,8,1645,-12,-278,-124,90,-577
372,3418.134043000009,8,1528,-124,-192,-79,-73,-424
373,3426.9959630000812,8,1526,12,-204,-38,-192,-318
374,3435.8918819998507,8,1463,478,-304,18,-327,-187
375,3444.781801999852,8,1474,372,-443,121,-531,23
376,3453.631720999965,8,1472,354,-624,242,-679,457
377,3462.5476410001284,8,1597,211,-949,427,-835,924
378,3471.4305600000444,8,1694,-131,-1113,634,-1270,1468
379,3480.245481000111,8,1618,-844,-1457,641,-1172,1882
380,3489.316398000028,9,1562,-1523,-1641,487,-1232,2172
381,3498.222317999989,8,1540,-2314,-1796,41,-1309,2246
382,3507.103236999683,8,1449,-2880,-2064,-77,-1365,2180
383,3515.9661570000935,8,1549,-3453,-2468,-229,-1417,2119
384,3524.795076999908,8,1644,-3766,-3072,-217,-1484,2051
385,3533.7589959999605,8,1642,-4223,-3366,-117,-1481,1908
386,3542.587915999775,8,1684,-4622,-3802,122,-1060,1659
387,3551.4358360001097,8,1720,-4781,-4101,353,-995,1421
388,3560.28375599999,8,1763,-4886,-4601,454,-794,1232
389,3569.126675999996,8,1833,-5099,-4465,539,-579,1076
390,3577.9105970000273,8,1765,-5583,-4448,605,-323,851
391,3586.930514999949,9,1815,-5068,-4386,655,-22,277
392,3595.7044349997886,8,1881,-5772,-4299,662,113,288
393,3604.6603539998614,8,1719,-5861,-4179,672,191,65
394,3613.432274999923,8,1857,-5813,-3954,646,311,-182
395,3622.225194999828,8,1887,-5728,-3726,652,384,-421
396,3631.0741150000467,8,1956,-5424,-3461,608,405,-625
397,3639.8970350001036,8,1982,-5247,-3231,533,407,-773
398,3648.7569549999535,8,1980,-4993,-3064,440,451,-831
399,3657.6478749998387,8,1942,-4424,-2932,344,534,-828
400,3666.4647949996834,8,1888,-4346,-2801,290,618,-824
401,3675.4577140000038,8,1826,-4121,-2543,254,686,-916
402,3684.3606329998693,8,1776,-3935,-2317,222,1020,-1023
403,3693.2575529999667,8,1656,-3750,-2158,210,809,-1091
404,3702.1624720000545,8,1619,-3570,-2041,191,802,-1132
405,3711.06139099993,8,1554,-3543,-1973,230,829,-1093
406,3720.03130999974,8,1474,-3235,-1870,98,913,-1017
407,3728.9442299997972,8,1642,-3165,-1695,261,991,-1067
408,3737.8331489999255,8,1550,-2412,-1669,-129,925,-1266
409,3746.8700669996906,9,1743,-2547,-1211,-38,874,-1369
410,3755.7499869999447,8,1502,-2089,-926,-119,851,-1231
411,3764.689906000058,8,1507,-1971,-783,44,749,-1186
412,3773.5818249998374,8,1514,-1565,-864,126,649,-1200
413,3782.489745000021,8,1568,-1427,-743,116,478,-1133
414,3791.244665999784,8,1612,-1093,-715,185,326,-1070
415,3800.0845859996844,8,1640,-951,-654,215,225,-946
416,3808.989504999772,8,1706,-781,-612,250,171,-692
417,3817.919423999683,8,1704,-730,-590,269,158,-541
418,3826.7793439999878,8,1667,-619,-529,301,128,-406
419,3836.4292569999634,9,1656,-326,-504,297,16,-283
420,3845.3611760000967,8,1616,-344,-687,233,-123,-93
421,3854.256095999972,8,1708,-448,-841,228,-218,93
422,3863.1770150000193,8,1777,-528,-1232,263,-295,368
423,3872.0389350000914,8,1752,-728,-1340,315,-444,630
424,3880.892854999729,8,1731,-1103,-1519,485,-573,864
425,3889.89377300004,9,1766,-1435,-1657,605,-508,1062
426,3898.6786939999547,8,1646,-1727,-1699,698,-453,1269
427,3907.6386130000174,8,1698,-2053,-1860,828,-447,1442
428,3916.423532999943,8,1757,-2625,-1976,1016,-400,1649
429,3925.2734530000453,8,1773,-3201,-1989,1186,-230,1781
430,3934.8253670000304,9,1817,-3524,-2085,1056,-101,1781
431,3944.119281999974,9,1860,-4157,-1987,895,-102,1733
432,3953.4641979998923,9,1829,-4365,-1866,765,-65,1633
433,3962.7321140001186,9,2010,-4163,-1926,445,28,1565
434,3971.9530309998845,9,1984,-4563,-1979,342,-37,1584
435,3981.1939470000652,9,1924,-5021,-2092,368,-131,1553
436,3990.4778629997963,9,1964,-5267,-2384,395,-137,1474
437,3999.7527790001186,9,2012,-5456,-2549,280,246,1362
438,4008.9016960000663,9,2169,-4964,-2305,-548,283,1014
439,4018.112613000085,9,1817,-6133,-1985,-264,-45,957
440,4027.356528999917,9,2175,-5956,-2707,-20,267,507
441,4037.107440999989,9,1818,-5969,-2370,56,6,298
442,4046.1083599998346,9,1947,-6106,-2173,136,69,32
443,4054.958279999937,8,2218,-5734,-2153,184,426,-113
444,4063.849198999833,8,2003,-5485,-2089,389,581,-397
445,4072.743118999824,8,2216,-4897,-2055,395,525,-625
446,4081.573038999977,8,2000,-4727,-1905,92,585,-765
447,4090.553957999873,8,1971,-4671,-1664,-113,696,-958
448,4099.425876999703,8,2001,-4485,-1445,-148,681,-1159
449,4108.347797000079,8,2098,-4099,-1160,-45,630,-1211
450,4117.235715999868,8,1983,-3770,-1238,32,495,-1241
451,4126.127636000092,8,1935,-3638,-1144,-76,399,-1237
452,4135.0165549997655,8,1961,-3485,-1122,-181,334,-1220
453,4143.996473999778,8,1879,-3399,-1162,-247,8,-1156
454,4152.871393999703,8,1942,-3279,-1117,-239,507,-916
455,4161.799312999847,8,1637,-3352,-1046,-293,315,-1147
456,4170.645232999959,8,1875,-2985,-1116,-314,256,-1194
457,4179.441152999971,8,1875,-2783,-1121,-537,311,-1222
458,4188.508070999887,9,1743,-2637,-958,-464,272,-1238
459,4197.336990999702,8,1909,-2247,-853,-466,298,-1250
460,4206.312909999724,8,1962,-1951,-797,-474,335,-1175
461,4215.108830999725,8,1924,-1691,-723,-406,241,-1056
462,4224.001749999843,8,1853,-1535,-723,-342,49,-967
463,4232.822670000132,8,1877,-1364,-671,-288,10,-900
464,4241.68458999975,8,1877,-1135,-717,-298,31,-797
465,4250.48451099974,8,1836,-924,-731,-386,68,-695
466,4259.316431000116,8,1719,-542,-747,-336,-242,-534
467,4268.076350999763,8,1678,-734,-909,-233,-128,-275
468,4277.325267999913,9,1656,-776,-1069,-141,-217,-54
469,4286.273187000006,8,1802,-777,-1126,-54,-226,213
470,4295.025108000118,8,1560,-1485,-1110,89,-229,481
471,4303.74602899974,8,1589,-1296,-1165,145,-267,576
472,4312.634947999868,8,1344,-1651,-1128,132,-217,675
473,4321.464868000021,8,1310,-2023,-1084,97,-170,581
474,4330.284788999961,8,1483,-1832,-1127,28,-146,595
475,4339.150708000034,8,1473,-1896,-1107,-64,-172,600
476,4348.026627999843,8,1633,-1830,-1073,-156,-193,618
477,4356.993547000002,8,1797,-1653,-1386,-102,-309,737
478,4365.854466999735,8,1876,-1915,-1546,-29,-540,1231
479,4374.771385999793,8,1891,-2134,-1794,104,-570,1507
480,4383.632305999981,8,1954,-2541,-2255,206,-522,1618
481,4392.5652249999985,8,1887,-3584,-2407,275,-429,1803
482,4401.448144999904,8,1791,-4466,-2390,268,-244,1745
483,4410.277064999718,8,1845,-4948,-2435,188,-113,1523
484,4419.161983999857,8,1995,-5247,-2375,102,-80,1197
485,4428.016903999833,8,2136,-5411,-2461,35,-170,1057
486,4436.982823000108,8,2325,-5510,-2688,42,-344,972
487,4445.902742999806,8,2400,-5827,-2989,25,-400,874
488,4454.791661999934,8,2442,-6054,-3360,-35,-336,771
489,4463.640581999698,8,2430,-6582,-3536,-186,-218,649
490,4472.596500999771,8,2408,-6649,-3557,-310,-65,455
491,4481.438420999893,8,2383,-6687,-3368,-385,47,84
492,4490.4083399997035,8,2337,-6360,-3199,-402,172,-225
493,4499.245259999952,8,2405,-5689,-3041,-398,267,-512
494,4507.923181000024,8,2404,-5531,-2921,-367,292,-1001
495,4517.027098999733,9,2410,-5169,-2732,-355,321,-939
496,4525.840019000043,8,2436,-4824,-2522,-408,417,-1073
497,4534.8509380000905,9,2411,-4550,-2340,-510,767,-1179
498,4543.663857999945,8,2329,-4249,-2106,-518,533,-1514
499,4552.563776999705,8,2285,-3876,-1867,-545,564,-1374
500,4561.353697999948,8,2336,-3450,-1645,-601,624,-1452
501,4570.1386179998735,8,2236,-3177,-1426,-581,617,-1485
502,4579.056537999804,8,2239,-2798,-1253,-518,554,-1476
503,4587.890457999947,8,2204,-2302,-1150,-514,543,-1448
504,4596.763378000105,8,2217,-2124,-1015,-486,499,-1433
505,4605.594297999687,8,2126,-2094,-958,-468,432,-1393
506,4614.379218000067,8,2029,-1622,-827,-436,364,-1325
507,4623.289138000018,8,2081,-1252,-533,-436,323,-1228
508,4632.186057000126,8,2017,-1017,-613,-394,300,-1021
509,4641.066976999809,8,1928,-899,-516,-360,243,-930
510,4649.89889699973,8,1781,-545,-384,-275,200,-884
511,4658.7188170001355,8,1780,-479,-210,-141,116,-530
512,4667.67373599987,8,1676,-68,-183,-27,-30,-553
513,4676.570655999967,8,1614,-49,-292,96,-178,-310
514,4685.515574999954,8,1661,-7,-381,179,-370,213
515,4694.497492999744,8,1612,-103,-571,196,-475,352
516,4703.373413000008,8,1578,-257,-891,168,-496,726
517,4712.2073329996965,8,1481,-583,-1122,98,-480,1045
518,4721.2092519998805,9,1317,-1137,-1504,43,-480,1526
519,4730.034171999705,8,1226,-1626,-1316,74,-549,1413
520,4738.779092999721,8,1251,-2091,-1441,198,-999,1490
521,4748.548003999986,9,1258,-2694,-1561,207,-916,1470
522,4757.848920000015,9,1325,-2964,-1855,170,-873,1380
523,4767.145836000054,9,1594,-3067,-2104,66,-833,1261
524,4776.403752000078,9,1660,-3285,-2521,-62,-856,1171
525,4785.732668000037,9,1661,-3428,-2677,-125,-853,1088
526,4794.983583999965,9,1784,-3649,-3032,-124,-843,1053
527,4804.155500999968,9,1786,-3832,-3215,-121,-806,1044
528,4813.326418000088,9,1797,-4166,-3183,-91,-699,914
529,4822.600334000072,9,1934,-4001,-3613,-36,-504,712
530,4835.8442149997245,13,1954,-4224,-3701,14,-338,538
531,4845.570126999974,9,1941,-4497,-3636,103,-229,349
532,4854.468045999965,8,2101,-4973,-3711,113,-49,86
533,4863.391966000108,8,2110,-5122,-3649,165,135,-474
534,4872.244884999873,8,2171,-5164,-3668,171,234,-598
535,4881.15380499994,8,2346,-4997,-3620,155,317,-771
536,4890.130723999846,8,2614,-4765,-3599,162,386,-783
537,4899.037642999701,8,2633,-4538,-3500,196,446,-783
538,4907.90256299988,8,2641,-4410,-3422,501,472,-840
539,4916.830482000023,8,2671,-4202,-3320,280,528,-893
540,4925.656401999731,8,2728,-4021,-3128,243,658,-924
541,4934.681320999971,9,2717,-3979,-2964,225,744,-981
542,4943.481240999972,8,2722,-4006,-2655,239,766,-1112
543,4952.451159999782,8,2642,-3963,-2490,254,777,-1208
544,4961.247080999783,8,2592,-3891,-2371,241,783,-1309
545,4970.034000999931,8,2560,-3725,-2216,214,786,-1401
546,4978.906921000089,8,2509,-3487,-1987,203,784,-1487
547,4987.717840999721,8,2485,-3097,-1716,205,761,-1506
548,4996.551760999864,8,2423,-2406,-1450,211,692,-1443
549,5005.4706810001335,8,2480,-2171,-1263,177,598,-1053
550,5014.226600999791,8,2374,-1894,-838,142,535,-1180
551,5023.013521999928,8,2178,-1710,-849,95,459,-1076
552,5031.856441999935,8,2217,-1026,-742,-28,395,-910
553,5040.650361999724,8,2061,-1165,-665,-148,306,-722
554,5049.522281999998,8,2034,-1043,-639,-135,183,-617
555,5058.383201999732,8,1628,-1096,-475,-107,53,-496
556,5067.208122000011,8,1544,-1000,-493,-13,-68,-435
557,5076.121042000068,8,1539,-606,-482,-16,-250,-391
558,5085.008960999858,8,1532,-549,-594,11,-323,-298
559,5094.020879999789,9,1586,-404,-611,19,-374,-186
560,5102.886799999851,8,1547,-296,-689,61,-417,-34
561,5111.803718999909,8,1572,-328,-986,158,-396,148
562,5120.728637999946,8,1571,-407,-839,265,-367,367
563,5129.626557999927,8,1617,-580,-910,369,-393,533
564,5138.521476999813,8,1695,-952,-1043,379,-419,720
565,5147.362397000052,8,1679,-1435,-1162,348,-465,854
566,5156.224317000124,8,1817,-1796,-1334,299,-534,930
567,5165.140235999843,8,1971,-2212,-1577,264,-610,992
568,5174.091156000031,8,2121,-2646,-1681,194,-689,1004
569,5182.947074999902,8,2161,-3117,-1934,153,-797,941
570,5191.8689949998225,8,2279,-3501,-2278,227,-903,852
571,5200.753913999961,8,2556,-3766,-2486,211,-830,818
572,5209.693834000063,8,2463,-3968,-2645,295,-646,515
573,5218.566752999777,8,2583,-4166,-2883,207,-622,724
574,5227.4786729999505,8,2725,-4448,-2958,209,-552,657
575,5236.416591999841,8,2723,-4616,-3218,155,-471,502
576,5245.340510999995,8,2974,-5315,-3337,58,-432,496
577,5254.249431000062,8,2842,-5552,-3552,-14,-419,336
578,5263.16635000012,8,2913,-5499,-3676,-98,-320,129
579,5272.012269999777,8,2971,-5642,-3665,-124,-234,15
580,5280.86618999987,8,2905,-5508,-3653,-167,-144,-151
581,5289.779108999937,8,2951,-5099,-3565,-188,1,-371
582,5298.577029999706,8,2937,-4660,-3426,-198,129,-439
583,5307.33895000003,8,2897,-4201,-3185,-226,180,-623
584,5316.282870000123,8,2840,-3986,-2888,-242,233,-710
585,5325.011790999724,8,2693,-4005,-2649,-219,287,-808
586,5333.896709999863,8,2646,-3637,-2361,-177,286,-909
587,5342.668630999924,8,2307,-3359,-2153,-169,278,-975
588,5351.505550999718,8,2493,-2833,-1983,-150,305,-1040
589,5360.270471999684,8,2416,-2583,-1759,-87,295,-1092
590,5369.190390999847,8,2238,-2399,-1314,-37,273,-1137
591,5378.009310999914,8,2184,-2237,-1372,245,260,-1154
592,5386.943229999815,8,2119,-1926,-1241,2,266,-1079
593,5395.885149999685,8,2540,-1709,-1342,-77,275,-1036
594,5404.8250689997985,8,1962,-1916,-934,-50,12,-882
595,5413.656988999719,8,2068,-1318,-944,11,26,-785
596,5422.608907999802,8,1773,-1487,-824,45,-47,-753
597,5431.460828000127,8,1646,-1003,-991,63,-145,-620
598,5440.389746999699,8,1511,-857,-760,55,-234,-558
599,5449.271666999721,8,1385,-538,-647,52,-314,-292
600,5458.209586000066,8,1532,-721,-711,213,-291,-224
601,5467.127505000008,8,1521,-497,-681,274,-377,-101
602,5476.029424999979,8,1068,-490,-705,399,-446,22
603,5484.9003449999145,8,1680,-574,-882,479,-473,134
604,5493.935262999912,9,1547,-621,-1008,496,-530,272
605,5502.872181999919,8,1613,-877,-1202,511,-525,449
606,5511.8041010000525,8,1510,-1108,-1282,553,-567,689
607,5520.680020999862,8,1497,-1400,-1416,584,-646,922
608,5529.491940999833,8,1540,-1747,-1475,586,-642,1081
609,5538.468859999739,8,1570,-2068,-1660,672,-633,1033
610,5547.7787760000865,9,1757,-2510,-1699,657,-598,1008
611,5557.199690999823,9,1806,-2461,-1701,589,-485,1055
612,5566.45960700007,9,1978,-2568,-1962,398,-324,1217
613,5575.704522999786,9,2123,-3081,-2211,251,-214,1461
614,5585.037438999734,9,2120,-3677,-2369,190,-286,1503
615,5594.254355999965,9,2193,-4361,-2523,257,-458,1400
616,5603.602271,9,2218,-4775,-2541,6,-599,1116
617,5612.783187999867,9,2375,-5051,-2821,188,-632,901
618,5622.014103999845,9,2465,-5333,-3182,88,-610,766
619,5631.276020999849,9,2608,-5770,-3539,-32,-552,671
620,5640.402938000079,9,2663,-6211,-3629,-62,-408,529
621,5649.940851999872,9,2639,-6381,-3690,-88,-9,296
622,5658.811771999808,8,2736,-6349,-3596,-148,-66,-223
623,5667.740690999835,8,2738,-6047,-3534,-201,81,-501
624,5676.654609999787,8,2700,-5618,-3236,-236,197,-589
625,5685.57452999994,8,2704,-4897,-3025,-246,353,-822
626,5694.403449999754,8,2713,-4414,-2819,-242,760,-1253
627,5703.374368999903,8,2707,-4118,-2337,-244,637,-1103
628,5712.160288999712,8,2717,-3793,-2331,-277,733,-1149
629,5721.099207999941,8,2702,-3553,-2128,-336,820,-1144
630,5729.892128999836,8,2674,-3440,-1915,-352,826,-1145
631,5738.733049000075,8,2502,-3219,-1663,-371,698,-1218
632,5747.684967999703,8,2388,-2867,-1454,-397,604,-1241
633,5756.51588799974,8,2055,-2683,-1357,-377,495,-1247
634,5765.43080700003,8,2193,-2052,-1254,-380,403,-1260
635,5774.2377280001165,8,2148,-1973,-1245,-389,352,-1241
636,5783.034648000012,8,2027,-1683,-1182,-375,321,-1174
637,5791.919567999685,8,1955,-1526,-1187,-387,315,-1105
638,5800.802488000045,8,1873,-1042,-1161,-379,317,-1020
639,5809.734406999723,8,1754,-1013,-1101,-341,300,-937
640,5818.591326999922,8,1674,-835,-955,-287,303,-880
641,5827.339248000044,8,1588,-598,-863,-220,327,-856
642,5836.76516200012,9,1534,-225,-826,-54,316,-836
643,5845.610081999894,8,1511,-49,-761,134,249,-751
644,5854.476001999956,8,1593,19,-617,383,135,-656
645,5863.335921999806,8,1689,-2,-645,691,16,-510
646,5872.189841999898,8,1798,-171,-742,860,-88,-1
647,5881.094761999975,8,1922,-409,-861,899,-184,138
648,5889.992680999967,8,1881,-860,-825,896,-288,387
649,5898.882600999968,8,1886,-1514,-729,861,-378,549
650,5907.75252100002,8,1898,-1705,-880,812,-534,959
651,5916.580440999951,8,2162,-1907,-1119,810,-674,995
652,5925.517359999958,8,1955,-2306,-1477,876,-892,1069
653,5934.445279000101,8,2328,-2952,-1844,929,-1037,1211
654,5943.339199000093,8,2122,-3384,-2240,907,-1038,1301
655,5952.279117999751,8,2097,-3543,-2173,808,-958,1260
656,5961.194038000031,8,2152,-3900,-2302,727,-881,1153
657,5970.07395699984,8,2238,-4335,-2369,564,-516,1113
658,5978.998876999867,8,2236,-4226,-2385,426,-617,777
659,5987.879796000016,8,2148,-4196,-2514,381,-531,946
660,5996.8977149997045,9,2169,-4449,-2791,428,-537,797
661,6005.803634000131,8,2297,-4646,-2849,543,-559,815
662,6014.708553999753,8,2334,-4934,-3063,630,-511,834
663,6023.575473999699,8,2548,-5813,-2762,1001,-412,588
664,6032.4463930001,8,2860,-5882,-2881,650,-25,350
665,6041.236313999889,8,2594,-5966,-2816,391,-76,169
666,6050.084233999769,8,2578,-5803,-2774,107,14,-232
667,6058.948154000063,8,2811,-5639,-2634,-135,79,-233
668,6067.770073999782,8,2642,-5402,-2608,-396,169,-446
669,6076.558994999687,8,2619,-4629,-2511,-498,261,-603
670,6085.4669139998805,8,2607,-4249,-2415,-550,300,-714
671,6094.272834000094,8,2914,-3930,-2131,-594,322,-946
672,6103.197754000121,8,2483,-3876,-2011,-609,340,-839
673,6111.9896739996875,8,2523,-3825,-2022,-561,396,-809
674,6120.808594999744,8,2269,-3526,-1984,-394,361,-845
675,6129.713513999832,8,2460,-3232,-1746,-350,385,-891
676,6138.650432999839,8,2301,-3045,-1562,-312,418,-882
677,6147.582352999962,8,2150,-2727,-1515,-297,399,-909
678,6156.45527200013,8,2027,-2443,-1386,-309,354,-928
679,6165.377192000051,8,1845,-2328,-1212,-286,360,-972
680,6174.261110999851,8,2044,-2051,-1103,-274,376,-977
681,6183.2060299998375,8,1948,-1593,-1182,-271,379,-944
682,6192.027951,8,2044,-1594,-1088,-251,315,-924
683,6200.942869999835,8,1959,-1318,-892,-211,242,-787
684,6209.9827879997065,9,2027,-1164,-1005,-141,185,-655
685,6218.88270799991,8,1960,-1060,-917,-97,105,-268
686,6227.698627999871,8,1804,-981,-899,-70,63,-431
687,6236.977543999728,9,1547,-845,-815,-49,33,-393
688,6245.833464000043,8,1714,-673,-823,-34,2,-314
689,6254.916381999919,9,1766,-567,-914,27,-48,-131
690,6263.861300999906,8,1794,-637,-1070,127,-125,116
691,6272.740220999822,8,1783,-585,-1139,278,-211,427
692,6281.665139999859,8,1880,-864,-1270,369,-334,1002
693,6290.529059999699,8,1779,-1281,-1350,367,-396,1071
694,6299.520979000135,8,1700,-1749,-1254,285,-416,1207
695,6308.45989799991,8,1503,-2530,-1173,173,-435,1230
696,6317.322817999866,8,1505,-2622,-1169,30,-459,1137
697,6326.348736,9,1538,-2546,-1265,-44,-486,985
698,6335.117656999955,8,1715,-2281,-1386,-49,-541,957
699,6343.921576999946,8,1870,-2159,-1651,47,-617,1044
700,6353.4804910000275,9,2005,-2528,-1898,180,-664,1257
701,6362.7284069998495,9,2023,-3284,-2083,258,-625,1361
702,6371.978323999883,9,2111,-3763,-2387,242,-576,1374
703,6381.2252399998215,9,2086,-4499,-2433,106,-568,1265
704,6390.511155999775,9,2154,-4771,-2809,-7,-552,1039
705,6399.753072999829,9,2557,-5021,-2862,-76,-570,874
706,6408.9839889998075,9,2437,-5283,-3119,-108,-582,728
707,6418.320904999746,9,2569,-5477,-3406,-70,-257,534
708,6427.523821999785,9,2745,-5863,-3621,100,-365,348
709,6436.744738000016,9,2826,-5673,-3837,63,-247,176
710,6445.930654999756,9,2864,-5843,-3773,-60,-28,-238
711,6455.64156699993,9,2853,-5679,-3624,-172,132,-252
712,6464.57148699983,8,2881,-5338,-3392,-233,288,-468
713,6473.460405999958,8,2860,-4993,-3236,-247,394,-620
714,6482.294327000091,8,2888,-4715,-2833,-223,488,-732
715,6491.1812459999965,8,2874,-4515,-2852,-192,562,-861
716,6500.051166000048,8,2797,-4254,-2694,-178,600,-940
717,6509.074084000076,9,2712,-4013,-2463,-211,637,-999
718,6517.981003999921,8,2683,-3781,-2057,-247,666,-1038
719,6526.910922999832,8,2322,-3596,-2027,-279,661,-1076
720,6535.8258430001115,8,2426,-3096,-1900,-308,650,-1103
721,6544.747762000043,8,2306,-3143,-1675,-310,629,-1127
722,6553.636681999706,8,2207,-2832,-1513,-350,610,-1168
723,6562.614599999961,8,2113,-2509,-1270,-383,559,-1172
724,6571.523520000028,8,2054,-2161,-1114,-455,505,-1127
725,6580.361439999706,8,1996,-1790,-781,-502,406,-1058
726,6589.058360999843,8,1924,-1501,-941,-544,342,-972
727,6597.882281999773,8,1905,-1210,-859,-571,280,-837
728,6606.972198999756,9,1842,-953,-898,-580,214,-708
729,6615.782119999949,8,1755,-723,-878,-563,167,-555
730,6624.764038999729,8,1650,-556,-566,-483,151,-393
731,6633.6049589999675,8,1302,-449,-691,-395,132,-308
732,6642.48287800001,8,1427,-300,-555,-276,104,-227
733,6651.348798000072,8,1356,-98,-274,-194,27,-118
734,6660.130718999881,8,1357,59,-757,-107,-50,71
735,6669.0426380000645,8,1383,151,-626,241,-152,313
736,6677.878557999975,8,1454,194,-793,100,-499,599
737,6686.748478000027,8,1562,159,-1013,192,-336,1213
738,6695.528399000068,8,1571,-144,-1189,220,-423,1350
739,6704.365318999862,8,1534,-704,-1411,219,-461,1792
740,6713.194239000131,8,1451,-1425,-1491,157,-503,1979
741,6722.052158999759,8,1321,-2087,-1666,-56,-546,1994
742,6730.770079999729,8,1248,-2709,-1807,-221,-607,1909
743,6739.649999999983,8,1323,-2751,-1971,-349,-650,1758
744,6748.416920999716,8,1756,-2943,-2199,-242,-659,1639
745,6757.220840999707,8,1578,-2680,-2605,-277,-773,1743
746,6766.136759999881,8,1708,-2640,-2761,-237,-798,1868
747,6774.922681000135,8,1791,-2668,-3278,-180,-741,1949
748,6783.733600999767,8,1890,-2791,-3495,-119,-696,2165
749,6792.610520999915,8,1723,-3629,-3665,-80,-578,2284
750,6801.487441000063,8,1562,-5000,-3767,11,-463,2184
751,6810.380360999716,8,1426,-6044,-4072,55,-315,1611
752,6819.230280999818,8,1545,-6482,-4218,-42,-157,1321
753,6828.041200999905,8,1605,-6619,-4347,-226,-91,599
754,6837.521115000072,9,1822,-6540,-4553,-293,-90,501
755,6846.272035999846,8,1827,-6413,-4860,-305,-26,153
756,6855.037956999695,8,2007,-5995,-4664,-308,123,-51
757,6864.009875999727,8,2112,-5518,-4571,-326,296,-205
758,6872.872795999683,8,2128,-4979,-4129,-358,503,-315
759,6881.782715000099,8,2219,-4620,-4094,-372,647,-427
760,6890.6376350000755,8,2193,-4381,-3848,-327,748,-490
761,6899.467554999774,8,2151,-4366,-3539,-254,840,-565
762,6908.425475000058,8,2138,-4261,-3107,-184,940,-675
763,6917.325393999818,8,2098,-4216,-3084,-137,965,-813
764,6926.2913130000925,8,2067,-4142,-2873,-128,984,-936
765,6935.159232999922,8,2058,-3996,-2693,-127,1013,-1069
766,6944.0241530001,8,2078,-3635,-2532,-142,1034,-1142
767,6952.955071999895,8,1995,-3304,-2261,-127,1059,-1174
768,6961.852991999876,8,1886,-3064,-2016,-134,1092,-1223
769,6970.66691200007,8,1839,-2738,-1760,-103,1113,-1294
770,6979.550831999859,8,1787,-2269,-1301,-54,1119,-1328
771,6988.489751000088,8,1777,-1967,-1226,253,1109,-1284
772,6997.342670999842,8,1746,-1697,-1022,48,1085,-1230
773,7006.2965899996925,8,1755,-1475,-843,87,1017,-1173
774,7015.106509999896,8,1725,-1289,-649,109,916,-1103
775,7024.073429000055,8,1711,-1157,-510,103,808,-981
776,7032.861350000076,8,1558,-1050,-403,92,698,-873
777,7041.779269000017,8,1712,-931,-328,30,559,-799
778,7050.591189999977,8,1711,-859,-187,-11,336,-630
779,7061.904088000119,11,1645,-784,-133,-54,184,-547
780,7070.775007000066,8,1586,-655,-164,-84,43,-494
781,7079.668927000057,8,1535,-381,-200,-32,-119,-410
782,7088.516846999937,8,1552,-220,-500,56,-256,-235
783,7097.3777670001255,8,1644,3,-429,192,-372,-38
784,7106.296685999951,8,1735,84,-621,348,-477,240
785,7115.198605999922,8,1844,-195,-1023,386,-570,588
786,7124.123524999959,8,1850,-593,-924,338,-653,976
787,7132.960444999753,8,1539,-1058,-1016,235,-768,1200
788,7141.867365000053,8,1774,-1913,-1136,79,-903,1340
789,7150.658285999725,8,1780,-2340,-1358,-55,-1098,1384
790,7160.133200000018,9,2040,-2724,-1668,-137,-1283,1375
791,7169.479114999831,9,1816,-2969,-2245,-133,-1514,1372
792,7178.750031999698,9,1863,-3160,-2481,-128,-1647,1411
793,7188.007947999722,9,1879,-3439,-2906,-112,-1721,1475
794,7197.184865000054,9,1888,-3808,-3389,-143,-1719,1559
795,7206.609779999781,9,1842,-4101,-3769,-204,-1643,1577
796,7215.814697000042,9,1760,-4512,-4204,-214,-1506,1519
797,7225.0266129999545,9,1656,-5219,-4504,-192,-1335,1374
798,7234.340528999837,9,1625,-5468,-4757,-124,-1072,1070
799,7243.53244599979,9,1637,-5713,-4970,-44,-849,764
800,7253.413356999772,9,1628,-5753,-5045,10,-594,413
801,7262.289277000036,8,1735,-5586,-5072,33,-380,179
802,7271.214196000074,8,1806,-5426,-4989,-1,-170,1
803,7280.076115999691,8,1885,-5177,-4776,-57,84,-171
804,7289.03503499987,8,1885,-4939,-4520,-114,263,-364
805,7297.845954999957,8,1973,-4666,-4196,-161,384,-520
806,7306.896873999904,9,1974,-4142,-3882,-172,744,-658
807,7315.736793999804,8,1971,-4170,-3683,-147,619,-799
808,7324.702713000079,8,1988,-3934,-3415,-104,698,-974
809,7333.511632999944,8,1990,-3664,-3177,-67,780,-1092
810,7342.3715529997935,8,1976,-3482,-2947,-28,837,-1177
811,7351.213472999916,8,1923,-3234,-2782,14,871,-1253
812,7359.792396000103,8,1917,-3214,-2325,58,899,-1322
813,7368.605315999957,8,1871,-2992,-2304,95,933,-1450
814,7377.502236000055,8,1826,-2695,-2080,102,960,-1549
815,7386.209156999939,8,1776,-2063,-1834,99,965,-1618
816,7395.063077000032,8,1802,-1899,-1633,95,943,-1651
817,7403.962995999791,8,1816,-1538,-1375,111,915,-1642
818,7412.818916000106,8,1859,-1242,-1216,142,849,-1579
819,7421.747836000122,8,1855,-791,-1061,186,746,-1496
820,7430.520756000078,8,1914,-989,-988,203,607,-1384
821,7439.442675999999,8,1924,-709,-971,215,480,-1251
822,7448.329594999905,8,2045,-848,-982,175,362,-1123
823,7457.217514999684,8,1980,-831,-989,130,251,-974
824,7466.190434000055,8,1957,-797,-1004,75,119,-868
825,7474.996353999813,8,1864,-668,-912,45,50,-775
826,7483.926273999714,8,2046,-440,-904,46,-16,-678
827,7492.744193999897,8,1798,-247,-920,118,-107,-508
828,7501.68411300001,8,1785,-48,-971,216,-211,-29
829,7510.617033000017,8,1830,-5,-1072,350,-285,65
830,7519.495951999943,8,1903,-70,-1228,471,-381,426
831,7528.401871999904,8,1821,-656,-1305,454,-450,783
832,7537.292791999789,8,1650,-1212,-1362,353,-485,1038
833,7546.195711000109,8,1481,-1774,-1381,209,-549,1135
834,7555.136630000106,8,1261,-2552,-1474,39,-656,1066
835,7564.048549999825,8,1168,-2640,-1573,-15,-798,949
836,7572.915469999771,8,1138,-2556,-1969,-11,-876,838
837,7581.839388999924,8,1259,-2335,-2056,89,-944,880
838,7590.679308999825,8,1255,-2257,-2246,234,-962,1024
839,7599.4782299999315,8,1370,-2266,-2471,324,-886,1182
840,7608.5191479996865,9,1418,-2491,-2620,392,-828,1425
841,7617.355068000052,8,1336,-2888,-2638,331,-770,1537
842,7626.314987000114,8,1265,-3631,-2760,165,-707,1484
843,7635.149906999686,8,1305,-4111,-2838,66,-649,1064
844,7643.9968269996825,8,1294,-4240,-2876,-22,-658,1065
845,7652.863747000083,8,1392,-4033,-2929,-36,-660,881
846,7661.686666999685,8,1609,-3758,-3075,67,-652,785
847,7670.460587999969,8,1711,-3576,-3185,164,-592,808
848,7679.244509,8,1766,-3594,-3581,251,-474,877
849,7688.045428999885,8,1795,-3814,-3330,295,-351,897
850,7696.887349000008,8,2035,-4088,-3317,11,-231,830
851,7705.6702699997,8,1848,-4586,-3229,163,-137,678
852,7714.4851899997775,8,1876,-4433,-3135,76,-61,261
853,7723.387109999749,8,1974,-4273,-3054,31,-37,372
854,7732.174029999896,8,2058,-4115,-3003,45,-35,261
855,7741.075949999868,8,2139,-4011,-2963,104,-31,207
856,7749.893870000051,8,2206,-3950,-2977,131,-20,184
857,7758.698790999915,8,2235,-4013,-3002,115,-11,175
858,7767.70870900009,9,2243,-4143,-3043,41,-12,160
859,7776.545628999884,8,2264,-4579,-3059,-90,-9,106
860,7785.493548999966,8,2258,-4449,-3072,-160,5,-240
861,7794.343469000069,8,2210,-4519,-3078,-200,25,-147
862,7803.2773879999695,8,2248,-4445,-3060,-195,70,-314
863,7812.218306999966,8,2271,-4231,-3060,-127,123,-452
864,7821.271224999691,9,2315,-4074,-3053,-55,187,-532
865,7830.11614499992,8,2345,-4089,-3046,8,502,-569
866,7839.75105799982,9,2312,-4148,-3021,47,326,-617
867,7848.6219779997555,8,2277,-4159,-2971,30,395,-728
868,7857.649897000101,9,2246,-4097,-2799,-254,437,-823
869,7866.408817999854,8,2246,-4023,-2716,-22,467,-904
870,7875.144739000007,8,2213,-3999,-2620,-32,481,-965
871,7884.105657999953,8,2174,-3898,-2511,-45,494,-1045
872,7892.947578000076,8,2143,-3825,-2411,-44,493,-1152
873,7901.884497000083,8,2076,-3625,-2310,-62,482,-1235
874,7910.778417000074,8,2039,-3445,-2248,-76,496,-1298
875,7919.818334999945,9,1980,-3213,-2145,-78,519,-1371
876,7928.770254000028,8,1917,-2912,-1944,-83,545,-1424
877,7937.726173000101,8,1895,-2678,-1805,-62,557,-1450
878,7946.566093999991,8,1854,-2383,-1630,-22,544,-1433
879,7955.459013000109,8,1819,-2240,-1477,19,504,-1381
880,7964.843927999937,9,1738,-2142,-1306,43,439,-1357
881,7974.194844000067,9,1696,-1979,-1181,48,380,-1330
882,7983.49275999999,9,1614,-1547,-1074,-2,313,-1297
883,7992.669676999867,9,1600,-1610,-1017,-50,213,-1221
884,8001.933593000103,9,1575,-1404,-952,-90,124,-1145
885,8011.227509000037,9,1524,-1166,-945,-124,23,-1058
886,8020.536425000046,9,1497,-1047,-936,-131,-40,-924
887,8029.559344000063,9,1403,-839,-911,-151,-123,-810
888,8039.551253999889,9,1394,-632,-935,-122,-184,-710
889,8049.415164000038,9,1468,-388,-1058,-42,-266,-495
890,8058.797079999749,9,1469,-320,-1119,67,-344,-216
891,8068.587990999731,9,1458,-276,-1205,135,-362,-11
892,8077.43691099995,8,1534,-468,-1293,181,-385,199
893,8086.231832000067,8,1432,-400,-1400,164,-432,411
894,8095.042751999699,8,1478,-848,-1512,136,-494,644
895,8103.946671999893,8,1429,-1163,-1687,117,-558,850
896,8112.865590999718,8,1415,-1751,-1820,102,-626,945
897,8121.772511000017,8,1368,-1713,-1953,64,-687,1269
898,8130.562430999817,8,1414,-1841,-2135,32,-743,1085
899,8139.445350999722,8,1443,-1915,-2283,9,-784,1219
900,8148.329270999966,8,1420,-2030,-2467,-3,-793,1327
901,8157.207190999998,8,1439,-2185,-2588,31,-760,1423
902,8166.186110000126,8,1390,-2503,-2691,49,-726,1497
903,8175.009029999728,8,1399,-2930,-2904,59,-676,1537
904,8184.027947999766,9,1256,-3523,-2968,64,-620,1476
905,8192.880867999975,8,1245,-3806,-3084,76,-520,1347
906,8201.807787999769,8,1282,-3667,-3132,120,-440,1219
907,8210.649707999892,8,1298,-3671,-3097,158,-350,1133
908,8219.504627999868,8,1353,-3508,-3044,224,-248,1045
909,8228.413546999946,8,1442,-3187,-2962,298,-132,989
910,8237.290467000093,8,1470,-2949,-2804,333,-49,993
911,8246.183386999746,8,1785,-2875,-2576,373,6,1022
912,8255.108305999784,8,1600,-2880,-2433,414,12,1062
913,8264.008225999987,8,1621,-3155,-2390,399,-21,1102
914,8272.845145999781,8,1644,-3443,-2395,335,-63,1141
915,8281.75606600007,8,1653,-3662,-2461,250,-118,1114
916,8290.604985999835,8,1633,-3979,-2529,142,-158,1070
917,8299.500905000059,8,1628,-4027,-2598,61,-160,969
918,8308.381824999742,8,1641,-3959,-2579,34,-143,849
919,8317.265744999986,8,1632,-3756,-2543,31,-126,782
920,8326.42966200001,9,1624,-3625,-2518,57,-83,740
921,8335.377581000103,8,1674,-3607,-2552,112,-51,730
922,8344.17950199986,8,1695,-3690,-2595,145,-25,740
923,8353.017421999994,8,1795,-3973,-2681,169,0,775
924,8361.84834200003,8,1831,-4417,-2778,113,8,795
925,8370.642262999809,8,1852,-4959,-3071,23,18,719
926,8379.215184999794,8,1847,-5185,-2934,-76,36,275
927,8387.978105999991,8,1848,-5291,-3019,-118,54,285
928,8396.871026000099,8,1888,-5259,-3096,-152,73,129
929,8405.67894600008,8,1957,-5218,-3261,-116,119,17
930,8414.568866000081,8,1974,-5222,-3410,-80,205,-54
931,8423.35878599988,8,1999,-5322,-3510,-58,303,-122
932,8432.1867069998,8,1994,-5400,-3496,-47,429,-255
933,8441.066626000065,8,1941,-5121,-3375,-63,555,-411
934,8449.904546999733,8,1945,-5167,-3232,-46,677,-552
935,8458.73546699977,8,1942,-4961,-2999,8,728,-679
936,8467.741385999943,9,1908,-4808,-2828,53,754,-770
937,8476.562305999778,8,1859,-4698,-2697,91,790,-848
938,8485.535224999694,8,1807,-4506,-2309,59,799,-919
939,8494.381144999807,8,1752,-4289,-2305,21,803,-1004
940,8503.334063999773,8,1655,-3952,-2119,-37,801,-1081
941,8512.25098299983,8,1640,-3726,-2010,-39,777,-1096
942,8521.16590300011,8,1543,-3363,-1788,-47,752,-1103
943,8530.00582300001,8,1479,-3126,-1616,-54,726,-1124
944,8538.986741999906,8,1406,-2574,-1542,-69,701,-1125
945,8547.828662000029,8,1361,-2340,-1427,-103,654,-1098
946,8556.791580999743,8,1303,-2374,-1316,-147,604,-1057
947,8565.653500999815,8,1219,-2137,-1184,-168,565,-1012
948,8574.583419999726,8,1158,-1607,-1096,-194,500,-959
949,8583.500339999773,8,1122,-1317,-1057,-211,414,-868
950,8592.420258999937,8,1062,-1290,-992,-212,340,-726
951,8601.314178999928,8,1026,-1127,-972,-207,260,-603
952,8610.124099000132,8,991,-929,-976,-181,178,-482
953,8619.13001799985,9,977,-720,-963,-175,79,-364
954,8628.066936999858,8,915,-596,-1033,-173,17,-221
955,8637.015855999834,8,905,-495,-1027,-132,-4,-102
956,8645.86677599982,8,861,-387,-1021,-76,-30,28
957,8654.791695999847,8,883,-275,-1043,15,-63,188
958,8663.54761699995,8,969,-222,-1108,137,-96,464
959,8672.317537999788,8,1270,-362,-1255,268,-162,754
960,8681.157457999689,8,998,-787,-1264,353,-198,995
961,8689.939377999963,8,996,-1516,-1370,341,-230,1147
962,8698.780297999747,8,988,-1904,-1484,286,-306,1255
963,8707.622218999859,8,1038,-2415,-1577,190,-369,1294
964,8716.507137999997,8,1085,-2791,-1815,88,-444,1261
965,8725.370057999953,8,1281,-3317,-2050,65,-561,1267
966,8734.198977999768,8,1346,-3448,-2532,38,-672,1308
967,8742.999899000097,8,1425,-3712,-2614,-11,-702,1341
968,8751.88481899977,8,1508,-4013,-2899,-59,-740,1363
969,8760.631740000008,8,1547,-4369,-3166,-140,-792,1383
970,8770.11165399972,9,1778,-4928,-3577,-218,-770,1328
971,8779.40456999977,9,1570,-5388,-3814,-310,-686,1212
972,8788.826484999845,9,1540,-5675,-4049,-364,-576,953
973,8798.021401999904,9,1591,-5675,-4171,-381,-445,708
974,8807.337318000009,9,1664,-5527,-4271,-318,-255,458
975,8816.581233999841,9,1720,-5398,-4235,-197,-58,291
976,8825.787150999986,9,1831,-5143,-4092,-87,195,146
977,8835.070066999833,9,1942,-4939,-3822,2,356,36
978,8845.02997799973,9,1984,-4782,-3560,3,476,-28
979,8854.257894000057,9,2035,-4709,-3241,-35,565,-132
980,8864.183804999811,9,2068,-4550,-3039,-68,605,-225
981,8873.173723000036,8,2119,-4539,-2839,-144,580,-259
982,8882.039643000098,8,2084,-4478,-2677,-199,571,-336
983,8890.70456499985,8,2096,-4255,-2615,-238,563,-453
984,8899.562484999933,8,2094,-4058,-2540,-273,535,-538
985,8908.486405000076,8,2098,-3882,-2469,-313,527,-579
986,8917.399323999689,8,2144,-3682,-2439,-322,527,-628
987,8926.261243999761,8,2092,-3564,-2382,-336,504,-627
988,8935.147163999773,8,2055,-3459,-2314,-412,462,-657
989,8944.055082999967,8,2009,-3298,-2385,-480,437,-713
990,8953.023002000009,8,1973,-3145,-2425,-564,409,-736
991,8961.92892199997,8,1965,-3033,-2485,-600,403,-719
992,8970.854840999891,8,1932,-2973,-2584,-594,430,-715
993,8979.772760999822,8,1957,-2962,-2681,-553,475,-728
994,8988.64168099999,8,1912,-2965,-2684,-528,555,-1018
995,8997.644599000068,9,1926,-2900,-2687,-508,635,-840
