,time_ms,delta_ms,aX,aY,aZ,gX,gY,gZ
0,0.0,0,729,-2500,-3711,163,-1,98
1,10.07991000005859,10,661,-2491,-3678,196,-182,28
2,19.25782900025297,9,557,-2479,-3613,265,-109,3
3,28.423748000022897,9,628,-2409,-3575,319,-30,-47
4,37.86966500001654,9,623,-2294,-3467,353,2,-66
5,47.07758400036255,9,606,-2168,-3341,398,53,-64
6,56.3045020003301,9,591,-2040,-3199,464,101,-46
7,65.47442100008993,9,632,-1839,-3018,564,135,-36
8,74.73433900031523,9,549,-2135,-2932,672,172,-12
9,83.9412580003227,9,510,-2270,-2847,1016,167,4
10,93.02817800016783,9,456,-2492,-2801,773,117,10
11,102.10909700026605,9,423,-2705,-2747,710,64,1
12,113.16000000033455,11,382,-2785,-2704,611,8,-19
13,124.06190300043818,10,412,-2721,-2623,543,-16,-18
14,133.2448220000515,9,419,-2553,-2529,513,-35,-6
15,142.1047440003349,8,412,-2424,-2397,530,-18,5
16,150.90466600031505,8,429,-2277,-2306,607,-6,18
17,160.020586000428,9,368,-2503,-2220,685,-39,75
18,168.9495070004341,8,326,-2497,-2205,763,-107,167
19,177.89642800016736,8,255,-2841,-2283,801,-174,168
20,186.80634900010773,8,196,-3172,-2367,761,-491,132
21,195.65127100031532,8,143,-3361,-2416,676,-340,108
22,204.5641920003618,8,156,-3475,-2492,584,-383,33
23,213.37111400043796,8,180,-3294,-2522,256,-391,-9
24,222.2310360002666,8,210,-3065,-2482,447,-373,-60
25,231.10295800006497,8,237,-2564,-2396,452,-281,-86
26,239.93887900041955,8,248,-2488,-2272,511,-183,-107
27,248.8358010000411,8,272,-2275,-2125,605,-90,-83
28,257.63872300012736,8,267,-2228,-2069,1015,-74,8
29,266.3556460001928,8,211,-2741,-2075,991,-120,106
30,275.30556700003217,8,126,-3107,-2150,1123,-167,157
31,284.077489000083,8,87,-3564,-2240,1170,-182,84
32,292.9174110004169,8,47,-3895,-2214,1092,-198,-25
33,301.8393330003164,8,84,-3944,-2218,918,-208,-142
34,310.69725400038806,8,170,-3717,-2181,745,-228,-194
35,319.6291750000455,8,296,-3432,-2131,585,-224,-171
36,328.4620970002834,8,388,-3162,-2049,469,-213,-105
37,337.3940180003956,8,486,-2996,-2016,394,-221,-1
38,346.30494000020917,8,514,-3041,-2030,372,-265,111
39,355.2438610004174,8,474,-3370,-2160,401,-348,228
40,364.1057820000242,8,413,-3774,-2278,471,-418,216
41,372.975704000055,8,378,-4135,-2433,596,-436,138
42,381.88162500000544,8,357,-4414,-2517,686,-432,22
43,390.7715470004405,8,458,-4455,-2497,713,-404,-92
44,399.70146800033035,8,603,-4101,-2436,643,-384,-122
45,408.70238900015465,9,729,-4202,-2387,502,-410,-105
46,417.5593100003425,8,819,-4012,-2344,363,-426,-35
47,426.4642320003986,8,932,-3886,-2413,233,-468,62
48,435.3511530002834,8,994,-3932,-2476,168,-526,201
49,444.3750740001633,9,929,-4216,-2617,192,-561,286
50,453.28899500009356,8,863,-4536,-2839,292,-551,287
51,462.16791600045326,8,814,-4921,-2966,395,-548,236
52,470.9908380000343,8,822,-5246,-2999,487,-531,156
53,480.314756000098,9,828,-5591,-3112,479,-502,39
54,489.29567700042753,8,833,-5658,-3083,367,-496,-63
55,498.2245980004336,8,896,-5555,-3044,176,-482,-176
56,507.1975190003286,8,1028,-5197,-3021,36,-479,-232
57,516.0344410001017,8,1092,-4926,-3008,-72,-470,-211
58,524.962362000224,8,1154,-4793,-3084,-100,-437,-174
59,533.8952830002199,8,1125,-5107,-3170,-88,-426,-151
60,542.7712040000188,8,1079,-5057,-3331,-54,-349,-211
61,551.7371250002725,8,1062,-5217,-3497,-22,-269,-335
62,560.5920470002275,8,993,-5408,-3557,16,-178,-488
63,569.4729690003442,8,1029,-5146,-3598,59,-10,-677
64,578.2958910003799,8,1128,-5001,-3541,109,109,-797
65,587.0968130002439,8,1202,-4587,-3371,127,221,-815
66,595.9417350004514,8,1529,-4230,-3235,150,345,-786
67,604.5836580001378,8,1322,-4057,-3135,176,431,-729
68,613.3505810003044,8,1300,-3995,-3021,174,527,-671
69,622.1665030002441,8,1307,-3944,-2865,165,606,-639
70,631.0264250000728,8,1260,-3864,-2738,105,674,-671
71,639.8993470002097,8,1239,-3844,-2637,50,729,-715
72,648.7472680000792,8,1222,-3786,-2508,-2,772,-1017
73,657.6021900000342,8,1240,-3670,-2401,-24,799,-803
74,666.4481120001255,8,1256,-3698,-2327,-64,776,-812
75,675.3400340003282,8,1203,-3726,-2248,-136,754,-830
76,684.1419560000759,8,1197,-3662,-2190,-279,747,-888
77,693.0818770001679,8,1168,-3403,-2152,-408,730,-946
78,701.9157990002896,8,1145,-3138,-2052,-523,728,-946
79,710.8537200001592,8,1202,-2930,-2100,-586,746,-901
80,719.7596410001097,8,1203,-2864,-2160,-553,773,-865
81,728.6065630000849,8,1205,-2961,-2225,-493,838,-838
82,737.4954850001814,8,1173,-3194,-2287,-425,894,-873
83,746.3234070000908,8,1135,-3313,-2255,-393,949,-959
84,755.3073270000823,8,1209,-3272,-2183,-401,986,-1028
85,764.1532490001737,8,1227,-3029,-2184,-491,989,-775
86,773.0111710002348,8,1326,-2749,-2333,-602,1015,-921
87,781.8670930000735,8,1358,-2473,-2498,-723,1096,-779
88,790.7070150004074,8,1323,-2414,-2648,-878,1519,-648
89,799.6109360001356,8,1403,-2448,-2751,-870,1475,-271
90,808.5618570003135,8,1406,-2547,-2724,-838,1583,-398
91,817.4537780000719,8,1422,-2747,-2732,-768,1687,-394
92,826.3717000004362,8,1503,-2570,-2717,-633,2037,-448
93,835.2426210003614,8,1586,-2720,-2645,-596,1874,-484
94,844.0745430002607,8,1808,-2600,-2583,-641,1962,-435
95,852.9194650000136,8,1971,-2492,-2538,-759,1987,-317
96,861.817386000439,8,2123,-2518,-2508,-899,1964,-191
97,870.6183090002924,8,2155,-2667,-2398,-1045,1973,-136
98,879.5432300003085,8,2160,-2757,-2352,-1139,1953,-181
99,888.3391520002988,8,2179,-2742,-2303,-1149,1921,-233
100,897.1160750002127,8,2252,-2719,-2231,-1080,1882,-269
101,906.022996000047,8,2258,-2648,-2107,-958,1833,-329
102,914.7849190003399,8,2342,-2525,-1964,-854,1790,-384
103,923.6468400004014,8,2425,-2489,-1834,-826,1713,-369
104,932.4737620004271,8,2465,-2438,-1781,-923,1605,-323
105,941.5866820004339,9,2461,-2472,-1797,-1045,1479,-283
106,950.3526040002725,8,2459,-2453,-1874,-1181,1393,-207
107,959.1985260003639,8,2380,-2350,-1945,-1289,1357,-166
108,968.1494470000871,8,2324,-2325,-2024,-1325,1389,-148
109,976.9853690004311,8,2234,-2347,-2001,-1281,1431,-149
110,985.8562910003457,8,2170,-2291,-1847,-1191,1499,-202
111,994.7342120003668,8,2204,-2257,-1617,-1095,1528,-234
112,1003.5561350000535,8,2157,-2157,-1419,-1019,1485,-273
113,1012.5200550000955,8,2189,-2049,-1196,-993,1432,-294
114,1021.4109770004143,8,2219,-1915,-1044,-1003,1328,-260
115,1030.3148980001424,8,2254,-1802,-933,-1035,1185,-199
116,1039.2698190003102,8,2279,-1752,-906,-1083,1061,-149
117,1048.1887400001142,8,2275,-1711,-867,-1124,942,-108
118,1057.0646620003572,8,2254,-1593,-874,-1153,842,-76
119,1065.9715830001915,8,2230,-1535,-841,-1161,758,-60
120,1074.8235050000403,8,2177,-1411,-765,-1110,703,-72
121,1083.6814270001014,8,2156,-1339,-663,-1060,648,-88
122,1092.6233480004157,8,2084,-1222,-396,-1007,589,-130
123,1101.4502700004414,8,2134,-1075,-269,-923,503,-136
124,1110.3251920003459,8,2202,-967,-164,-872,365,-88
125,1119.0821140003209,8,2238,-798,-210,-807,174,6
126,1128.0700350002917,8,2280,-798,-295,-750,27,162
127,1136.9339570001102,8,2297,-898,-530,-680,-133,292
128,1145.8198780001112,8,2204,-1166,-794,-571,-291,364
129,1154.7088000002077,8,2091,-1438,-1044,-504,-362,370
130,1163.5487210000974,8,1965,-1463,-1214,-440,-362,342
131,1172.4886420001894,8,1958,-1468,-1235,-382,-322,334
132,1181.399564000003,8,2006,-1448,-1223,-320,-316,348
133,1190.3514850000647,8,2113,-1466,-1207,-275,-355,412
134,1199.1874070004087,8,2172,-1507,-1275,-264,-461,559
135,1208.1403280003542,8,2178,-1474,-1371,-311,-594,688
136,1216.9402500003343,8,2151,-1472,-1596,-458,-708,821
137,1225.9061710001333,8,2038,-1600,-1895,-578,-832,961
138,1234.6600930000022,8,1899,-1896,-2279,-643,-889,1055
139,1243.4580160002042,8,1719,-2312,-2538,-600,-863,1016
140,1252.2309380001388,8,1627,-2648,-2771,-481,-848,921
141,1261.1228600003415,8,1602,-2755,-2884,-362,-860,831
142,1269.9417820003873,8,1594,-2724,-2943,-307,-843,758
143,1278.8077030004388,8,1667,-2671,-3042,-256,-836,782
144,1287.6276260003578,8,1599,-2577,-3063,-243,-837,830
145,1296.5195470001163,8,1580,-2496,-3011,-237,-527,866
146,1305.4474680002386,8,1602,-2622,-3030,-207,-758,923
147,1314.4243890001235,8,1507,-2698,-3025,-157,-782,895
148,1323.3413100001599,8,1449,-2770,-3036,-60,-750,817
149,1332.1772320000491,8,1434,-2854,-3071,21,-726,719
150,1341.2221520002277,9,1451,-2822,-3085,120,-714,620
151,1350.0600740003392,8,1485,-2759,-3018,206,-706,563
152,1359.0029950000826,8,1582,-2740,-2907,270,-693,549
153,1367.8579170000376,8,1587,-2654,-2735,247,-716,564
154,1376.77783800018,8,1643,-2642,-2569,175,-780,604
155,1385.6847600000037,8,1639,-2711,-2530,32,-876,626
156,1394.5196820000092,8,1568,-3069,-2525,-85,-972,593
157,1403.369603000101,8,1526,-2807,-2615,-161,-1071,540
158,1412.25252500044,8,1782,-2774,-2725,-181,-1127,485
159,1421.222446000229,8,1602,-2672,-2718,-140,-1171,502
160,1430.0823680000576,8,1574,-2308,-2742,-72,-1252,534
161,1438.948289000109,8,1628,-2655,-2759,-21,-1367,577
162,1447.7752110001347,8,1519,-2799,-2837,-23,-1435,552
163,1456.73613200006,8,1406,-2905,-2881,-148,-1462,478
164,1465.587054000025,8,1327,-2933,-2958,-276,-1480,372
165,1474.4419760004348,8,1298,-2884,-3308,-381,-1503,243
166,1484.0238910001062,9,1275,-2880,-3176,-439,-1524,174
167,1492.897813000127,8,1238,-2950,-3571,-432,-1556,95
168,1501.8857340000977,8,1201,-2858,-3487,-401,-1568,22
169,1510.7446550000532,8,1138,-2730,-3652,-378,-1530,4
170,1520.443570000225,9,1105,-2551,-3741,-348,-1401,2
171,1529.7714870002892,9,1110,-2472,-3753,-278,-1262,12
172,1539.0124060004382,9,1107,-2482,-3794,-188,-1102,26
173,1548.3943230001387,9,1073,-2687,-3953,-9,-1013,18
174,1557.6812410004095,9,962,-3077,-4093,116,-875,-50
175,1566.8711600001188,9,985,-3223,-4143,511,-756,-214
176,1576.2050770003952,9,1042,-3252,-4100,367,-634,-282
177,1585.381996000251,9,1101,-3126,-4026,412,-553,-337
178,1594.6339150000313,9,1191,-3056,-3917,441,-459,-341
179,1603.8058340000134,9,1228,-2939,-3806,449,-381,-315
180,1612.8947540000809,9,1531,-2941,-3670,460,-336,-283
181,1622.605668000233,9,1330,-3055,-3611,459,-348,-271
182,1631.3975900002333,8,1327,-3150,-3595,445,-391,-276
183,1640.349511000295,8,1310,-3253,-3727,427,-427,-310
184,1649.160433000361,8,1299,-3402,-3874,398,-443,-354
185,1658.093354000357,8,1299,-3528,-4010,378,-445,-413
186,1666.9832760003374,8,1286,-3591,-4109,360,-438,-487
187,1675.9091970002373,8,1296,-3615,-4246,353,-425,-536
188,1684.7151190004297,8,1268,-3556,-4296,304,-373,-578
189,1693.5930410004403,8,1297,-3428,-4269,260,-252,-613
190,1702.4879620003048,8,1343,-3229,-4195,255,-164,-642
191,1711.4358830003766,8,1365,-3104,-4082,278,-80,-644
192,1720.3638050000336,8,1405,-2997,-3951,310,247,-671
193,1729.176727000322,8,1475,-2898,-3768,354,61,-710
194,1738.1076480000957,8,1541,-2797,-3593,361,73,-739
195,1746.9095700002981,8,1622,-2736,-3462,330,76,-757
196,1755.8404910000718,8,1670,-2713,-3392,229,37,-790
197,1764.5874140002888,8,1706,-2594,-3421,123,-15,-807
198,1773.390336000375,8,1729,-2429,-3519,-11,-30,-798
199,1782.2252580003806,8,1671,-2332,-3626,-132,-1,-791
200,1791.090180000083,8,1712,-2221,-3736,-200,65,-784
201,1799.8311030000878,8,1695,-2226,-3776,-171,164,-805
202,1808.752024000114,8,1735,-2227,-3808,-96,262,-836
203,1817.539947000114,8,1792,-2340,-3802,0,376,-876
204,1826.3848690003215,8,1814,-2415,-3792,61,472,-910
205,1835.2077910003572,8,1880,-2488,-3714,105,570,-950
206,1844.0137130000949,8,1952,-2545,-3629,111,684,-962
207,1852.813635000075,8,1959,-2597,-3437,77,772,-997
208,1861.6565570000603,8,2292,-2566,-3223,17,843,-1030
209,1870.5134790002376,8,2132,-2483,-3069,-76,855,-1022
210,1879.4094000004407,8,2212,-2416,-2973,-136,810,-988
211,1888.2543220001935,8,2225,-2433,-2926,-205,791,-957
212,1897.089244000199,8,2239,-2435,-2961,-225,766,-950
213,1906.0071660001086,8,2185,-2561,-3012,-230,745,-956
214,1914.866087000064,8,2173,-2713,-3053,-224,759,-1270
215,1923.735009000211,8,2128,-2778,-3031,-203,794,-1130
216,1932.5639310000042,8,2169,-2686,-2858,-199,813,-1200
217,1941.5048520004348,8,2179,-2489,-2724,-221,845,-1254
218,1950.4317730002185,8,2287,-2171,-2598,-244,858,-1249
219,1959.302695000133,8,2381,-2018,-2504,-269,797,-1157
220,1968.2616160002908,8,2383,-1950,-2485,-276,747,-1088
221,1977.1485370001756,8,2374,-1987,-2563,-242,718,-1029
222,1986.055459000454,8,2345,-2059,-2642,-202,675,-1016
223,1994.9023810004292,8,2295,-2094,-2649,-145,692,-1027
224,2003.7593020001623,8,2290,-2064,-2635,-99,719,-1033
225,2012.7172230004362,8,2311,-1982,-2601,-41,729,-996
226,2021.691144000215,8,2314,-1834,-2510,-39,743,-917
227,2030.5220660002306,8,2335,-1734,-2381,-55,763,-807
228,2039.5029870001053,8,2312,-1647,-2227,-109,773,-716
229,2048.3579090000603,8,2290,-1562,-2068,-156,762,-612
230,2057.3348290004105,8,2248,-1479,-1938,-219,716,-500
231,2066.1487520001174,8,2201,-1432,-1863,-509,650,-378
232,2074.9736740003755,8,2101,-1402,-1849,-258,585,-304
233,2083.964594000008,8,2033,-1314,-1818,-254,540,-247
234,2092.7965160003623,8,1994,-1160,-1774,-227,518,-196
235,2101.649438000095,8,1988,-1024,-1681,-183,504,-118
236,2110.4833600002166,8,1969,-862,-1593,-161,489,-41
237,2119.31228200001,8,2094,-711,-1443,-143,473,46
238,2128.1282040004044,8,2262,-529,-1331,-174,407,152
239,2136.8371270000353,8,2339,-398,-1037,-208,317,251
240,2145.600050000212,8,2380,-315,-1242,-210,240,323
241,2154.4679720000204,8,2349,-254,-1188,-189,142,401
242,2163.2488940003896,8,2217,-259,-1190,-156,36,484
243,2172.120816000188,8,2072,-405,-1524,-111,-57,556
244,2181.017737000275,8,1982,-605,-1442,-69,-154,655
245,2189.8586590000377,8,1912,-808,-1559,-27,-221,713
246,2198.8175800001954,8,1899,-1067,-1729,-3,-284,756
247,2207.666502000393,8,1842,-1417,-1895,-7,-363,765
248,2216.6374230000656,8,1869,-1612,-1995,246,-419,740
249,2225.5303440001626,8,1925,-1650,-2071,34,-751,725
250,2234.361266000178,8,1857,-1565,-1983,116,-680,712
251,2243.3691870000985,9,1934,-1586,-1992,245,-803,741
252,2252.197109000008,8,1542,-1736,-2013,376,-908,697
253,2261.1380300004384,8,1685,-1828,-2087,483,-982,614
254,2270.009952000237,8,1543,-1874,-2187,495,-1027,277
255,2278.9068730003237,8,1563,-1803,-2544,478,-1022,439
256,2287.7557950000664,8,1589,-1718,-2525,762,-1058,458
257,2296.6997160001483,8,1624,-1816,-2731,557,-1109,558
258,2305.573638000169,8,1616,-2212,-3294,571,-1084,688
259,2314.469559000372,8,1466,-2429,-3398,455,-1022,764
260,2324.2804720002823,9,1414,-2617,-3518,283,-868,801
261,2333.6283900002854,9,1388,-2527,-3502,143,-730,812
262,2342.7753090004444,9,1388,-2370,-3265,136,-600,826
263,2353.4382150000965,10,1291,-2188,-2992,329,-512,797
264,2363.254128000335,9,1275,-2101,-2766,644,-482,750
265,2372.4770470003023,9,1264,-2156,-2625,852,-501,744
266,2381.632966000325,9,1230,-2338,-2607,917,-574,797
267,2390.9208840000247,9,1304,-2585,-2643,816,-697,882
268,2400.076803000047,9,1264,-2904,-2822,592,-853,1011
269,2409.340722000252,9,1165,-3312,-2986,234,-975,1087
270,2419.095636000293,9,1104,-3087,-3086,-36,-984,1086
271,2428.0345570000463,8,1049,-2877,-3090,-214,-964,1066
272,2436.8924790001074,8,940,-2724,-3055,-219,-899,1061
273,2445.6814010000016,8,871,-2511,-2980,-148,-755,1040
274,2454.5783220000885,8,849,-2450,-2937,22,-646,1017
275,2463.381245000164,8,814,-2804,-2835,207,-567,1025
276,2474.8771430004126,11,883,-2862,-2822,239,-546,1046
277,2484.2250610004157,9,916,-3102,-2861,177,-612,1082
278,2493.189982000331,8,932,-3270,-2869,-45,-692,1105
279,2502.1099030000187,8,915,-3299,-2915,-288,-777,1120
280,2511.080824000146,8,883,-3120,-2997,-766,-835,1141
281,2519.984745000329,8,819,-2913,-3104,-658,-855,1165
282,2528.9306660001785,8,804,-2761,-3188,-645,-801,1189
283,2537.816588000169,8,743,-2699,-3565,-517,-736,1210
284,2546.730509000099,8,661,-2761,-3382,-354,-628,1204
285,2555.6164310000895,8,642,-3269,-3459,-189,-263,1147
286,2564.4313530001455,8,659,-3364,-3804,-106,-479,1064
287,2573.4502730001623,9,743,-3528,-3699,-80,-488,962
288,2582.368195000072,8,807,-3631,-3869,-115,-525,934
289,2591.2361160003456,8,855,-3628,-4079,-195,-563,929
290,2600.0950380002905,8,832,-3598,-4207,-273,-524,941
291,2608.962960000099,8,807,-3566,-4594,-341,-439,927
292,2617.901881000307,8,709,-3605,-4490,-356,-350,868
293,2626.849802000379,8,651,-3735,-4599,-298,-234,767
294,2635.649724000359,8,619,-3868,-4706,-185,-105,627
295,2644.341648000136,8,629,-4030,-4807,-19,-6,454
296,2653.238569000223,8,663,-4112,-4814,86,39,340
297,2662.041491000309,8,763,-4159,-4818,139,87,262
298,2671.1024110004473,9,802,-4152,-4810,71,132,223
299,2679.884334000235,8,795,-4107,-4772,-38,203,174
300,2688.8302550000844,8,843,-4101,-4635,-175,298,83
301,2697.6081770003475,8,814,-4025,-4457,-273,419,-23
302,2706.419100000403,8,881,-3904,-4255,-317,542,-122
303,2715.309021000394,8,896,-3774,-4077,-323,671,-486
304,2724.140943000293,8,930,-3811,-3875,-277,718,-384
305,2732.9198660004295,8,941,-3863,-3703,-201,745,-557
306,2741.8287870000313,8,960,-3592,-3538,-139,1020,-757
307,2750.6087100000514,8,1044,-3628,-3325,-114,786,-915
308,2759.5326310001838,8,1138,-3441,-2973,-163,780,-1019
309,2768.3525530001134,8,1220,-3367,-2701,-291,731,-1030
310,2777.201475000311,8,1195,-3402,-2470,-594,655,-1082
311,2786.1243960001048,8,1169,-3436,-2347,-870,525,-1216
312,2794.928318000075,8,1132,-3399,-2292,-1069,378,-1432
313,2803.8572400000703,8,1052,-3354,-2268,-1209,257,-1653
314,2812.6821620003284,8,1038,-3201,-2246,-1208,164,-1889
315,2821.6030830003547,8,1031,-2805,-2220,-1098,48,-2084
316,2830.5380040001182,8,1191,-2504,-2060,-987,-12,-2192
317,2839.5159250003417,8,1273,-2388,-1962,-959,-102,-2195
318,2848.358847000327,8,1210,-2495,-1848,-1086,-203,-2257
319,2857.335768000212,8,1151,-2509,-1817,-1231,-375,-2384
320,2866.183690000071,8,1106,-2412,-1805,-1406,-550,-2525
321,2875.1136110004154,8,985,-2308,-1977,-1617,-709,-2640
322,2884.0365320002093,8,832,-2355,-2111,-1694,-857,-2821
323,2892.93045300019,8,817,-2108,-2236,-1650,-898,-3046
324,2901.914374000171,8,788,-1709,-2359,-1522,-980,-3135
325,2910.7982960003937,8,779,-1424,-2409,-1339,-1057,-3130
326,2919.8392160001276,9,796,-1214,-2388,-1287,-1082,-3092
327,2928.7751370002297,8,714,-1167,-2451,-1415,-1135,-3018
328,2937.66105900022,8,550,-885,-2635,-1650,-1253,-2966
329,2946.575980000034,8,421,-402,-2770,-1951,-1316,-2910
330,2955.4389020004237,8,319,-45,-2954,-2065,-1305,-2844
331,2964.2658240004494,8,195,274,-3241,-1992,-1270,-2730
332,2973.2167450001725,8,89,643,-3508,-1678,-1172,-2612
333,2982.047667000188,8,3,948,-3744,-1371,-788,-2457
334,2991.058587000225,9,-32,1281,-3907,-1080,-819,-2290
335,2999.8765100003766,8,56,1535,-3955,-554,-620,-2045
336,3008.7744310003472,8,59,2037,-3915,-643,-464,-1788
337,3017.597353000383,8,168,2281,-3899,-518,-339,-1523
338,3026.3992750001307,8,272,2216,-3889,-395,-244,-1196
339,3035.2881970002272,8,252,2193,-3906,-319,-231,-761
340,3044.093119000081,8,149,2130,-3904,-237,-195,-467
341,3052.8630420003537,8,16,2118,-3818,-46,-136,-208
342,3061.805963000097,8,-21,2211,-3352,151,-34,30
343,3070.6328850001228,8,-16,2302,-3299,378,49,399
344,3079.492807000406,8,5,2373,-2847,629,87,772
345,3088.3317290004015,8,5,2060,-2526,933,66,1152
346,3097.137651000139,8,-98,1992,-2304,1070,5,1451
347,3106.0585720001654,8,-255,1240,-2164,1122,-135,1688
348,3114.857495000251,8,-388,849,-2036,1060,-393,1902
349,3123.629417000302,8,-489,277,-2116,888,-636,2302
350,3133.542330000182,9,-512,321,-2207,766,-793,2210
351,3142.878247000226,9,-430,326,-2181,700,-988,2387
352,3152.0781660001376,9,-363,412,-2200,720,-1137,2694
353,3161.345084000004,9,-222,393,-2205,799,-1300,3279
354,3170.626003000052,9,-333,67,-2520,762,-1598,3388
355,3179.8859210002774,9,-440,-238,-2542,687,-1845,3582
356,3189.126839000437,9,-564,-507,-3070,667,-2217,4050
357,3198.4237570000005,9,-1023,-796,-3211,668,-2572,4045
358,3207.6606760001596,9,-1103,-1305,-3685,636,-2891,4120
359,3216.908594000415,9,-1348,-1707,-4156,676,-3127,4099
360,3226.839506000033,9,-1671,-2309,-4633,489,-3486,3648
361,3235.71242800017,8,-1875,-2741,-5310,386,-3691,3590
362,3244.6113500000138,8,-1910,-2784,-5722,373,-3801,3414
363,3253.456271000232,8,-2170,-2973,-6265,250,-3856,3246
364,3262.3701930001516,8,-2346,-2966,-7267,239,-3694,2824
365,3271.2681140001223,8,-2339,-2689,-7794,229,-3218,2906
366,3280.1620360000925,8,-2443,-2491,-8147,228,-2592,2822
367,3289.0019580004264,8,-2531,-2427,-8231,294,-1666,2753
368,3297.8448800004116,8,-2600,-2618,-8151,290,-1075,2627
369,3306.733801000064,8,-2795,-3074,-8044,50,-523,2155
370,3315.588723000019,8,-2783,-3305,-7879,-496,-95,1575
371,3324.4526450002923,8,-2637,-3390,-7580,-463,193,1050
372,3333.2195670000146,8,-2499,-3158,-7146,-570,452,657
373,3342.1174890004295,8,-2234,-2653,-6452,-555,605,418
374,3350.977411000258,8,-2016,-2199,-6222,-533,726,338
375,3359.7873330004404,8,-1779,-1974,-5880,-647,865,331
376,3368.590255000072,8,-1717,-1841,-5540,-863,991,366
377,3377.448177000133,8,-1626,-1658,-5131,-1093,1118,407
378,3386.3480990003154,8,-1588,-1586,-5411,-1227,1257,486
379,3395.186021000427,8,-1712,-1397,-5462,-1310,1724,461
380,3404.037943000276,8,-1583,-1490,-5478,-1316,1813,312
381,3412.883865000367,8,-1437,-1462,-4868,-1130,2326,113
382,3421.880785000212,8,-1512,-1484,-4654,-978,2632,22
383,3430.799706000016,8,-1225,-1031,-4154,-878,2898,-51
384,3439.76162700028,8,-1172,-1044,-3765,-836,3134,-110
385,3448.592550000285,8,-1011,-1092,-3126,-854,3274,-171
386,3457.4954710001293,8,-523,-1023,-2882,-1253,3316,-162
387,3466.347393000433,8,-563,-908,-2584,-1152,3377,-232
388,3475.2823140001965,8,-495,-916,-2255,-1276,3464,-261
389,3484.1402360002576,8,-335,-756,-1832,-1389,3417,-368
390,3493.701152000085,9,-76,-684,-1444,-1444,3385,-530
391,3502.646073000051,8,-48,-662,-924,-1386,3325,-678
392,3511.4759950001826,8,34,-637,-404,-1363,3203,-832
393,3520.4269160003605,8,77,-669,168,-1371,2984,-963
394,3529.2958370000633,8,9,-628,525,-1344,2394,-1067
395,3538.233759000377,8,250,-397,910,-1331,2109,-1183
396,3547.081681000236,8,317,-262,1219,-1321,1625,-1392
397,3555.9986020002725,8,386,-77,1384,-1227,780,-1613
398,3564.8135240003285,8,442,457,1426,-1018,91,-1868
399,3573.6724460002733,8,451,630,1053,-784,-588,-2122
400,3582.571367000128,8,439,930,974,-470,-1357,-2308
401,3591.4922890001435,8,231,1267,445,-113,-2372,-2374
402,3600.3842100003567,8,-350,1928,-496,463,-2871,-2347
403,3609.2461320004077,8,-654,2406,-1933,1001,-3602,-2050
404,3618.0970540003727,8,-1249,2697,-3152,1637,-3843,-2006
405,3627.0639750000555,8,-1356,3314,-4100,2306,-3849,-1646
406,3635.941897000066,8,-1564,3382,-4953,3065,-3814,-879
407,3644.795818000148,8,-1773,3320,-5813,3769,-3873,-508
408,3653.556741000102,8,-2005,2840,-6826,4813,-3962,192
409,3662.2846640002535,8,-2613,2559,-8514,5690,-3929,604
410,3671.127586000239,8,-3454,2160,-10228,6926,-3185,921
411,3679.910509000365,8,-3570,1423,-11151,8381,-2025,988
412,3688.873430000058,8,-3759,-273,-10960,10085,-581,654
413,3697.636352000245,8,-3528,-1472,-10061,12034,811,-123
414,3706.5232740001193,8,-2755,-2882,-8785,13187,1827,-849
415,3715.3261960002055,8,-2164,-3178,-7214,13717,2802,-1593
416,3724.1821180000443,8,-1736,-2814,-5300,13854,3394,-2479
417,3733.1130390002727,8,-1188,-2690,-3443,13334,4215,-2659
418,3741.991961000167,8,-538,-2915,-1793,12566,4945,-2819
419,3750.8948820000114,8,-358,-3090,58,11169,5413,-2854
420,3759.8308030001135,8,131,-3073,1540,9230,5321,-2647
421,3768.649726000149,8,933,-3194,2942,5933,4835,-2152
422,3777.541647000362,8,1275,-3794,3836,2974,3765,-1831
423,3786.4305690000037,8,1323,-3757,4312,352,2367,-1315
424,3795.312490000015,8,1479,-3561,4139,-1574,925,-1374
425,3804.261411000425,8,1483,-3243,3908,-2844,-308,-1377
426,3813.1693330001326,8,1347,-2773,3272,-3412,-1601,-1444
427,3822.096254000371,8,1129,-1899,2323,-3353,-2172,-1489
428,3831.0351750001246,8,795,-1182,1992,-3057,-2578,-1227
429,3839.9190970003474,8,660,-604,1559,-2870,-2860,-803
430,3848.909018000086,8,717,-401,1441,-2875,-2967,-336
431,3857.7849390003394,8,717,-569,1390,-3167,-3099,389
432,3866.723860000093,8,801,-833,1634,-3988,-3334,811
433,3875.677781000377,8,758,-1196,1781,-4871,-3679,1294
434,3884.509703000276,8,254,-1563,1512,-5966,-4144,1552
435,3893.458624000232,8,-150,-1708,796,-6980,-4808,1674
436,3902.3685460001616,8,-985,-1588,363,-8153,-5256,1742
437,3911.236468000425,8,-1507,-1459,-275,-8644,-5554,1698
438,3920.11138900034,8,-1811,-1324,-990,-8936,-5645,1549
439,3929.726304000269,9,-2373,-939,-2105,-8956,-5583,1350
440,3939.1662210000504,9,-2642,-742,-2946,-8750,-5302,1057
441,3948.436139000023,9,-2871,-674,-3620,-8069,-4666,762
442,3957.6580580001064,9,-3083,-442,-4845,-7440,-4288,450
443,3966.86797700022,9,-3092,-183,-5347,-6196,-3502,97
444,3976.114895000137,9,-3126,3,-5692,-4873,-2291,-84
445,3985.4478130000643,9,-2893,434,-5398,-2878,-1363,-204
446,3994.6477320004306,9,-2334,417,-4951,-1463,-354,-181
447,4003.832651000266,9,-2246,369,-3886,19,-93,-156
448,4013.0725690000872,9,-1896,389,-3054,1983,53,-144
449,4022.274488000221,9,-1657,99,-2671,2860,-374,91
450,4031.936403000145,9,-1931,-735,-2673,3571,-1351,247
451,4040.9013240000604,8,-2154,-602,-3325,3987,-1973,166
452,4049.7512450001523,8,-2348,-1103,-4151,4270,-2209,115
453,4058.622167000067,8,-2462,-1128,-4650,4445,-2155,93
454,4067.5150890001532,8,-2515,-1070,-4965,4723,-1724,118
455,4076.3970100001643,8,-2431,-989,-4784,5127,-879,156
456,4085.3659310000694,8,-2230,-1074,-3996,5335,-476,220
457,4094.242853000196,8,-2095,-1114,-3409,5505,-98,352
458,4103.205774000344,8,-2085,-1279,-2775,5663,60,456
459,4112.054696000087,8,-1935,-1546,-2218,5722,196,672
460,4121.018617000118,8,-2079,-2804,-1853,5398,133,1415
461,4129.93853800026,8,-2531,-3849,-1858,4815,-1,1755
462,4138.909459000388,8,-2678,-4581,-2479,3821,-437,1995
463,4147.76638100011,8,-2698,-4489,-2923,2937,-577,1592
464,4156.781301000137,9,-2717,-4312,-3190,2396,-638,1354
465,4165.623223000239,8,-2619,-4241,-3394,2140,-661,1040
466,4174.2901470001925,8,-2366,-3970,-3410,2247,-635,772
467,4183.2230680001885,8,-2481,-3384,-3340,2569,-268,586
468,4192.0989900004315,8,-2457,-3224,-2843,2987,-422,463
469,4201.1029100003725,9,-2405,-2964,-2694,3353,-335,372
470,4209.962832000201,8,-2330,-2742,-2321,3713,-7,429
471,4218.923753000126,8,-2354,-2440,-2042,3894,-170,519
472,4227.828674000193,8,-2361,-2263,-1582,3937,-107,525
473,4236.734596000133,8,-2398,-2236,-1607,3966,-56,580
474,4245.550518000073,8,-2450,-2175,-1419,3883,-12,685
475,4254.360440000255,8,-2537,-2193,-1046,3740,29,846
476,4263.2193620002,8,-2665,-2224,-1161,3529,48,1253
477,4272.10928400018,8,-3048,-2279,-1064,3286,49,1168
478,4280.985205000434,8,-3021,-2257,-1034,2983,45,1270
479,4289.795128000151,8,-3201,-2387,-1008,2730,69,1391
480,4298.580050000055,8,-3408,-2542,-1057,2552,116,1503
481,4307.447972000318,8,-3674,-2616,-1097,2533,194,1622
482,4316.294894000293,8,-3897,-2883,-1128,2628,391,1777
483,4325.090816000284,8,-4186,-3163,-1130,2707,610,1904
484,4333.962738000082,8,-4411,-3585,-777,2772,851,1929
485,4342.824660000133,8,-4563,-4060,-796,2848,1030,1806
486,4351.699581000048,8,-4666,-4301,-529,2713,1158,1650
487,4360.62750300016,8,-4952,-4159,208,2327,1390,1407
488,4369.516424000267,8,-4886,-5016,862,1905,1717,1323
489,4378.356346000146,8,-4581,-5188,1145,1501,1649,1115
490,4387.211268000101,8,-4006,-5310,1446,598,1312,983
491,4396.036190000359,8,-3736,-5472,1230,223,714,848
492,4404.925112000001,8,-3654,-5742,745,-322,-178,313
493,4413.849033000133,8,-3564,-5760,-131,-904,-746,95
494,4422.554957000102,8,-3492,-5375,-615,-1332,-1070,-257
495,4431.572877000235,9,-3654,-5011,-1074,-1717,-1114,-565
496,4440.454799000236,8,-3685,-4498,-1368,-1875,-829,-1015
497,4449.285721000251,8,-3710,-4095,-1479,-1861,-436,-955
498,4458.290641000076,9,-3763,-3770,-1450,-1694,-52,-1049
499,4467.131563000294,8,-3905,-3273,-1271,-1394,181,-1072
500,4476.075484000376,8,-3590,-3150,-1263,-1043,488,-1179
501,4484.84440700031,8,-4087,-3022,-1262,-628,673,-1141
502,4494.064326000171,9,-3957,-2995,-980,-128,916,-1125
503,4502.951247000055,8,-4033,-2988,-1004,288,1189,-1110
504,4511.863169000208,8,-4090,-2890,-862,693,1378,-1094
505,4520.806090000406,8,-4137,-2849,-714,1245,1579,-1070
506,4529.720011000336,8,-4050,-2734,-528,1185,1749,-1039
507,4538.596933000008,8,-3893,-2649,-336,1187,1895,-1006
508,4547.5308540003425,8,-3772,-2526,-162,1126,1927,-966
509,4556.404776000363,8,-3599,-2416,60,1002,1881,-940
510,4565.262698000424,8,-3439,-2384,138,783,1769,-905
511,4574.13262,8,-3285,-2350,268,595,1620,-893
512,4582.943542000066,8,-3213,-2331,312,445,1501,-900
513,4591.840463000153,8,-3071,-2242,332,317,1347,-905
514,4600.6263860003855,8,-2967,-1817,381,184,1210,-922
515,4609.50530800028,8,-2806,-1954,386,118,1060,-887
516,4618.351230000371,8,-2721,-1799,367,55,926,-830
517,4627.162152000437,8,-2623,-1722,341,14,802,-719
518,4636.038074000226,8,-2621,-1721,254,-21,679,-587
519,4644.870996000009,8,-2553,-1627,215,-73,586,-451
520,4653.6539180001455,8,-2536,-1600,145,-68,576,-330
521,4662.597839000227,8,-2491,-1730,171,-143,531,-188
522,4671.409762000167,8,-2358,-1685,673,-152,562,11
523,4680.178684000111,8,-2299,-1978,121,311,864,295
524,4688.977607000197,8,-2564,-1389,174,385,760,379
525,4697.7765290002935,8,-2429,-1654,270,403,712,603
526,4706.676451000021,8,-2417,-1720,310,396,641,694
527,4715.5003730003955,8,-2456,-2211,337,195,473,856
528,4724.322295000093,8,-2408,-2327,521,-9,292,952
529,4733.264216000407,8,-2323,-2637,755,-370,196,973
530,4742.7441330000875,9,-2410,-3177,873,-1224,-15,958
531,4752.1200500000305,9,-2543,-3265,897,-2066,-593,919
532,4761.378968000372,9,-2575,-3331,614,-3213,-1114,900
533,4770.623887000056,9,-2941,-2877,-111,-3888,-1827,858
534,4779.8658050000995,9,-3156,-2530,-540,-4080,-2206,886
535,4789.162723000118,9,-3591,-2069,-1426,-3789,-2222,1276
536,4798.4756410000955,9,-4352,-2153,-2087,-2743,-2097,1145
537,4807.7025600000525,9,-4425,-2722,-2585,-1541,-1728,1164
538,4816.854479000085,9,-4741,-3588,-2957,55,-1095,1033
539,4826.14239700024,9,-4879,-4784,-3419,1372,-710,728
540,4835.70531300029,9,-4767,-5093,-3232,2701,-174,82
541,4844.897232000221,9,-4493,-5500,-2823,3429,66,-476
542,4853.754153000409,8,-4295,-5540,-2559,4082,108,-1002
543,4862.563076000242,8,-4158,-6095,-2114,4320,225,-1400
544,4871.495997000238,8,-3885,-5770,-1890,4103,374,-1829
545,4880.391918000441,8,-3937,-5724,-1710,3874,770,-2015
546,4889.26384000024,8,-4038,-5028,-968,3456,1155,-2309
547,4898.206761000438,8,-3684,-4562,182,2601,1419,-2590
548,4907.0526830000745,8,-2681,-4187,1762,819,1543,-2731
549,4915.988605000166,8,-2402,-3865,3607,-1126,1241,-2725
550,4924.818527000298,8,-2339,-3241,4749,-3419,125,-2780
551,4933.677449000243,8,-2541,-1769,5248,-5472,-1559,-2809
552,4942.644369000391,8,-2422,451,4952,-7282,-3452,-2450
553,4951.487291000376,8,-2721,2175,4020,-7650,-5407,-1829
554,4960.406213000169,8,-3083,3293,1472,-7278,-6359,-715
555,4969.3241340000895,8,-3642,3631,-3254,-5629,-6472,-149
556,4978.22205600005,8,-3507,3362,-6977,-1682,-5528,149
557,4987.066978000257,8,-4041,2251,-9104,1855,-2814,306
558,4995.938899000066,8,-4323,572,-9186,4690,678,-165
559,5004.757822000101,8,-4524,-1151,-6436,6399,3226,-594
560,5013.621743000385,8,-3827,-2137,-3050,7166,4430,-1046
561,5022.535665000305,8,-2802,-2369,353,6779,4571,-1089
562,5031.336587000169,8,-1300,-3663,3872,5565,3731,-750
563,5040.258508000079,8,-639,-5599,6183,3517,2177,-47
564,5049.033431000225,8,-543,-7176,6741,707,136,-154
565,5058.000352000363,8,-904,-8427,6586,-1803,-2202,-317
566,5066.809274000207,8,-1895,-7226,4985,-4165,-4126,-573
567,5075.603197000419,8,-3050,-5084,1426,-5494,-5746,-799
568,5084.449119000055,8,-3676,-2610,-1992,-5210,-6212,-847
569,5093.267041000217,8,-5433,-368,-6024,-3747,-5577,-647
570,5102.129963000152,8,-5849,3269,-9477,-1479,-3102,-609
571,5111.053884000285,8,-5984,4208,-10970,1417,-496,-398
572,5119.863806000012,8,-5812,3161,-8618,4227,2583,166
573,5128.770728000291,8,-4984,983,-4067,5312,5015,697
574,5137.673649000135,8,-4115,-2088,844,5631,5990,446
575,5146.561571000348,8,-2562,-4778,6590,5623,5691,-11
576,5155.433493000146,8,-292,-7368,10725,3943,4291,-363
577,5164.250415000424,8,802,-8741,12379,1712,997,-316
578,5173.2613350000065,9,397,-9472,10985,-414,-2538,-402
579,5182.10525700033,8,-961,-7653,6517,-2740,-5116,-972
580,5190.937180000219,8,-2465,-5224,2725,-4645,-6680,-844
581,5199.782101000437,8,-3921,-2719,-2056,-5351,-6994,-497
582,5208.7570220001,8,-5136,863,-6434,-4341,-5703,-69
583,5217.577945000357,8,-5865,3130,-10379,-2402,-3283,328
584,5226.2858680001045,8,-6214,4336,-11026,56,-178,679
585,5235.110790000363,8,-6432,3209,-9040,2786,2787,869
586,5244.0877110002475,8,-5347,-390,-3729,4376,5873,770
587,5252.937633000329,8,-3424,-3797,4803,4400,6520,571
588,5261.833554000077,8,-1972,-6784,9964,3450,5031,289
589,5270.773475000169,8,-127,-9716,11481,1033,1903,53
590,5279.650397000296,8,-20,-9117,10117,-1276,-2226,-121
591,5288.621318000423,8,-715,-7034,5782,-3232,-4453,-227
592,5297.528239000258,8,-1778,-5594,1094,-3786,-5515,-109
593,5306.403161000162,8,-3240,-3150,-3114,-3281,-5149,-169
594,5315.34608200036,8,-4115,-757,-6009,-1984,-3099,-307
595,5324.202004000199,8,-4510,1107,-7103,-745,-1140,-202
596,5333.206925000013,9,-4352,1569,-5863,266,637,358
597,5342.056847000094,8,-3909,950,-3729,1442,2164,830
598,5350.900769000418,8,-3611,-1351,-577,2005,2979,1026
599,5359.731691000434,8,-2763,-4033,3436,2114,2826,914
600,5368.503614000019,8,-1748,-5326,5202,1815,1877,512
601,5377.374535000399,8,-1414,-7028,5040,776,298,303
602,5386.2174570003845,8,-1206,-6545,3967,-216,-1353,18
603,5394.994380000298,8,-1359,-5836,2075,-877,-2151,-176
604,5403.932301000168,8,-1620,-4869,392,-1089,-2523,-327
605,5412.740223000128,8,-2070,-3791,-1094,-1023,-2381,-410
606,5421.631145000447,8,-2660,-2166,-2440,-648,-1968,-341
607,5430.523067000195,8,-2924,-1791,-3129,-336,-1161,-165
608,5439.480988000014,8,-3142,-1941,-3241,112,-429,6
609,5448.564908000208,9,-3246,-2422,-2812,600,474,21
610,5457.470829000158,8,-3067,-2603,-1850,1171,849,76
611,5466.429750000316,8,-2915,-2807,-555,1347,1288,506
612,5475.364671000079,8,-2798,-2918,-202,1455,1273,469
613,5484.320592000131,8,-2789,-3153,234,1609,1300,583
614,5493.976507000298,9,-2743,-3995,803,1619,1481,533
615,5502.840429000116,8,-2440,-5059,1557,1566,1408,346
616,5512.1043470003315,9,-2161,-4949,2118,1407,917,64
617,5521.395266000127,9,-1850,-4630,2456,775,478,-10
618,5530.346187000305,8,-1877,-4259,2241,455,-28,7
619,5539.268108000215,8,-1956,-4037,1744,173,-615,9
620,5548.8700230002905,9,-2091,-3913,1076,47,-835,-23
621,5558.20094100045,9,-2192,-3834,1028,-1,-842,-13
622,5567.564858000424,9,-1993,-3882,1625,-280,-768,-10
623,5576.883776000159,9,-1843,-4048,2422,-663,-919,4
624,5586.141695000151,9,-1744,-4108,2814,-1504,-1293,16
625,5595.381613000427,9,-1911,-4385,2872,-2130,-2000,-17
626,5604.605532000278,9,-2206,-4380,2419,-3053,-2650,-206
627,5613.8084510002955,9,-2652,-4008,1815,-3457,-3200,-340
628,5623.057369000435,9,-3003,-3487,892,-3806,-3590,-369
629,5632.241288000387,9,-3240,-3032,436,-3978,-3673,-347
630,5641.42020700001,9,-3370,-2343,-232,-3914,-3578,-353
631,5651.1701210001775,9,-3436,-2176,-521,-3683,-3400,-322
632,5660.077043000001,8,-3468,-2047,-892,-3328,-2880,-244
633,5668.934965000062,8,-3450,-1940,-1183,-3059,-2708,-147
634,5677.7518870003405,8,-3400,-1919,-1376,-2563,-2345,-96
635,5686.668808000377,8,-3425,-1944,-1430,-2349,-2000,-152
636,5695.455731000038,8,-3396,-1738,-1458,-2290,-1674,-208
637,5704.152654000154,8,-3406,-1332,-1497,-1987,-1323,-166
638,5712.970576000316,8,-3421,-1226,-1584,-1616,-1037,36
639,5721.882498000014,8,-3400,-1250,-1732,-1172,-667,263
640,5730.775419000111,8,-3371,-1380,-1805,-505,-237,481
641,5739.742340000248,8,-3357,-1548,-1826,25,366,676
642,5748.619262000375,8,-3321,-1684,-1747,523,875,856
643,5757.554183000138,8,-3283,-1827,-1392,1053,1371,979
644,5766.369106000184,8,-3224,-1902,-1097,1667,2027,1115
645,5775.293027000316,8,-3219,-1961,-762,2130,2172,1516
646,5784.09794900017,8,-3279,-2028,-448,2579,2471,1503
647,5793.010871000206,8,-3221,-2109,23,2927,2776,1656
648,5801.889792000111,8,-3410,-2733,396,3278,3025,1728
649,5810.750714000278,8,-3778,-3696,647,3686,3077,1330
650,5819.689636000021,8,-3613,-4593,1263,4009,3114,984
651,5828.517558000385,8,-3245,-5146,1462,4197,3144,385
652,5837.50647800025,8,-2912,-5651,1803,4288,2978,-88
653,5846.4084000002,8,-2553,-6115,2455,3996,2523,-518
654,5855.332321000333,8,-1801,-6633,2872,2952,2118,-942
655,5864.161243000126,8,-1922,-7390,2954,1779,1501,-1120
656,5873.133164000137,8,-1934,-7555,2961,237,369,-1374
657,5881.964086000153,8,-2183,-6868,2400,-1178,-689,-1972
658,5890.962007000326,8,-2735,-5886,2041,-2657,-1707,-2061
659,5899.8139290001745,8,-2866,-4576,1413,-3470,-2407,-2139
660,5908.75885000014,8,-2973,-3581,996,-3934,-2761,-2077
661,5917.687772000136,8,-2986,-2589,678,-4126,-2748,-1917
662,5926.65769200039,8,-2805,-1705,527,-4074,-2602,-1679
663,5935.523614000431,8,-2598,-1144,330,-3894,-2477,-1362
664,5944.3905360003555,8,-2519,-756,82,-3544,-2390,-981
665,5953.266458000144,8,-2430,-541,-479,-3043,-2264,-472
666,5962.155379000251,8,-2392,-460,-672,-2176,-2003,-87
667,5971.0623010000745,8,-2397,-592,-1014,-1571,-1327,225
668,5979.837224000221,8,-2288,-690,-1289,-573,-792,598
669,5988.758145000247,8,-2376,-975,-1401,249,-242,1036
670,5997.553067000354,8,-2074,-1038,-1454,1040,351,1643
671,6006.431989000248,8,-2316,-1081,-1393,1793,1232,2026
672,6015.270911000243,8,-2507,-1242,-1212,2238,1741,2371
673,6024.069834000329,8,-2785,-1466,-926,2486,2050,2647
674,6032.941755000138,8,-3213,-2135,-561,2504,2430,2761
675,6041.895676000422,8,-3758,-3367,-441,2481,2730,2570
676,6050.693599000169,8,-3909,-4103,-90,2678,2960,1863
677,6059.59952000012,8,-3755,-5165,356,2944,3035,1510
678,6068.401443000312,8,-3160,-5707,1017,3341,2924,650
679,6077.419363000445,9,-3014,-5724,1424,3660,2686,-12
680,6086.296285000117,8,-2448,-6132,1775,3596,2240,-764
681,6095.108207000067,8,-2355,-6083,1894,3219,1423,-1018
682,6104.138128000159,9,-2326,-6221,1930,2528,721,-1414
683,6112.963050000417,8,-2438,-6409,1809,1352,-202,-1810
684,6121.979970000211,9,-2626,-6416,1290,350,-768,-2493
685,6130.908892000207,8,-2678,-5628,1267,-547,-1358,-2656
686,6139.837813000213,8,-2751,-4838,836,-1306,-1777,-2744
687,6148.7867340001685,8,-2666,-4279,523,-1942,-1973,-2665
688,6157.671656000275,8,-2626,-3621,196,-2135,-2042,-2535
689,6166.604577000271,8,-2559,-3092,-122,-2091,-2050,-2349
690,6175.498498000252,8,-2440,-2615,-290,-1909,-1977,-2136
691,6184.350420000101,8,-2326,-1813,-387,-1641,-1774,-1871
692,6193.390341000395,9,-2335,-1496,-750,-1398,-1627,-1290
693,6202.238263000254,8,-2329,-1149,-527,-1108,-1453,-1039
694,6211.077185000249,8,-2262,-775,-553,-516,-1222,-527
695,6219.893107000189,8,-2099,-493,-548,-299,-990,56
696,6228.821028000311,8,-1883,-330,-551,116,-663,938
697,6237.763949000055,8,-1702,-233,-259,546,-440,1529
698,6246.6878710001765,8,-1570,-285,-114,806,-354,2192
699,6255.866790000255,9,-1719,-424,15,740,-380,2842
700,6264.776711000195,8,-2151,-793,14,276,-433,3776
701,6273.624633000054,8,-2648,-1327,-24,4,-488,4497
702,6282.5335550001,8,-3640,-2985,-343,-271,-469,4910
703,6291.385477000404,8,-4793,-5062,-1048,-655,-395,4221
704,6300.274398000056,8,-4662,-7857,-1840,-491,-109,2815
705,6309.168320000026,8,-4510,-9500,-1824,34,265,1000
706,6318.00024200038,8,-3894,-8702,-1554,835,555,-628
707,6326.815164000436,8,-3676,-7703,-835,1398,532,-2007
708,6335.590087000128,8,-3577,-6945,-839,1709,283,-2504
709,6344.365010000274,8,-3465,-5933,-581,1594,-12,-2892
710,6354.335922000246,9,-3532,-5883,-459,820,-199,-3409
711,6363.608840000325,9,-3393,-4786,-305,283,-334,-3735
712,6372.925758000292,9,-3297,-3479,-222,-345,-436,-3798
713,6382.2116760002245,9,-3242,-2772,-346,-970,-403,-3662
714,6391.450595000151,9,-2827,-1868,-477,-1136,-187,-3461
715,6400.744513000063,9,-2460,-1043,-510,-1152,19,-3053
716,6409.969431000263,9,-1868,-179,-245,-851,290,-2173
717,6419.1553500004375,9,-1575,630,10,-23,319,-1253
718,6428.407269000218,9,-1462,973,358,461,295,-297
719,6437.665187000221,9,-1362,272,527,1014,399,591
720,6447.581100000207,9,-1496,-34,604,1445,364,1096
721,6456.570021000061,8,-1489,-313,303,1366,377,1538
722,6465.400943000077,8,-1480,-347,309,1014,514,2398
723,6474.254865000148,8,-1559,-718,241,372,272,2915
724,6483.174786000291,8,-1999,-911,170,214,403,3787
725,6492.685702000017,9,-2565,-1646,-77,-90,506,4164
726,6501.402626000072,8,-4259,-4352,-76,-774,661,3778
727,6510.659544000191,9,-4695,-9289,-377,-608,829,2021
728,6519.833463000396,9,-3903,-10902,-676,221,824,189
729,6528.765384000053,8,-3653,-10310,-605,572,333,-1378
730,6537.631306000094,8,-3257,-8445,-360,1009,181,-2380
731,6546.591227000135,8,-2987,-7269,-419,1179,-23,-2875
732,6555.5031490002875,8,-2919,-6605,-467,828,-218,-3016
733,6564.392070000395,8,-2754,-6362,-259,536,-293,-3238
734,6573.343992000446,8,-2746,-5104,-104,-44,-290,-3505
735,6582.195913000305,8,-2919,-3862,105,-939,-318,-3618
736,6591.253834000327,9,-2595,-3070,114,-1502,-289,-3464
737,6600.091756000438,8,-2367,-1980,193,-1535,-219,-2886
738,6608.969678000449,8,-1852,-1141,174,-1452,-98,-2382
739,6617.820600000414,8,-1099,-584,176,-1187,-25,-1796
740,6626.75352100041,8,-771,-297,340,-536,-20,-1139
741,6635.63144300042,8,-964,-596,508,-288,2,-347
742,6644.478365000396,8,-1044,-1196,687,-9,56,-4
743,6653.306287000305,8,-1215,-1480,873,173,61,58
744,6662.156209000386,8,-1221,-1186,919,288,-254,472
745,6671.033131000058,8,-858,-747,975,328,-50,1136
746,6679.797053000129,8,-799,-726,951,291,-125,2206
747,6688.574976000382,8,-800,-982,902,242,-188,2939
748,6697.4348980002105,8,-1033,-1182,767,-199,-263,3686
749,6706.267820000448,8,-1599,-1546,702,-415,-361,4375
750,6715.041743000256,8,-2353,-2541,428,-1098,-456,4834
751,6723.749666000003,8,-3288,-4083,232,-1787,-560,4626
752,6732.601588000307,8,-4348,-7347,-844,-1808,-596,4139
753,6741.483510000307,8,-3866,-10395,-1249,-1569,-267,2719
754,6750.449431000106,8,-3869,-10254,-1816,-1106,-204,679
755,6759.304353000061,8,-3353,-8585,-1931,-238,197,-1162
756,6768.212274000234,8,-3166,-7252,-1653,666,330,-1778
757,6777.106196000204,8,-2896,-6614,-1427,906,434,-1977
758,6786.016117000145,8,-2918,-6140,-1356,1229,514,-2486
759,6794.938038000055,8,-3052,-6150,-943,1106,521,-2631
760,6803.839960000005,8,-2989,-5657,-609,518,563,-3066
761,6812.697882000066,8,-2953,-4539,-367,67,565,-3260
762,6821.623803000421,8,-2666,-3663,-129,-453,593,-3272
763,6830.476725000153,8,-2300,-2706,113,-790,591,-2819
764,6839.338647000204,8,-1611,-1722,385,-1245,564,-2591
765,6848.302568000236,8,-1396,-577,493,-1175,262,-2068
766,6857.18549000012,8,-1149,-168,716,-1250,321,-1134
767,6866.036412000085,8,-1015,40,894,-948,161,-503
768,6874.87533400008,8,-1044,-368,748,-344,28,266
769,6883.697256000232,8,-1153,-802,696,-70,-50,696
770,6892.649177000294,8,-1130,-912,699,320,-63,1077
771,6901.47609900032,8,-1255,-931,648,625,-58,1773
772,6910.499020000316,9,-1274,-1023,555,831,-106,2249
773,6919.343942000069,8,-1339,-1194,383,901,-86,3002
774,6928.238864000377,8,-1664,-1674,257,577,-103,4040
775,6937.125785000262,8,-2467,-3010,160,-15,-248,4474
776,6946.045707000394,8,-3343,-5544,26,-515,-428,4297
777,6954.897629000243,8,-4083,-9026,-688,-931,-633,3282
778,6963.877550000234,8,-4239,-10732,-1635,-877,-1460,741
779,6976.104442000178,12,-3743,-9661,-2120,-623,-1451,-903
780,6984.949364000386,8,-3555,-8098,-2645,-406,-1350,-1844
781,6993.877285000053,8,-3129,-6730,-2588,-339,-998,-2333
782,7002.698207000321,8,-3208,-5643,-2470,-408,-280,-2548
783,7011.510130000261,8,-3075,-5099,-2287,-434,-137,-2627
784,7020.374052000079,8,-3077,-4776,-1885,-602,245,-2708
785,7029.170974000408,8,-3041,-4619,-1522,-844,564,-3050
786,7038.082895000116,8,-2627,-4009,-1155,-886,775,-3309
787,7046.918818000449,8,-2505,-3106,-923,-718,829,-3315
788,7055.921738000052,9,-1969,-2564,-633,-552,801,-2821
789,7064.700661000188,8,-1568,-1837,-294,-371,713,-2632
790,7073.5325830000875,8,-1275,-1276,-4,-218,625,-2217
791,7082.437505000144,8,-1120,-880,221,-218,575,-1775
792,7091.280427000129,8,-1184,-179,456,-253,434,-1066
793,7100.123349000114,8,-944,256,519,-223,439,-670
794,7109.009270000115,8,-903,396,426,-114,490,-103
795,7117.82819300015,8,-797,282,453,227,523,414
796,7126.774114000455,8,-772,281,470,620,622,1183
797,7135.5750360003185,8,-825,156,482,1011,691,1753
798,7144.52695700038,8,-847,-68,498,1326,661,2536
799,7153.237881000223,8,-1107,-366,436,1463,551,3380
800,7162.049803000173,8,-1672,-1189,225,1355,461,4444
801,7171.0827230003815,9,-2168,-3194,158,1192,285,5729
802,7179.905646000407,8,-4320,-4580,-595,669,17,5534
803,7188.854567000362,8,-4520,-7557,-1296,281,491,4375
804,7197.709489000317,8,-4274,-9176,-1822,570,488,2578
805,7206.642410000313,8,-4282,-10036,-2188,914,522,1330
806,7215.5633310003395,8,-3679,-10613,-2381,1328,707,-231
807,7224.398253000345,8,-3336,-9389,-2362,1718,875,-1403
808,7233.12717600038,8,-3138,-7785,-2008,1751,958,-1921
809,7242.064098000355,8,-3033,-6381,-1680,1542,998,-1957
810,7251.04501900023,8,-2955,-5847,-1575,1252,1049,-2000
811,7259.923940000135,8,-2937,-5715,-1610,1038,1204,-2248
812,7268.8658610004495,8,-2924,-5821,-1293,976,1481,-3011
813,7277.725783000278,8,-2859,-5675,-1375,1081,1728,-3549
814,7286.827703000199,9,-2657,-5250,-911,1284,2253,-4092
815,7295.895623000433,9,-2240,-4008,-42,1382,2204,-4385
816,7304.71354600013,8,-1911,-2533,425,1218,2139,-4399
817,7313.576467000075,8,-1344,-1181,772,904,1942,-4021
818,7322.471389000384,8,-1191,141,1069,407,1648,-3405
819,7331.242312000086,8,-904,977,1202,112,1056,-2545
820,7340.035234000425,8,-668,1470,1213,-30,881,-1336
821,7348.918156000309,8,-664,1626,1196,-55,618,-499
822,7357.7420780002285,8,-674,1413,1156,88,475,186
823,7366.58000000034,8,-753,597,1073,458,407,758
824,7375.442922000275,8,-827,478,960,710,368,1528
825,7383.996847000162,8,-813,148,888,869,313,2161
826,7392.803769000238,8,-891,-167,817,562,171,2842
827,7401.75169000031,8,-1109,-673,606,588,-253,3697
828,7410.579613000209,8,-1715,-1692,250,209,-119,4862
829,7419.44553500025,8,-2574,-3408,-101,-133,-232,5256
830,7428.315456000291,8,-3577,-5779,-230,-527,-198,4891
831,7437.154379000276,8,-3869,-8760,-1022,-851,-125,3598
832,7446.091300000262,8,-3689,-11336,-1622,-744,-150,1988
833,7454.940222000005,8,-3420,-11985,-2003,-461,-227,-111
834,7465.229131000342,10,-2883,-10626,-1879,-146,-83,-1871
835,7477.174026000284,11,-2678,-8598,-1823,306,-20,-2367
836,7486.030948000007,8,-2417,-7653,-1690,334,-5,-2667
837,7495.646863000275,9,-2439,-6960,-1449,212,20,-3009
838,7504.5197850004115,8,-2391,-6166,-1224,-179,74,-3437
839,7513.359707000291,8,-2418,-5649,-1017,-592,149,-4078
840,7522.257629000251,8,-2177,-4640,-700,-909,271,-4094
841,7531.172550000065,8,-1909,-3458,-487,-1102,425,-4071
842,7539.941473000454,8,-1542,-1892,-170,-1147,490,-3740
843,7549.1443920000165,9,-1111,-527,35,-1076,472,-2941
844,7558.111313000154,8,-757,528,303,-932,446,-2162
845,7567.0102340000085,8,-376,1355,464,-611,394,-1320
846,7575.93815600012,8,-351,1654,633,-319,214,-264
847,7584.740078000323,8,-293,1372,629,-5,198,325
848,7593.627000000197,8,-325,837,528,493,162,986
849,7602.539921000243,8,-349,347,557,355,81,1609
850,7611.411843000042,8,-418,-55,563,346,3,2496
851,7620.307765000234,8,-511,-362,571,277,-188,3085
852,7629.108687000098,8,-994,-760,590,206,-446,3771
853,7638.02860900023,8,-1284,-2219,299,141,-974,4399
854,7646.84853100016,8,-1990,-4014,-68,143,-1063,4780
855,7655.687453000155,8,-2796,-7398,-604,51,-1200,4249
856,7664.531375000024,8,-3508,-9460,-1584,107,-1229,3069
857,7673.329298000226,8,-3282,-11808,-2164,179,-990,1294
858,7682.183220000297,8,-3108,-11984,-2315,143,-619,-707
859,7691.087141000025,8,-2725,-10496,-2370,77,-422,-1527
860,7699.866064000162,8,-2418,-8964,-2125,-12,-342,-1749
861,7708.81698500034,8,-2278,-7923,-1835,-287,-288,-1879
862,7717.621908000183,8,-2277,-7191,-1620,-795,-242,-2180
863,7726.5448290004315,8,-2231,-6624,-1257,-1183,-86,-2667
864,7735.40875100025,8,-2212,-5358,-801,-1766,7,-3282
865,7744.056675000138,8,-1793,-3796,-509,-1703,117,-3511
866,7753.00459600021,8,-1692,-2148,-332,-1705,491,-3436
867,7761.857518000397,8,-1225,-869,208,-1514,332,-2823
868,7770.741439000176,8,-788,86,141,-1249,333,-2306
869,7779.6193610001865,8,-340,805,511,-927,210,-1533
870,7788.523283000359,8,-302,938,547,-515,-4,-789
871,7797.450204000143,8,-205,439,634,-275,-242,-147
872,7806.292126000244,8,-435,-244,505,-105,-413,389
873,7815.084049000234,8,-455,-705,383,66,-540,758
874,7824.104969000018,9,-564,-862,260,159,-605,1203
875,7832.936892000362,8,-624,-1345,244,230,-702,1985
876,7841.860813000039,8,-808,-1408,266,284,-816,2284
877,7850.75073500002,8,-876,-1797,339,318,-880,2664
878,7859.716656000273,8,-1329,-2831,272,177,-1061,2961
879,7868.635577000077,8,-1745,-4253,-417,-91,-1327,2926
880,7877.494499000022,8,-2224,-5631,-1309,-181,-1473,2495
881,7886.33142100025,8,-2532,-7342,-2002,111,-1445,1955
882,7895.305342000029,8,-2560,-9159,-2382,457,-1064,911
883,7904.165264000312,8,-2708,-10145,-2606,752,-604,-153
884,7913.046186000429,8,-2605,-10137,-2526,870,-232,-1017
885,7921.907108000141,8,-2101,-9148,-2274,654,-103,-1495
886,7930.713030000334,8,-2150,-8498,-2031,275,-112,-1999
887,7939.692951000325,8,-2056,-8029,-2042,-136,-74,-2258
888,7948.520873000234,8,-2127,-6990,-1825,-424,-41,-2324
889,7957.599793000099,9,-2048,-5762,-1826,-529,98,-2563
890,7966.798712000127,9,-1993,-5046,-1561,-432,499,-2891
891,7975.627634000375,8,-1544,-4227,-1407,-162,915,-3290
892,7984.655555000245,9,-1294,-2761,-907,184,1507,-3364
893,7993.470477000301,8,-912,-1710,-300,353,1359,-3124
894,8002.239400000235,8,-599,-1074,618,383,1234,-2694
895,8011.1993210002765,8,-368,-456,1032,323,943,-2107
896,8019.987244000276,8,-228,-9,1335,248,275,-1590
897,8028.853165000328,8,-198,212,1400,153,110,-1044
898,8037.657088000287,8,-214,238,1393,136,-254,-305
899,8046.4190110001255,8,-308,66,1157,219,-478,-6
900,8055.346932000248,8,-367,111,879,357,-617,461
901,8064.141854000354,8,-326,149,664,617,-593,1039
902,8072.995776000425,8,-292,-31,594,771,-462,1951
903,8081.83469900041,8,-329,-530,569,845,-413,2572
904,8090.711620000093,8,-426,-972,558,896,-447,3322
905,8099.700541000402,8,-893,-2456,304,839,-523,4096
906,8108.570463000433,8,-1586,-5131,349,604,-589,4139
907,8117.4743850001505,8,-2330,-9125,215,228,-688,3330
908,8126.372306000121,8,-2334,-11565,-392,-241,-759,1627
909,8135.289228000147,8,-2064,-11521,-521,-379,-1220,318
910,8144.17314900038,8,-2032,-10434,-1037,-572,-1476,-336
911,8153.215070000442,9,-1904,-9547,-1635,-623,-1553,-702
912,8162.0909920002305,8,-1926,-9011,-2007,-583,-1392,-941
913,8171.136912000293,9,-1987,-8373,-2088,-538,-981,-1342
914,8179.965834000086,8,-2006,-7355,-1974,-601,-628,-1956
915,8188.917755000148,8,-1987,-6536,-1598,-703,-414,-2318
916,8197.777677000431,8,-1707,-5730,-1240,-792,-247,-2626
917,8206.714598000417,8,-1471,-5209,-939,-753,-11,-2980
918,8215.636520000317,8,-1334,-4466,-704,-760,121,-3339
919,8224.499442000251,8,-1208,-3541,-479,-862,240,-3457
920,8233.357364000312,8,-1039,-1842,-320,-940,312,-3333
921,8242.245285000081,8,-734,-988,239,-834,310,-2980
922,8251.055208000253,8,-471,-148,201,-461,264,-2462
923,8259.832130000177,8,-249,370,411,239,223,-1717
924,8268.645053,8,-147,603,564,332,231,-1170
925,8277.53597400033,8,-27,436,665,559,290,-716
926,8286.328897000203,8,38,145,832,530,285,-50
927,8295.09982000036,8,89,87,974,435,156,306
928,8303.978741000265,8,511,355,1002,372,14,998
929,8312.780664000002,8,398,379,913,379,-115,1854
930,8321.652586000255,8,500,96,746,388,-206,3060
931,8330.408509000335,8,270,-600,368,267,-300,4076
932,8339.2094310002,8,-634,-2138,-100,69,-376,4804
933,8348.028353000245,8,-1283,-5777,-207,-376,-359,4796
934,8356.98527400018,8,-2584,-9735,-708,-673,-380,3322
935,8365.861196000424,8,-2226,-12503,-1560,-552,-389,1483
936,8374.69111900009,8,-2150,-12158,-2342,-181,-379,-187
937,8383.518041000116,8,-1767,-11450,-2756,384,-200,-1237
938,8392.465962000188,8,-1419,-10426,-2776,770,464,-2256
939,8401.375884000117,8,-1142,-9300,-2349,898,644,-2557
940,8410.316805000093,8,-996,-8165,-1903,337,907,-2815
941,8419.05972800032,8,-937,-6949,-1608,-188,1040,-3037
942,8428.190647000065,9,-948,-5239,-1233,-735,1130,-3173
943,8437.869562000287,9,-792,-4070,-800,-1159,1244,-3140
944,8446.955482000249,9,-615,-2969,-406,-1027,1278,-2959
945,8455.961403000401,9,-418,-1973,129,-290,1122,-2561
946,8464.868324000236,8,-106,-1167,501,253,879,-2191
947,8473.761246000322,8,-67,-959,578,411,686,-1836
948,8482.562168000186,8,25,-835,683,446,496,-1336
949,8491.982086000007,9,-72,-650,701,178,321,-1250
950,8501.066006000201,9,-137,-359,605,-104,181,-548
951,8509.966927000278,8,-203,171,626,-325,35,-201
952,8518.949848000375,8,-194,570,692,-56,25,242
953,8527.79277000036,8,-22,1211,783,66,58,770
954,8536.679692000234,8,217,1340,821,385,-5,1676
955,8545.517614000346,8,372,1385,876,572,-119,2435
956,8554.405536000104,8,420,875,660,275,-320,3393
957,8563.225458000034,8,213,70,145,292,-629,5112
958,8572.808374000033,9,-385,-1067,-720,-108,-725,6071
959,8581.962293000288,9,-2067,-5159,-1370,-900,-658,6206
960,8591.621208000106,9,-3744,-10129,-2361,-1102,-566,4967
961,8600.81912700025,9,-3492,-14894,-3198,-890,-33,2185
962,8611.015037000016,10,-3058,-14796,-3775,-252,-31,-119
963,8620.230956000341,9,-2184,-11973,-3676,606,137,-1851
964,8629.392875000121,9,-1491,-9362,-3443,1084,275,-2051
965,8638.717793000069,9,-905,-7037,-2674,1057,500,-1995
966,8647.907712000233,9,-725,-5759,-2446,744,616,-1999
967,8657.177631000195,9,-853,-4724,-1990,-66,666,-2111
968,8666.871545000049,9,-715,-4223,-1551,-640,730,-2140
969,8675.888466000288,9,-569,-3695,-1201,-1277,913,-2194
970,8684.806387000208,8,-322,-2639,-696,-1002,1106,-2364
971,8693.672309000249,8,-236,-2061,-465,-720,1128,-2346
972,8702.59223100038,8,222,-1327,-130,-410,960,-2004
973,8711.970148000091,9,148,-548,79,-73,739,-1300
974,8720.932069000355,8,258,-677,272,112,453,-845
975,8729.791991000184,8,193,-783,346,197,299,-702
976,8738.644913000371,8,62,-892,316,162,166,-479
977,8747.540835000109,8,-2,-523,210,26,95,-4
978,8756.43875600008,8,23,-492,100,-50,67,30
979,8765.058680000038,8,46,-314,165,-13,11,609
980,8774.03860100003,8,40,-66,276,54,-5,1133
981,8783.057522000036,9,68,-462,475,112,-39,2004
982,8791.945444000248,8,-91,-412,427,73,-327,2386
983,8800.77936600037,8,-348,-883,60,-91,-612,3177
984,8809.73728700019,8,-923,-2085,-398,-241,-1019,3783
985,8818.650208000236,8,-1414,-4018,-912,-334,-815,4127
986,8827.510130000064,8,-1980,-6618,-1673,-353,-738,3608
987,8836.30105300017,8,-2120,-9107,-2030,-113,-511,2674
988,8845.223974000419,8,-2310,-10759,-2711,269,-403,1388
989,8854.085896000015,8,-2269,-11370,-3251,550,-52,144
990,8862.877819000005,8,-1991,-10989,-3398,723,10,-791
991,8871.870740000304,8,-1351,-10049,-3227,753,224,-1424
992,8880.65766200043,8,-1322,-8887,-2956,585,347,-1608
993,8889.56758400036,8,-1144,-7527,-2529,282,736,-1726
994,8898.36350600035,8,-1069,-6542,-1919,-40,665,-1841
995,8907.194429000356,8,-996,-6115,-1701,-318,776,-2092
996,8916.055351000068,8,-997,-5932,-1420,-517,918,-2499
997,8924.8852730002,8,-796,-5139,-1140,-600,1096,-2850
998,8933.790194000267,8,-620,-4407,-988,-626,1200,-2952
999,8942.655116000424,8,-572,-3633,-539,-500,1087,-2935
1000,8951.478039000449,8,-296,-2739,-525,-446,948,-2641
1001,8960.536959000365,9,-153,-2020,-330,-470,753,-2289
1002,8969.458880000275,8,-76,-1382,-86,-551,446,-1926
1003,8978.312802000346,8,-22,-1025,141,-673,216,-1503
1004,8987.150724000003,8,8,-962,366,-729,76,-1182
1005,8996.051646000069,8,21,-756,442,-689,-248,-954
