,time_ms,delta_ms,aX,aY,aZ,gX,gY,gZ
0,0.0,0,-1946,-2745,-6492,778,-685,-734
1,10.075909000079264,10,-1978,-2663,-6620,769,19,-263
2,19.215827000152785,9,-2006,-2642,-6604,735,632,-283
3,28.439744000024803,9,-2052,-2740,-6445,768,1281,-143
4,37.861660000089614,9,-2187,-2910,-6320,914,2004,-57
5,47.12957700030529,9,-2230,-2921,-6078,1115,2790,-54
6,56.350494000071194,9,-2211,-2935,-5766,1206,3149,-58
7,65.65841000019645,9,-2293,-2418,-5195,1187,3808,-63
8,75.01932600007422,9,-1681,-2741,-4773,1106,3874,103
9,84.33024300029501,9,-1584,-2595,-4327,1048,3987,404
10,93.67615900009696,9,-1330,-2389,-4084,954,4126,631
11,102.75607700032197,9,-1200,-2125,-3728,906,4258,912
12,112.67198800032929,9,-1040,-1967,-3161,913,4421,1107
13,121.48190900006739,8,-921,-1945,-3037,952,4527,1306
14,130.45782800008965,8,-830,-2041,-2538,966,4616,1426
15,139.2867490003482,8,-748,-2111,-2200,956,4649,1464
16,148.17866900011722,8,-729,-2711,-1960,911,4578,1498
17,157.02658999998675,8,-687,-2799,-1541,910,4460,1491
18,165.77851100009866,8,-286,-2741,-1525,946,4391,1479
19,174.71543100009512,8,-384,-2655,-1306,1006,4344,1480
20,183.3873529999437,8,-379,-2601,-1126,1091,4241,1509
21,192.75426900003367,9,-386,-2690,-912,1130,4167,1535
22,201.5901899999335,8,-442,-2916,-859,1084,3846,1496
23,210.48311000004105,8,-481,-3055,-818,1096,4037,1398
24,219.3210310001632,8,-524,-2957,-821,1177,4043,1232
25,228.3669500002361,9,-377,-2932,-637,1305,4122,1081
26,237.1778700003233,8,-57,-2918,-377,1414,4208,1032
27,246.07579100029398,8,-137,-3052,-119,1410,4221,1057
28,254.9427110002398,8,-70,-3023,144,1284,4077,1095
29,263.86963100003413,8,-89,-3088,436,1104,3842,1209
30,272.8535500000362,8,-46,-3126,556,862,3572,1325
31,281.78147000016907,8,-91,-3367,636,708,3225,1406
32,290.6793900001503,8,-58,-3751,522,572,3009,1345
33,299.5833100003438,8,-432,-3976,731,454,2803,1214
34,308.839227000135,9,-214,-4052,995,359,2507,1043
35,319.0761350001594,10,-242,-4205,1265,323,2273,1014
36,327.79605700034153,8,1,-4552,1601,355,1930,1050
37,336.76797599991914,8,7,-4730,1864,382,1570,1060
38,345.42589900001985,8,97,-5114,2336,353,1231,975
39,354.3928180001785,8,31,-5838,2605,114,573,818
40,363.31473800009917,8,-21,-6185,2718,-147,210,313
41,372.1496590001152,8,-93,-6493,2730,-399,-294,171
42,381.152578000183,9,-100,-6581,2692,-559,-790,-141
43,390.0544980001541,8,-55,-6580,2621,-746,-1515,-432
44,399.0514170000097,8,-40,-6516,2580,-919,-1807,-676
45,408.0253370002538,8,-128,-6280,2410,-1130,-2290,-860
46,416.84725699997216,8,-511,-5650,2190,-1406,-2817,-902
47,425.72617800033186,8,-373,-5496,1872,-1543,-3523,-898
48,434.6440980002626,8,-476,-5069,1432,-1609,-3690,-892
49,443.56201800019335,8,-586,-4782,914,-1533,-3912,-875
50,452.35493900008805,8,-636,-4424,506,-1404,-4029,-906
51,461.1698600001546,8,-683,-4193,145,-1220,-4076,-967
52,470.0377799999842,8,-670,-3963,-88,-1104,-4059,-1048
53,478.9447000002838,8,-698,-3724,-373,-780,-4040,-1171
54,487.74262100005217,8,-661,-3404,-549,-949,-4038,-1213
55,496.5085420003561,8,-642,-2836,-685,-903,-4073,-1172
56,505.36446300020543,8,-651,-2761,-789,-852,-4089,-1076
57,514.2233830001715,8,-625,-2672,-904,-795,-4088,-879
58,523.142302999986,8,-613,-2577,-1219,-764,-4109,-781
59,531.9502239999565,8,-614,-2309,-1506,-740,-4142,-730
60,540.8061450002606,8,-674,-2483,-1894,-692,-4120,-733
61,549.722064999969,8,-710,-2418,-2548,-564,-4043,-771
62,558.6009850003393,8,-691,-2418,-2725,-349,-3861,-801
63,567.5319050001235,8,-629,-2523,-2977,-63,-3373,-816
64,576.3718250000238,8,-582,-2599,-3084,99,-3373,-792
65,585.3097450003588,8,-513,-2685,-3146,82,-3236,-689
66,594.2016650001278,8,-455,-2854,-3131,-99,-3238,-576
67,603.0515860002197,8,-539,-3018,-3235,-520,-3341,-468
68,611.9665060000443,8,-769,-3561,-3851,-908,-3658,-228
69,624.2233960001613,12,-1464,-3071,-4629,-793,-3853,-270
70,633.2293150003352,9,-1686,-3211,-5516,-442,-3580,-361
71,642.1402350001699,8,-1808,-3231,-5958,449,-2991,-402
72,651.1101549999694,8,-1921,-3383,-6304,925,-2101,-410
73,660.0840740002241,8,-2036,-3294,-6278,1306,-1615,-401
74,669.0189939999982,8,-1824,-3615,-6300,1377,-1051,-194
75,677.9699140001867,8,-1701,-3768,-6198,1149,-608,70
76,686.7098350003289,8,-1626,-3710,-6001,532,-41,324
77,695.597755000108,8,-1667,-3647,-5797,-59,-7,518
78,704.5316749999984,8,-1696,-3806,-5731,-553,192,730
79,713.3845960001963,8,-1906,-3909,-5842,-776,388,795
80,722.2295159999703,8,-1983,-4175,-5903,-627,936,789
81,731.1494360001234,8,-2110,-4473,-5973,-239,1163,727
82,740.0323570000182,8,-2172,-4639,-5906,474,1626,605
83,748.9452770000753,8,-2141,-4742,-5703,590,2129,504
84,757.823197000107,8,-2059,-4764,-5355,806,2638,423
85,766.6861180000524,8,-2006,-4727,-4673,783,3169,358
86,775.5900380002458,8,-1895,-4545,-4298,661,3478,269
87,784.369959000287,8,-1891,-4343,-3900,269,3695,190
88,793.3228790002431,8,-1804,-4144,-3446,488,3870,107
89,802.0977999999559,8,-1719,-3863,-2971,538,4118,35
90,810.999719999927,8,-1634,-3579,-2493,576,4269,-16
91,819.727642000089,8,-1590,-3394,-1934,619,4365,-29
92,828.5635619999994,8,-1490,-3135,-1552,612,4401,-16
93,837.4074830003337,8,-1403,-2883,-1207,585,4382,13
94,846.1934040001324,8,-1349,-2668,-940,564,4361,97
95,855.0133250000727,8,-1293,-2494,-652,555,4319,246
96,863.9832440003374,8,-1396,-2426,-508,543,4255,334
97,872.8051650000452,8,-1414,-2591,-426,574,4135,347
98,881.6890850002892,8,-1435,-2654,-367,713,4075,4
99,890.5740059999516,8,-1344,-2668,-178,898,4064,108
100,899.4609260003017,8,-1169,-2534,34,1056,4057,49
101,908.3048470001813,8,-999,-2518,194,1067,3957,113
102,917.1887669999705,8,-912,-2567,387,948,3647,259
103,926.0436869999467,8,-798,-2606,375,734,3344,439
104,934.8896080000486,8,-690,-2827,335,413,3065,594
105,943.8505279999845,8,-523,-3107,261,156,2862,1004
106,952.7214479999202,8,-532,-3683,75,-67,2649,880
107,961.6353680003158,8,-499,-3760,-165,-165,2543,855
108,970.4532890000337,8,-418,-4496,-213,-224,2541,769
109,979.387208999924,8,-125,-4751,-226,-193,2608,625
110,988.2871290001276,8,76,-4970,-154,-122,2683,463
111,997.106050000184,8,310,-5108,74,-132,2611,366
112,1005.9789700003421,8,388,-5032,155,-248,2400,352
113,1014.7778909999943,8,642,-5243,179,-307,2158,391
114,1023.6478120000356,8,671,-5447,168,-322,1967,384
115,1032.559732000209,8,729,-5627,249,-24,1899,261
116,1041.4136520003012,8,731,-5742,353,-154,1862,68
117,1050.3195720002623,8,856,-5800,433,21,1546,-148
118,1059.163493000142,8,947,-5891,468,145,1640,-321
119,1067.8264150001269,8,1056,-5865,621,217,1436,-416
120,1076.8253340002047,8,1262,-6049,778,166,1213,-416
121,1085.6022560001293,8,1182,-6332,837,-108,928,-387
122,1094.4971760000044,8,1201,-6428,528,-475,505,-395
123,1103.3030970002073,8,1075,-6505,698,-906,110,-468
124,1112.1080180000718,8,898,-6488,458,-1522,-283,-573
125,1121.001938000063,8,734,-6263,287,-1410,-560,-785
126,1129.7918590003064,8,653,-5726,274,-1292,-642,-1053
127,1138.5827799999788,8,647,-5380,282,-1104,-706,-1522
128,1147.4337009999545,8,627,-4924,481,-987,-797,-1394
129,1156.2466220002534,8,553,-4727,695,-1279,-965,-1422
130,1165.1085420003255,8,500,-4650,837,-1237,-1485,-1463
131,1173.998462000327,8,313,-4786,849,-1455,-1646,-1617
132,1182.7763840001353,8,321,-4804,885,-1592,-1978,-2014
133,1191.7823030003092,9,188,-4556,882,-1679,-2319,-2379
134,1200.6052240003555,8,54,-3902,873,-1737,-2617,-2637
135,1209.521144000064,8,-174,-3350,723,-1715,-2965,-2759
136,1218.3510640002169,8,-137,-2856,590,-1691,-3205,-2739
137,1227.2159849999298,8,-289,-2768,500,-1696,-3382,-2714
138,1236.09890500029,8,-312,-2641,361,-1648,-3516,-2773
139,1244.9788250000893,8,-375,-2312,189,-1656,-3683,-2861
140,1253.9167449999695,8,-417,-2157,-95,-1693,-3793,-2926
141,1262.8376650000064,8,-476,-1919,-372,-1615,-3900,-2912
142,1271.7835850003212,8,-579,-1951,-675,-1445,-3985,-2884
143,1280.704505000358,8,-494,-1909,-1247,-1117,-3912,-2884
144,1289.667424000072,8,-651,-1704,-1258,-836,-3867,-2933
145,1298.5303450000174,8,-537,-1055,-1547,-484,-3820,-2821
146,1307.4982640000599,8,-407,-795,-1874,-297,-3830,-2474
147,1316.3161850002325,8,-244,-581,-2154,-273,-3768,-1952
148,1325.195105000148,8,-126,-725,-2569,-318,-3667,-1542
149,1334.1390250002405,8,-468,-1454,-3093,-366,-3335,-1289
150,1343.0419450000954,8,-571,-1696,-3969,-258,-3427,-1229
151,1351.9118660001368,8,-814,-1835,-4763,14,-3162,-1352
152,1360.8397860002697,8,-896,-1868,-5335,674,-2737,-1484
153,1369.764705000307,8,-981,-1575,-5803,986,-1922,-1595
154,1378.6606260000553,8,-1016,-1800,-6018,1295,-1457,-1601
155,1387.5185460001376,8,-984,-1772,-6076,1439,-939,-1413
156,1396.4144660003512,8,-920,-1678,-5991,1401,-493,-1148
157,1405.3513860003477,8,-801,-1590,-5846,1261,-109,-809
158,1414.1753070002778,8,-768,-1612,-5407,1147,246,-443
159,1423.1862260003254,9,-831,-1776,-5393,779,509,11
160,1431.98314700021,8,-1152,-1915,-5380,906,704,364
161,1440.7940680002866,8,-1126,-2461,-5165,758,844,528
162,1449.6309890000703,8,-1140,-2507,-5014,820,1114,551
163,1458.508909000102,8,-1128,-2487,-4614,1005,1370,468
164,1467.35783000031,8,-993,-2305,-4565,1521,1708,439
165,1475.9437530001378,8,-553,-1972,-4210,1525,2291,498
166,1484.756673999982,8,-580,-1636,-3851,1578,2558,644
167,1493.5495950003315,8,-437,-1408,-3468,1521,2509,863
168,1502.3655160002818,8,-419,-1408,-2819,1407,2608,1162
169,1511.1924360003286,8,-333,-1462,-2676,1278,2663,1354
170,1520.406353999988,9,-290,-1560,-2361,1165,2678,1494
171,1529.7212700002092,9,-16,-1697,-2096,1111,2658,1582
172,1539.075185999991,9,-160,-2048,-1865,1095,2615,1594
173,1548.2881030002318,9,-61,-1849,-1691,1103,2561,1566
174,1557.6410200001192,9,83,-1963,-1541,1110,2487,1533
175,1566.8389370002842,9,293,-2192,-1386,1090,2398,1479
176,1576.006855000287,9,467,-2366,-1242,1046,2263,1461
177,1585.1767730000574,9,557,-2282,-1105,934,1992,1473
178,1594.3736900003387,9,1003,-2524,-1178,533,1817,1554
179,1603.581607000251,9,1103,-2658,-1244,625,1643,1594
180,1612.7775250001832,9,1127,-3006,-1375,493,1424,1564
181,1623.156432000087,10,1249,-3670,-1573,435,1342,1438
182,1632.0323520003512,8,1272,-4613,-1715,397,1392,1012
183,1640.9782720002113,8,1428,-5730,-1801,407,1465,407
184,1649.807193000015,8,2040,-5952,-1857,500,1501,-446
185,1658.8851110000178,9,2198,-5563,-1674,503,1379,-583
186,1667.7280320000136,8,2571,-5018,-1446,190,1114,-692
187,1676.5709530000095,8,2992,-4996,-1287,-300,881,-489
188,1685.4958730000362,8,3101,-4970,-1131,-605,714,-300
189,1694.38779300026,8,3127,-5368,-1105,-745,583,-234
190,1703.154713999993,8,3029,-5593,-1037,-669,469,-433
191,1712.6076290001038,9,2950,-5870,-971,-431,350,-839
192,1722.3025420003069,9,2927,-5827,-759,-132,212,-1175
193,1731.6884580000078,9,2960,-5579,-268,56,-49,-1382
194,1740.5203790003725,8,2977,-5412,-25,141,-319,-1403
195,1749.3183000001409,8,2858,-5430,-44,72,-631,-1270
196,1758.2582200002435,8,2632,-5439,18,-221,-1226,-1164
197,1767.0831410000574,8,2462,-5362,-244,-505,-1394,-1139
198,1775.90106200023,8,2158,-5197,-78,-696,-1690,-1189
199,1784.7439820002364,8,1599,-5100,-241,-771,-1941,-1238
200,1793.5709030002727,8,1532,-4986,-388,-670,-2084,-1333
201,1802.4208240003645,8,1270,-4784,-531,-525,-2191,-1418
202,1811.274744000002,8,1077,-4477,-659,-404,-2288,-1502
203,1820.2266640000744,8,946,-4232,-747,-354,-2362,-1527
204,1829.0545849999944,8,834,-4095,-758,-386,-2427,-1488
205,1837.8825060003692,8,778,-3907,-742,-493,-2510,-1424
206,1846.7654260002746,8,618,-3815,-1022,-647,-2654,-1354
207,1855.6013470001744,8,479,-3754,-828,-821,-2775,-1396
208,1864.3842680003218,8,245,-3745,-946,-1005,-2875,-1523
209,1873.562186000072,9,137,-3371,-1042,-1072,-2970,-1665
210,1882.524105000357,8,33,-3124,-1135,-1066,-3027,-1825
211,1891.3710260003427,8,-16,-2922,-1266,-999,-3063,-1895
212,1900.2659460002178,8,-234,-2933,-1380,-856,-3099,-1903
213,1909.1578659999868,8,-236,-2801,-1398,-799,-3092,-2066
214,1918.0817860001298,8,-160,-2476,-1399,-513,-3104,-2366
215,1926.9407070000852,8,-189,-2211,-1421,-735,-3220,-2497
216,1935.8196270000008,8,-158,-1564,-1472,-747,-3378,-2525
217,1944.731547000174,8,-150,-1486,-1567,-742,-3566,-2478
218,1953.5754680000537,8,-230,-1478,-1735,-674,-3688,-2295
219,1962.5813870002276,9,-359,-1037,-2078,-571,-3764,-2133
220,1971.4043080002739,8,-454,-869,-2369,-498,-3823,-1959
221,1980.3142280002248,8,-535,-763,-2955,-447,-3769,-1537
222,1989.3801470002472,9,-685,-783,-3273,-441,-3708,-1564
223,1998.240067000097,8,-990,-839,-3820,-360,-3631,-1381
224,2007.142986999952,8,-1128,-1264,-4417,-254,-3370,-1191
225,2015.9929080000438,8,-1251,-1106,-4962,-164,-3005,-1024
226,2024.894828000015,8,-1344,-1202,-5653,-101,-2550,-842
227,2033.804747999966,8,-1528,-1222,-6148,31,-1815,-724
228,2042.687668000326,8,-1579,-1297,-6439,122,-1359,-645
229,2051.6565880002418,8,-1591,-1378,-6553,228,-746,-550
230,2060.550508000233,8,-1613,-1417,-6490,347,-194,-436
231,2069.4294280001486,8,-1575,-1469,-6300,430,476,-297
232,2078.3113490001597,8,-1430,-1681,-6102,473,598,-156
233,2087.077270000009,8,-1473,-1810,-5920,507,778,-34
234,2095.883191000212,8,-1437,-1949,-5716,527,917,118
235,2104.696112000056,8,-1373,-2024,-5576,543,1050,256
236,2113.4780330003196,8,-1379,-1800,-5470,568,1181,372
237,2122.4279530001695,8,-1243,-2102,-5345,594,1371,744
238,2131.213873999968,8,-1211,-2063,-5161,635,1541,680
239,2140.033795000363,8,-1081,-1980,-4932,647,1719,871
240,2148.873716000253,8,-950,-1961,-4687,588,1905,1048
241,2157.717636000143,8,-882,-1958,-4135,516,2121,1224
242,2166.682556000069,8,-865,-1962,-4019,426,2271,1430
243,2175.5294770000546,8,-862,-1962,-3732,352,2391,1562
244,2184.3323980001514,8,-822,-1960,-3420,330,2486,1688
245,2193.30731700029,8,-799,-1896,-2861,405,2601,1823
246,2202.153237999937,8,-763,-1913,-2563,520,2699,1983
247,2211.116157000106,8,-762,-2129,-2467,622,2802,2043
248,2219.9590780001017,8,-727,-2284,-2273,780,2855,2050
249,2228.910998000174,8,-604,-2273,-1833,882,2837,2040
250,2237.824918000115,8,-482,-2403,-1845,906,2819,2004
251,2246.7208380003285,8,-400,-2636,-1670,829,2797,1954
252,2255.5857590000414,8,-308,-3049,-1555,686,2738,1862
253,2264.4546790002096,8,-197,-2834,-1504,537,2563,1751
254,2273.3355990003474,8,-58,-2827,-1461,383,2413,1640
255,2282.247519000066,8,70,-2844,-1427,191,2054,1600
256,2291.1764390000826,8,228,-2816,-1433,93,2225,1599
257,2300.0153600000885,8,332,-2724,-1487,49,2096,1627
258,2308.962280000287,8,754,-2669,-1576,70,2019,1726
259,2318.1381970002803,9,692,-2735,-1685,143,2006,1846
260,2327.4851139999555,9,805,-2898,-1818,224,2056,2017
261,2336.724031000358,9,944,-3080,-1906,313,2166,2083
262,2345.9469480003463,9,999,-3586,-1932,365,2365,2112
263,2355.12986599997,9,1160,-4139,-1800,435,2520,2061
264,2364.4197820003683,9,975,-4736,-1749,485,2558,1915
265,2373.7306990001343,9,1495,-5140,-1501,550,2480,1572
266,2382.9146160001073,9,1695,-5282,-1399,673,2349,1025
267,2392.1205340002416,9,1968,-5395,-1227,779,2235,1100
268,2401.3624510002956,9,2202,-5582,-1031,685,1827,1106
269,2410.5723679999755,9,2303,-5836,-605,446,1907,1157
270,2420.552279000276,9,2271,-6413,-893,77,1744,1112
271,2429.470199000207,8,2183,-7180,-800,-121,1478,896
272,2438.2551200001217,8,2176,-7345,-581,-203,1229,456
273,2447.1020410001074,8,2225,-7196,-408,-195,925,96
274,2455.8869620000223,8,2309,-6679,-163,-124,619,-157
275,2464.7518820002006,8,2297,-6573,-41,-98,163,-318
276,2473.569803000373,8,2192,-6439,243,-155,-199,-445
277,2482.441724000182,8,1973,-6502,45,-320,-527,-561
278,2491.2426450000567,8,1705,-6498,136,-549,-831,-748
279,2499.91456700036,8,1561,-5899,178,-799,-1121,-941
280,2508.8324870002907,8,1410,-5767,201,-943,-1419,-1099
281,2517.7144070003123,8,1313,-5389,232,-987,-1586,-1269
282,2526.514328000303,8,1232,-4979,253,-960,-1729,-1413
283,2535.4472480003096,8,1022,-4525,250,-866,-1897,-1543
284,2544.310169000255,8,842,-4011,153,-829,-2147,-1629
285,2553.220089000206,8,655,-3730,154,-863,-2358,-1665
286,2562.203008000324,8,502,-3432,49,-1020,-2576,-1657
287,2571.1479280003005,8,185,-3146,-98,-1167,-2876,-1666
288,2579.998849000276,8,41,-2949,-309,-1307,-3073,-1706
289,2588.9207690001967,8,-76,-2803,-594,-1374,-3215,-1783
290,2597.7666890003093,8,-310,-2770,-858,-1336,-3289,-1902
291,2606.7866080002204,9,-425,-2549,-1080,-1204,-3325,-2291
292,2615.6175290002466,8,-518,-2328,-1222,-794,-3335,-2157
293,2624.904446000073,9,-562,-2115,-1400,-863,-3355,-2200
294,2633.965365000222,9,-521,-1685,-1630,-783,-3380,-2150
295,2642.861284999981,8,-588,-1646,-1818,-813,-3362,-1968
296,2651.7892050001137,8,-743,-1792,-2129,-903,-3350,-1829
297,2660.6681250000292,8,-812,-1842,-2395,-993,-3380,-1767
298,2669.6620440002334,8,-1061,-1604,-2890,-995,-3471,-1754
299,2678.6219640002855,8,-1221,-1485,-3514,-878,-3445,-1752
300,2687.5288840001303,8,-1311,-1910,-3898,-520,-3254,-1648
301,2696.447803999945,8,-1409,-1070,-4198,-125,-2876,-1654
302,2705.420724000305,8,-1405,-907,-4577,306,-2473,-1670
303,2714.280644000155,8,-1329,-538,-4961,703,-2072,-1631
304,2723.3275630001117,9,-1416,-326,-5430,901,-1721,-1449
305,2732.1714839999913,8,-1413,-234,-5694,833,-1140,-1192
306,2741.11840400019,8,-1475,-414,-5981,646,-651,-838
307,2749.9563240003226,8,-1654,-575,-6182,555,-262,-585
308,2758.8712450001367,8,-1861,-100,-6766,587,52,-395
309,2767.7891650000674,8,-1909,-676,-6408,691,466,-188
310,2776.685085000281,8,-1844,-1018,-6159,793,822,53
311,2785.4580060002263,8,-2075,-1234,-5944,906,1074,155
312,2794.268927000303,8,-2067,-1635,-5720,998,1229,237
313,2803.1238480002685,8,-2033,-2000,-5581,1032,1284,336
314,2811.935769000229,8,-1937,-2081,-5413,988,1310,732
315,2820.763690000149,8,-1556,-1980,-5161,915,1375,681
316,2829.6486100002767,8,-1685,-1979,-4933,819,1477,838
317,2838.4955310002624,8,-1570,-2122,-4625,803,1606,960
318,2847.355451000112,8,-1495,-2269,-4260,799,1792,1030
319,2856.154372000219,8,-1420,-2406,-3846,844,1916,1052
320,2865.0312930003565,8,-1035,-2416,-3478,868,1992,1046
321,2873.971212000015,8,-1085,-2403,-3103,808,2042,1052
322,2882.8541330003645,8,-961,-2315,-2599,735,2011,1083
323,2891.8000530002246,8,-882,-2182,-2621,615,1964,1174
324,2900.5599740003163,8,-725,-2007,-2523,265,1918,1258
325,2909.3468949999988,8,-588,-1776,-2406,440,1910,1363
326,2918.266815000152,8,-473,-1681,-2214,402,1937,1759
327,2927.126735999991,8,-433,-1693,-2081,384,1949,1679
328,2935.93165700031,8,-367,-1832,-1943,365,1953,1771
329,2944.784577000064,8,-329,-2050,-1832,316,1912,1793
330,2953.6504980001155,8,-249,-2327,-1740,269,1815,1744
331,2962.6144180001575,8,-167,-2519,-1703,226,1711,1633
332,2971.4803380002195,8,-146,-2685,-1832,209,1594,1531
333,2980.3942580001603,8,-26,-2606,-1911,239,1487,1423
334,2989.2611790000956,8,122,-2595,-2056,299,1486,1353
335,2998.105098999986,8,257,-2536,-2061,377,1605,1377
336,3006.8510210003296,8,767,-2524,-2117,444,1765,1468
337,3015.648942000098,8,736,-3027,-2034,456,1926,1651
338,3024.5848620002107,8,798,-3211,-2090,434,2025,1837
339,3033.422783000333,8,777,-3571,-2119,399,1999,2009
340,3042.28870299994,8,874,-3994,-2247,350,1907,1971
341,3051.184623000154,8,808,-4783,-2346,473,1831,1813
342,3060.026544000266,8,815,-5074,-2516,635,1762,1318
343,3068.9564640001663,8,852,-4966,-2569,838,1750,1280
344,3077.7723850001166,8,930,-4823,-2677,1057,1793,1156
345,3086.509307000142,8,992,-5113,-2635,1221,1884,1152
346,3095.486226000048,8,751,-4947,-2688,1262,2033,1206
347,3104.275146999953,8,1101,-5130,-2367,1218,2165,1245
348,3113.1190680002874,8,1071,-5422,-2477,1100,2258,1245
349,3121.872989000167,8,833,-6050,-2355,958,2256,1181
350,3131.1629060000996,9,778,-6965,-2108,802,2197,866
351,3140.4818230003,9,775,-7485,-1965,770,2099,447
352,3149.510742000075,9,923,-7021,-1826,873,1866,-5
353,3158.7506590003613,9,1112,-6595,-1546,946,1675,-372
354,3167.968576000021,9,1220,-5905,-1311,984,1559,-434
355,3177.1974930002216,9,1274,-5737,-780,927,1472,-393
356,3186.449410000023,9,1040,-5520,-596,702,1374,-393
357,3195.7543270000315,9,1265,-5399,-204,380,1172,-469
358,3204.9912440002117,9,1205,-5417,218,-244,909,-681
359,3214.3101609999576,9,1252,-5123,538,-374,499,-885
360,3223.5410779999256,9,1306,-5204,898,-634,155,-1109
361,3233.2969900003263,9,1399,-4987,1079,-742,-212,-1318
362,3242.162910999923,8,1375,-4532,1181,-755,-516,-1494
363,3251.056831000369,8,1111,-4272,1235,-790,-811,-1588
364,3259.9907510002595,8,1091,-4083,1222,-890,-1129,-1619
365,3268.9336710000134,8,904,-3802,1155,-1001,-1525,-1652
366,3277.8135910002675,8,763,-3688,797,-1131,-1807,-1684
367,3286.700511000163,8,609,-3411,948,-1245,-2117,-1669
368,3295.5924319999212,8,460,-3322,690,-1401,-2358,-1759
369,3304.5193520001703,8,350,-3012,265,-1397,-2566,-1840
370,3313.3522719999746,8,299,-2792,32,-1394,-2706,-1944
371,3322.2771920000014,8,249,-2624,46,-1049,-2810,-1978
372,3331.1231130001033,8,186,-2377,-153,-1150,-2850,-1986
373,3340.0210330000846,8,97,-2213,-361,-1007,-2890,-1956
374,3348.9479530003337,8,8,-2083,-549,-872,-2949,-1908
375,3357.810874000279,8,-58,-2014,-784,-732,-2991,-1871
376,3366.738793999957,8,-131,-2121,-966,-627,-2999,-1853
377,3375.669714000196,8,-216,-2358,-1047,-572,-3003,-1919
378,3384.632633000365,8,-9,-2259,-1344,-262,-3056,-2032
379,3393.61755300024,8,-230,-1823,-1609,-470,-3144,-2035
380,3402.5484730000244,8,-238,-1994,-1827,-433,-3218,-1953
381,3411.459393000314,8,-181,-1965,-2282,-385,-3191,-1759
382,3420.4233120003664,8,-185,-2172,-2306,-348,-3131,-1608
383,3429.3402319999586,8,-181,-2454,-2409,-337,-3063,-1543
384,3438.244152000152,8,-192,-2630,-2603,-374,-2973,-1536
385,3447.10107300034,8,-205,-2678,-3054,-440,-2983,-1489
386,3455.962993999947,8,-386,-2609,-3261,-458,-3065,-1399
387,3464.805913999953,8,-591,-2518,-3797,-338,-3119,-1294
388,3473.7078339999243,8,-693,-2582,-4542,-115,-2984,-1188
389,3482.5967550000314,8,-864,-2755,-4704,158,-2697,-1147
390,3491.442675000144,8,-1039,-2896,-5240,709,-2359,-1179
391,3500.299596000332,8,-1161,-3052,-5525,771,-2027,-1222
392,3509.127517000252,8,-1317,-3095,-5697,924,-1703,-1224
393,3517.7244400001655,8,-1348,-3182,-5735,966,-1353,-1139
394,3526.491361000353,8,-1392,-3132,-5777,909,-1123,-973
395,3535.4332810002234,8,-1442,-2922,-5751,537,-887,-818
396,3544.24020200031,8,-1456,-2646,-5651,584,-661,-643
397,3553.0701229999977,8,-1473,-2461,-5525,384,-334,-458
398,3561.918044000322,8,-1456,-2260,-5339,215,-28,-231
399,3570.74796400002,8,-1450,-2050,-5037,110,277,-68
400,3579.704883999966,8,-1392,-1553,-4759,55,554,47
401,3588.496804999977,8,-1351,-1647,-4430,94,847,164
402,3597.4977250002667,9,-1256,-1434,-3874,169,1062,311
403,3606.330645000071,8,-1201,-1292,-3767,260,1245,449
404,3615.1325670002734,8,-1046,-1108,-3534,409,1424,601
405,3624.6734810001726,9,-941,-1017,-3277,512,1523,840
406,3633.5114020002948,8,-532,-915,-3060,615,1599,1034
407,3642.4753210003473,8,-675,-829,-2947,753,1650,1236
408,3651.397241000268,8,-615,-701,-2865,915,1697,1453
409,3660.346161000234,8,-266,-916,-2741,1051,1760,1709
410,3669.2700809999224,8,-538,-1712,-2766,1106,1876,1797
411,3678.3159999999953,9,-424,-1726,-2720,1134,2046,1727
412,3687.1359209999355,8,-399,-2001,-2633,1103,2083,1614
413,3696.008842000083,8,-310,-2229,-2605,1071,2053,1572
414,3704.834762000246,8,-193,-2335,-2650,1047,1970,1618
415,3713.9766810000765,9,-17,-2409,-2671,1073,1868,1703
416,3722.869601000184,8,36,-2447,-2852,1129,1809,1829
417,3731.868520000262,8,490,-2648,-2993,1518,1808,1943
418,3740.7824400002028,8,108,-2817,-2907,1480,1852,2085
419,3749.66736100032,8,167,-3671,-3018,1440,2024,2182
420,3758.5212809999575,8,104,-4336,-3007,1398,2254,2045
421,3767.428201000257,8,71,-4749,-2899,1265,2764,1734
422,3776.308122000046,8,254,-5611,-2930,1190,2665,1475
423,3785.1340430001983,8,286,-5598,-2793,1160,2712,1240
424,3794.0689629999724,8,375,-5598,-2594,1157,2690,1048
425,3802.8858840002613,8,570,-5583,-2408,1183,2642,990
426,3811.8128040000556,8,679,-5542,-2220,1204,2578,1007
427,3820.5897249999907,8,751,-5612,-2008,1215,2543,1067
428,3829.4826450000983,8,779,-6019,-1636,1135,2570,1023
429,3838.322565999988,8,999,-6593,-1350,1005,2600,812
430,3847.073487000216,8,782,-6980,-1016,849,2595,496
431,3855.9294080000655,8,784,-7034,-621,724,2380,164
432,3864.6713299999647,8,907,-6981,-224,557,2111,-86
433,3873.5152500003096,8,992,-6792,144,418,1867,-294
434,3882.4011710003106,8,1115,-6206,549,232,1625,-340
435,3891.206092000175,8,1142,-5728,726,102,1359,-376
436,3899.97901300012,8,1103,-5502,848,-70,1045,-378
437,3908.907933000137,8,777,-5097,1017,-509,799,-399
438,3917.70585400036,8,960,-4773,1051,-455,550,-427
439,3927.0217709999997,9,850,-4507,1084,-622,242,-470
440,3936.4736860002267,9,1060,-4227,1062,-682,-249,-584
441,3945.6016040003306,9,663,-4090,1092,-672,-287,-660
442,3954.833522000172,9,709,-3854,1117,-641,-450,-762
443,3964.112438000029,9,729,-3804,1122,-598,-585,-787
444,3973.4853540003314,9,663,-3784,1080,-610,-749,-786
445,3982.809270999951,9,638,-4066,1132,-704,-1250,-794
446,3992.0991880003385,9,608,-3844,1104,-859,-1351,-801
447,4001.349105000372,9,545,-3586,964,-1125,-1671,-790
448,4010.6390210003156,9,435,-3800,545,-1348,-2064,-822
449,4019.9099380001826,9,20,-3714,526,-1785,-2344,-897
450,4029.775850000078,9,76,-3438,44,-1660,-2648,-1276
451,4038.607770999988,8,-12,-3234,2,-1645,-2821,-1212
452,4047.502691000318,8,-80,-3004,-213,-1520,-2921,-1391
453,4056.3516120000713,8,-115,-2778,-373,-1405,-2995,-1782
454,4065.304531000038,8,-179,-2948,-762,-1287,-3069,-1580
455,4074.2304509999485,8,-127,-2993,-557,-1230,-3177,-1620
456,4083.1553709999753,8,-260,-3287,-698,-1327,-3382,-1665
457,4092.0822910002244,8,-441,-3109,-914,-1483,-3778,-1732
458,4101.184210000156,9,-567,-2852,-1211,-1659,-4093,-1789
459,4110.068129999945,8,-675,-2431,-1612,-1820,-4283,-1779
460,4119.218048000221,9,-753,-2016,-2064,-1807,-4311,-1668
461,4128.154968000217,8,-903,-1619,-2599,-1665,-4184,-1513
462,4137.024888000269,8,-904,-1114,-2956,-1388,-3981,-1474
463,4145.859809000285,8,-947,-1409,-3241,-938,-3708,-1417
464,4154.732729999978,8,-1027,-1701,-3773,-647,-3364,-1356
465,4163.593650000166,8,-1095,-1838,-3821,-491,-3074,-1294
466,4172.543570000016,8,-1210,-2026,-3977,-411,-2833,-1267
467,4181.368491000285,8,-1420,-2247,-4171,-371,-2675,-1224
468,4190.294411000195,8,-1517,-2152,-4380,-295,-2528,-1249
469,4199.100331999944,8,-1685,-2085,-4687,-207,-2396,-1267
470,4208.064251999986,8,-1925,-2047,-5230,229,-2251,-1228
471,4216.849173000355,8,-2043,-1971,-5500,234,-2039,-1126
472,4225.663094000083,8,-2116,-2013,-5732,409,-1672,-959
473,4234.651013000075,8,-2164,-2054,-5849,505,-1383,-666
474,4243.512934000137,8,-2233,-2110,-5865,468,-1114,-417
475,4252.4238539999715,8,-2254,-2159,-5845,325,-842,-172
476,4261.275775000286,8,-2225,-2260,-5710,172,-514,51
477,4270.09669600011,8,-2203,-2172,-5533,58,-212,275
478,4279.083615000218,8,-2114,-2144,-5253,48,86,375
479,4287.887536000198,8,-2021,-2157,-4928,140,409,398
480,4296.7774560002,8,-2107,-2236,-4413,220,775,426
481,4305.630376999943,8,-1832,-2065,-4265,303,1030,447
482,4314.448298000116,8,-1747,-1820,-3825,390,1248,479
483,4323.36321799994,8,-1408,-1315,-3603,493,1418,505
484,4332.196139000189,8,-1455,-1471,-3320,584,1599,570
485,4341.140059000281,8,-1374,-1458,-3022,670,1720,656
486,4350.076979000278,8,-1376,-1478,-2888,738,1770,663
487,4359.007899000062,8,-1361,-1593,-2801,845,1797,615
488,4367.8338200002145,8,-1338,-1700,-2825,919,1847,535
489,4376.815738999994,8,-1251,-1724,-2963,1029,1933,422
490,4385.648660000243,8,-1161,-1770,-2993,1126,2070,357
491,4394.608579000305,8,-984,-1748,-3094,1238,2534,374
492,4403.445500000089,8,-866,-1651,-3220,1314,2526,400
493,4412.4504200003685,9,-708,-1630,-3376,1376,2710,511
494,4421.303340000122,8,-593,-1597,-3468,1433,2861,612
495,4430.220260000169,8,-385,-1993,-3417,1484,3317,733
496,4439.100180999958,8,-28,-1882,-3311,1513,3367,781
497,4447.887102000095,8,176,-2280,-3218,1503,3561,924
498,4456.78602199996,8,147,-2559,-3050,1448,3738,999
499,4465.832941000372,9,319,-2958,-2883,1290,3949,1060
500,4474.784860999989,8,381,-3308,-2567,1190,4032,1087
501,4483.587782000086,8,515,-3519,-2741,1146,4097,1075
502,4492.478701999971,8,702,-3897,-2623,1223,4210,1004
503,4501.236624000285,8,658,-4193,-2466,1376,4293,871
504,4510.090543999922,8,641,-4223,-2342,1556,4308,680
505,4518.936465000024,8,750,-4354,-2062,2043,4352,505
506,4527.768385999934,8,1021,-4357,-1770,2056,4440,402
507,4536.318309000308,8,779,-4539,-1466,2450,4541,328
508,4545.110230000319,8,694,-4841,-1075,2694,4636,184
509,4553.995150999981,8,574,-4881,-362,2869,4663,-250
510,4562.801072000184,8,487,-5160,180,2886,4654,-318
511,4571.645992999947,8,572,-5553,785,2775,4554,-635
512,4580.536913000287,8,889,-5744,1365,2573,4295,-1022
513,4589.373834000071,8,1272,-5385,2026,2377,3707,-1337
514,4598.2217549999405,8,1983,-4819,2063,2046,3057,-1393
515,4607.033676000356,8,1989,-4450,2291,1499,2257,-1101
516,4615.798597000321,8,2098,-4198,2308,591,1117,-692
517,4625.003515000117,9,2028,-4103,2194,-170,299,-374
518,4633.95143400021,8,1971,-4108,2155,-1121,-392,-209
519,4642.842355000084,8,1922,-4185,1910,-1507,-1198,-205
520,4651.766275000227,8,1882,-4082,1725,-1752,-1436,-269
521,4660.655195000345,8,1869,-3912,1305,-1784,-1686,-314
522,4669.649115000084,8,1807,-3905,1375,-1720,-1837,-290
523,4678.562035000141,8,1960,-4324,1380,-1630,-1952,-231
524,4687.479955000072,8,1951,-4118,1032,-1666,-2202,-160
525,4696.394875000351,8,1902,-4285,1122,-1818,-2507,-66
526,4705.3177950001555,8,1746,-4330,919,-1999,-2839,-72
527,4714.191715000197,8,1604,-4500,704,-2171,-3132,-152
528,4723.167635000209,8,1521,-4512,268,-2183,-3361,-298
529,4732.001556000341,8,1406,-4555,325,-2120,-3455,-501
530,4741.217473000233,9,1194,-4483,182,-2023,-3558,-685
531,4750.509389999934,9,964,-4141,-123,-1935,-3661,-913
532,4759.838306000347,9,732,-3592,-326,-1834,-3738,-1061
533,4769.109223000214,9,627,-3524,-760,-1742,-3781,-1179
534,4778.4081400000105,9,571,-3278,-598,-1640,-3773,-1242
535,4787.704057000155,9,461,-2964,-707,-1604,-3796,-1274
536,4796.896973999992,9,357,-2754,-887,-1589,-3833,-1305
537,4806.2058909999905,9,271,-2732,-916,-1596,-3835,-1346
538,4815.417808000348,9,170,-2798,-1058,-1572,-3822,-1421
539,4824.645726000199,9,-1,-2683,-1264,-1492,-3837,-1486
540,4833.8786429999345,9,-131,-2555,-1581,-1398,-3841,-1554
541,4843.489557000339,9,-217,-2394,-1807,-1236,-3807,-1588
542,4852.492475999952,9,-301,-2163,-2083,-1085,-3714,-1607
543,4861.404396000125,8,-338,-2029,-2346,-922,-3603,-1580
544,4870.337316000132,8,-379,-2042,-2594,-740,-3487,-1504
545,4879.298236000068,8,-389,-2063,-2817,-559,-3368,-1379
546,4888.226156000201,8,-493,-2145,-3090,-471,-3281,-1241
547,4897.075076999954,8,-774,-2323,-3693,-372,-3278,-1106
548,4905.999996999981,8,-1090,-2807,-4100,-214,-3222,-1070
549,4914.845917000093,8,-1170,-3045,-4516,-66,-3056,-1074
550,4923.741838000296,8,-1474,-2930,-5303,131,-2785,-1099
551,4932.607758000358,8,-1682,-2911,-5625,335,-2484,-1150
552,4941.474679000294,8,-1824,-2789,-5942,589,-2044,-1174
553,4950.404599000194,8,-1868,-2707,-6093,767,-1387,-1110
554,4959.284518999993,8,-1891,-2356,-6143,838,-861,-988
555,4968.217439,8,-1818,-2250,-5986,817,-344,-763
556,4977.164359000199,8,-1788,-2246,-5831,681,85,-575
557,4985.773282000082,8,-1735,-2226,-5574,523,530,-404
558,4994.994199000303,9,-1663,-2084,-5183,368,836,-262
559,5003.867119999995,8,-1552,-2042,-4838,274,1081,-160
560,5012.713041000097,8,-1483,-1957,-4578,234,1496,-53
561,5021.6599600003065,8,-1400,-1835,-4304,270,1426,34
562,5030.430882000019,8,-1316,-1728,-3861,337,1570,162
563,5039.188803000343,8,-1180,-1646,-3918,413,1678,374
564,5047.792726000353,8,-1121,-1574,-3818,522,1762,540
565,5056.566648000171,8,-972,-1292,-3675,645,1880,717
566,5065.44656799997,8,-836,-1484,-3549,699,2054,899
567,5074.262488999921,8,-735,-1557,-3384,696,2160,1143
568,5083.1834089999575,8,-670,-1695,-3201,662,2225,1314
569,5092.097329000353,8,-616,-1795,-3044,583,2275,1436
570,5100.958250000076,8,-542,-1925,-2923,525,2339,1515
571,5109.820170000148,8,-541,-1990,-2801,471,2377,1567
572,5118.604092000169,8,-474,-2213,-2700,443,2431,1587
573,5127.523011999983,8,-473,-2493,-2640,528,2512,1560
574,5136.336933000166,8,-298,-2851,-2311,617,2632,1499
575,5145.5588500002705,9,-123,-3067,-2434,993,2714,1416
576,5154.554770000232,8,49,-3219,-2332,882,2728,1358
577,5163.382691000152,8,323,-3558,-2241,983,2675,1318
578,5172.205611000209,8,521,-3522,-2073,1049,2582,1031
579,5181.194531000074,8,993,-3774,-1923,1046,2515,1179
580,5190.0554520002515,8,886,-4001,-1854,1032,2440,1058
581,5198.943372000031,8,1088,-4128,-1701,1011,2337,913
582,5207.859292000194,8,1353,-4214,-1050,1016,2257,517
583,5216.7412120002155,8,1766,-4652,-992,1050,2131,665
584,5225.479134000125,8,1985,-4986,-619,1012,1652,284
585,5235.392045000026,9,2222,-5566,-334,905,1016,421
586,5244.7859610001615,9,2283,-6293,-125,706,84,342
587,5253.639882000243,8,2263,-6284,-347,455,-284,228
588,5262.599801000306,8,2192,-6134,-770,102,-682,42
589,5271.51872200011,8,1977,-5470,-1077,-371,-950,-13
590,5280.499641000006,8,1706,-5241,-1335,-667,-1087,3
591,5289.375562000259,8,1590,-5159,-1683,-862,-990,7
592,5298.274482000124,8,1423,-5083,-1794,-934,-734,-62
593,5307.148402000166,8,1282,-4905,-1765,-868,-380,-187
594,5315.955323000253,8,1282,-4772,-1525,-762,73,-314
595,5324.886243000037,8,1292,-4663,-1214,-636,357,-415
596,5333.710163999967,8,1535,-4561,-821,-473,523,-523
597,5342.701084000055,8,1281,-4524,-520,-297,606,-578
598,5351.497005000056,8,1384,-4510,-143,-213,561,-633
599,5360.393925000153,8,1367,-4327,47,-184,426,-703
600,5369.1748470000675,8,1376,-4127,134,-235,179,-758
601,5378.059767000195,8,1395,-4063,202,-311,-94,-786
602,5386.9576870001765,8,1350,-4006,247,-378,-362,-829
603,5395.755607999945,8,1341,-3817,190,-462,-673,-865
604,5404.597529000057,8,1222,-3633,1,-535,-964,-805
605,5413.390449999952,8,1044,-3281,6,-661,-1310,-815
606,5422.191371000281,8,875,-3469,-126,-874,-1612,-834
607,5431.324290000248,9,784,-3503,-346,-1026,-1995,-916
608,5440.278209000098,8,690,-3385,-477,-1176,-2305,-1027
609,5449.097130000155,8,505,-3322,-652,-1344,-2808,-1078
610,5458.117050000055,9,351,-3127,-893,-1416,-2787,-1108
611,5466.948969999976,8,162,-2573,-1301,-1422,-2939,-1159
612,5476.92988100016,9,36,-2541,-1609,-1340,-3049,-1189
613,5485.8708010001465,8,-63,-2368,-1968,-1230,-3042,-1232
614,5494.855720000032,8,-186,-2160,-2273,-805,-2963,-1283
615,5503.7786400002915,8,-185,-2072,-2545,-776,-2576,-1344
616,5512.677561000146,8,-249,-2069,-2684,-561,-2597,-1399
617,5521.531481000238,8,-191,-2037,-2784,-369,-2395,-1432
618,5530.471401000341,8,-291,-2082,-2951,-239,-2274,-1394
619,5539.728318000016,9,-562,-2154,-3210,-140,-2283,-1332
620,5549.063235000176,9,-892,-2233,-3689,237,-2282,-1315
621,5558.245151999927,9,-824,-2180,-3878,139,-2094,-1386
622,5567.500070000278,9,-940,-2221,-4147,265,-1838,-1473
623,5576.850985999954,9,-1088,-2002,-4390,406,-1567,-1528
624,5586.010903999977,9,-1180,-1693,-4838,480,-1376,-1465
625,5595.254821000253,9,-1219,-1482,-4818,542,-1197,-1310
626,5604.448738999963,9,-1266,-1466,-4968,608,-972,-1097
627,5613.614657000198,9,-1342,-1500,-5184,697,-656,-702
628,5626.769539000179,13,-1392,-1539,-5249,735,-443,-471
629,5635.954456000036,9,-1464,-1768,-5262,704,-182,-229
630,5644.990376000351,9,-1289,-2015,-5205,618,244,17
631,5654.7332879999885,9,-1562,-2130,-5171,557,170,158
632,5663.716208000096,8,-1572,-2218,-5118,509,327,296
633,5672.650127999987,8,-1513,-2343,-4993,466,513,352
634,5681.43204900025,8,-1437,-2085,-4886,463,711,380
635,5690.336969000327,8,-1336,-2195,-4786,480,973,413
636,5699.152890000278,8,-1272,-2049,-4618,519,1199,473
637,5708.058811000228,8,-1168,-1928,-4391,565,1453,528
638,5716.939731000366,8,-1053,-1557,-4158,627,1698,615
639,5725.765652000064,8,-965,-1662,-3975,651,1956,996
640,5734.660571999939,8,-890,-1652,-3700,652,2093,935
641,5743.53449299997,8,-826,-1757,-3506,609,2202,1076
642,5752.412413000002,8,-748,-1880,-3344,555,2556,1146
643,5761.25733400022,8,-665,-1987,-3204,491,2410,1186
644,5770.21525400005,8,-289,-2012,-2999,464,2489,1233
645,5779.0621750000355,8,-372,-2104,-2863,450,2546,1289
646,5787.929094999981,8,-190,-2535,-2690,439,2594,1345
647,5796.810016000109,8,-143,-2496,-2565,434,2632,1349
648,5805.652936000115,8,32,-2851,-2600,414,2660,1312
649,5814.590855999995,8,114,-2876,-2564,433,2716,1249
650,5823.449776999951,8,228,-3009,-2558,444,2825,1186
651,5832.345697000164,8,245,-3105,-2555,517,2975,1140
652,5841.19261800015,8,145,-3081,-2493,670,3096,1056
653,5850.0045390001105,8,270,-3005,-2313,824,3536,983
654,5858.922459000041,8,421,-3099,-2148,997,3497,920
655,5867.730380000012,8,571,-3130,-1953,1092,3721,867
656,5876.560301000154,8,700,-3265,-1643,1116,3812,852
657,5885.514220999994,8,770,-3475,-1375,1072,3831,872
658,5894.36514199997,8,874,-3596,-1057,985,3776,909
659,5903.314061999936,8,997,-3782,-542,948,3658,959
660,5912.139983000088,8,1129,-4006,-567,966,3481,1049
661,5921.007903000373,8,1203,-4144,-473,1058,3229,1119
662,5929.808824000247,8,1326,-4819,-451,1239,2958,1128
663,5938.584746000288,8,1384,-5279,-409,1341,2702,1058
664,5947.380667000289,8,1465,-5642,-375,1340,2492,908
665,5956.204588000219,8,1604,-6040,-294,1238,2216,626
666,5964.966509000078,8,1707,-6129,-340,987,1797,375
667,5974.574422999922,9,1854,-6043,-312,702,1433,152
668,5983.402344000297,8,1974,-5870,-176,415,1129,13
669,5992.240264999964,8,2084,-5704,-39,33,892,7
670,6001.100186000258,8,2132,-5569,125,-240,682,12
671,6009.909107000112,8,2135,-5390,263,-454,378,-35
672,6018.734027999926,8,2092,-5183,485,-621,137,-240
673,6027.724947000024,8,2107,-4918,648,-702,-70,-421
674,6036.5208690000145,8,2134,-4686,862,-769,-306,-550
675,6045.488788000057,8,2201,-4413,1049,-787,-474,-621
676,6054.3037090001235,8,2216,-4281,1253,-857,-690,-646
677,6063.081630999932,8,1797,-4136,1239,-976,-1243,-635
678,6071.976551000262,8,1878,-4022,1181,-1119,-1335,-623
679,6080.822472000364,8,1758,-3879,987,-1220,-1749,-611
680,6089.845390999926,9,1291,-3794,649,-1528,-1995,-645
681,6098.776311000165,8,1331,-3358,389,-1266,-2139,-676
682,6107.662231000177,8,1180,-3469,132,-1231,-2254,-714
683,6116.501152000183,8,1004,-3418,-95,-1179,-2374,-632
684,6125.482072000068,8,931,-3017,-169,-1155,-2483,-644
685,6134.405992000211,8,772,-3143,-221,-1201,-2502,-682
686,6143.363912000041,8,744,-3259,-140,-1229,-2492,-731
687,6152.217832000133,8,652,-3608,-169,-1305,-2612,-802
688,6161.273750999953,9,260,-3559,-304,-1367,-2868,-885
689,6170.109672000308,8,262,-3526,-462,-1407,-3169,-995
690,6179.000592000193,8,40,-3399,-983,-1408,-3527,-1109
691,6187.895513000058,8,-160,-3288,-1088,-1402,-3704,-1195
692,6196.803433000241,8,-326,-3124,-1304,-1327,-3779,-1235
693,6205.696353000349,8,-537,-2602,-1725,-1212,-3801,-1533
694,6214.6322730000065,8,-649,-2542,-2131,-1060,-3771,-1029
695,6223.519194000346,8,-687,-2531,-2487,-891,-3646,-1258
696,6232.512113000212,8,-640,-2680,-2703,-644,-3433,-1240
697,6241.3880340000105,8,-655,-2726,-2753,-479,-3102,-1297
698,6250.361953000265,8,-628,-2800,-2796,-380,-2878,-1337
699,6259.209874000135,8,-587,-2795,-2839,-352,-2771,-1344
700,6268.07679500007,8,-670,-2634,-2907,-408,-2762,-1271
701,6276.925715000289,8,-784,-2440,-3138,-447,-2782,-1181
702,6285.713637000299,8,-827,-2442,-3506,-400,-2754,-1092
703,6294.63155700023,8,-949,-2271,-3892,-10,-2632,-1035
704,6303.485477000322,8,-985,-2268,-4233,-47,-2433,-980
705,6312.38939800005,8,-1071,-2557,-4500,142,-2202,-912
706,6321.203319000233,8,-1147,-2342,-4735,300,-1868,-874
707,6329.985240000042,8,-1179,-2542,-4955,411,-1595,-776
708,6338.864160999947,8,-1214,-2629,-5150,481,-1324,-678
709,6348.123078000299,9,-1181,-2717,-5235,481,-1002,-536
710,6357.499994000136,9,-1180,-2770,-5295,446,-756,-418
711,6366.836910000075,9,-1177,-2793,-5283,390,-434,-317
712,6376.059827000063,9,-1083,-2820,-5190,352,-150,-233
713,6385.287745000369,9,-990,-2808,-4955,331,161,-204
714,6394.548662000034,9,-928,-2759,-4657,324,381,-188
715,6403.726580000239,9,-791,-2682,-4382,312,562,-179
716,6412.953497000217,9,-690,-2525,-3913,298,747,-177
717,6422.460411999964,9,-589,-2406,-3921,304,858,-163
718,6431.639330000053,9,-466,-2229,-3754,302,935,-123
719,6440.970246000234,9,-420,-2119,-3643,319,967,-88
720,6450.475161000213,9,-357,-1965,-3569,376,1017,-54
721,6459.442081000361,8,-332,-1917,-3475,423,1060,2
722,6468.288001000019,8,-302,-1958,-3498,481,1102,38
723,6477.140922000217,8,-362,-2071,-3595,551,1143,43
724,6486.044841999956,8,-329,-2057,-3700,625,1247,17
725,6494.960762000119,8,-317,-2097,-3798,725,1392,0
726,6503.870683000059,8,-208,-2120,-3791,801,1574,13
727,6512.746603000323,8,-110,-2126,-3703,867,2028,66
728,6521.583524000107,8,-29,-2143,-3347,844,1970,165
729,6530.475444000331,8,53,-2127,-3457,526,2077,324
730,6539.349365000362,8,142,-2123,-3346,683,2187,491
731,6548.224285000288,8,255,-2228,-3225,544,2308,696
732,6557.173205000254,8,247,-2475,-3153,460,2475,895
733,6565.9991259999515,8,248,-2642,-3033,434,2645,1084
734,6574.667049000254,8,237,-2846,-2944,432,2862,1144
735,6583.496969999942,8,94,-3449,-2575,525,3114,1170
736,6592.47588900007,8,235,-3601,-2466,591,3349,1249
737,6601.287810000031,8,155,-3592,-2237,598,3420,1268
738,6610.107730999971,8,411,-4027,-1957,623,3467,1283
739,6618.937652000113,8,452,-4143,-1744,654,3451,1318
740,6628.198569000233,9,524,-4229,-1599,691,3343,1416
741,6636.98149100037,8,562,-4150,-1427,757,3216,1597
742,6645.776412000032,8,637,-4194,-1313,783,3119,1753
743,6654.607333000058,8,667,-4475,-1197,730,3035,1844
744,6663.3792540001195,8,640,-4683,-954,591,2943,1870
745,6672.226175000105,8,634,-5469,-688,365,2856,1544
746,6681.082095999955,8,793,-6095,-351,154,2714,1475
747,6689.955016000113,8,1058,-6207,-45,-69,2481,1055
748,6698.84393700022,8,1294,-5983,236,-224,1870,643
749,6707.65585800018,8,1471,-5457,362,-397,1542,365
750,6716.506779000156,8,1520,-5072,429,-562,1035,209
751,6725.436699000056,8,1282,-4670,318,-671,615,195
752,6734.235620000163,8,1455,-4160,252,-706,273,201
753,6743.254539000191,9,1427,-4131,163,-735,138,171
754,6752.071460000025,8,1362,-4125,120,-719,102,99
755,6761.011380000127,8,1387,-4034,201,-686,93,16
756,6769.836300999941,8,1360,-4156,277,-659,46,-68
757,6778.76722100018,8,1356,-4188,363,-646,-94,-169
758,6787.696141000197,8,1333,-4235,523,-666,-308,-287
759,6796.5290619999905,8,1297,-4264,498,-707,-556,-371
760,6805.442981999931,8,1258,-4251,531,-800,-920,-516
761,6815.17689500015,9,1167,-4195,467,-997,-1497,-636
762,6824.151815000278,8,1003,-3987,323,-1147,-1588,-670
763,6833.051735000026,8,919,-3552,215,-1301,-2034,-695
764,6841.909656000098,8,678,-3570,-38,-1408,-2269,-747
765,6850.725577000048,8,493,-3738,-217,-1402,-2448,-824
766,6859.739496000202,9,435,-3624,-357,-1377,-2597,-1260
767,6868.54541699995,8,291,-3453,-522,-1328,-2717,-1163
768,6877.536337000038,8,181,-3096,-770,-1302,-2862,-1292
769,6886.351258000104,8,19,-2580,-940,-1275,-3307,-1285
770,6895.338177000212,8,-64,-2637,-1143,-1242,-3240,-1222
771,6904.196098000284,8,-130,-2521,-1396,-1209,-3299,-1124
772,6913.353016000201,9,-202,-2405,-1695,-1193,-3335,-1046
773,6922.20893700005,8,-350,-2354,-1925,-1205,-3380,-1023
774,6931.156857000133,8,-477,-2187,-2165,-1237,-3428,-1018
775,6940.020776999972,8,-514,-2127,-2549,-1227,-3393,-993
776,6948.918697999943,8,-638,-1834,-2868,-1091,-3317,-972
777,6957.759619000171,8,-725,-2004,-3263,-877,-3193,-961
778,6966.502539999965,8,-802,-1970,-3877,-470,-2932,-967
779,6978.1184359999315,11,-903,-2000,-4172,-101,-2710,-1000
780,6987.173355000323,9,-946,-2062,-4455,320,-2358,-1036
781,6996.0132760002125,8,-1029,-2116,-4693,631,-2066,-1070
782,7004.824197000289,8,-791,-2145,-4900,850,-1757,-1067
783,7013.610118000088,8,-1040,-2342,-4993,1001,-1471,-988
784,7022.621038000125,9,-1132,-2519,-5088,1030,-1201,-889
785,7031.411959000252,8,-1174,-2572,-5141,973,-1063,-539
786,7040.328879000299,8,-1206,-2637,-5191,851,-958,-632
787,7049.171800000295,8,-1190,-2731,-5242,642,-872,-478
788,7058.097720000205,8,-1229,-2862,-5225,474,-768,-342
789,7067.09064000006,8,-1253,-2915,-5265,358,-580,-243
790,7075.970560000314,8,-1508,-2939,-5166,289,-406,-188
791,7084.649482000259,8,-1229,-2939,-5040,262,-195,-173
792,7093.604401999983,8,-1151,-2978,-4820,279,87,-194
793,7102.5183219999235,8,-1082,-2882,-4566,303,321,-497
794,7111.395243000061,8,-943,-2708,-4264,314,525,-291
795,7120.3421630002595,8,-797,-2460,-4020,321,696,-304
796,7129.228083000271,8,-669,-2241,-3732,326,860,-274
797,7138.21800300002,8,-473,-2055,-3458,333,963,-162
798,7147.04992399993,8,-368,-1944,-3178,322,1006,-37
799,7155.668847000015,8,-277,-1896,-3024,294,1010,76
800,7164.677766000295,9,-207,-1849,-2918,264,950,205
801,7173.563686000307,8,-174,-1937,-2889,249,884,344
802,7182.4896060002175,8,-201,-2042,-2952,292,826,382
803,7191.412526000022,8,-195,-2124,-3084,427,811,370
804,7200.329447000058,8,-318,-2236,-3397,608,854,301
805,7209.271366999928,8,-321,-2265,-3645,879,997,170
806,7218.1912870000815,8,-294,-2317,-3738,1149,1276,56
807,7227.062207000017,8,-135,-2344,-3708,1427,1615,10
808,7235.882127999957,8,-216,-2405,-4091,1606,1908,20
809,7244.83804800002,8,-127,-2263,-3810,1711,2115,104
810,7253.737968000223,8,-68,-2323,-3783,1760,2337,226
811,7262.601889000052,8,-35,-2196,-3699,1835,2579,339
812,7271.405810000033,8,5,-2123,-3439,1897,2874,466
813,7280.348730000242,8,61,-2136,-3300,1953,3064,607
814,7289.15865099998,8,59,-2305,-3042,1959,3198,716
815,7298.070572000142,8,124,-2606,-2790,1806,3350,832
816,7306.94749200029,8,193,-2958,-2330,1611,3472,894
817,7315.742412999953,8,102,-3264,-2284,1426,3459,915
818,7324.720333000187,8,3,-3640,-2031,1239,3389,927
819,7333.506253999985,8,382,-3893,-1958,1052,3275,939
820,7342.397175000315,8,384,-3991,-1585,958,3102,932
821,7351.2120959999265,8,491,-4017,-1693,864,2965,930
822,7360.019017000013,8,271,-4014,-1561,801,2848,980
823,7368.964937000328,8,497,-3960,-1456,711,2754,1041
824,7377.789858000142,8,507,-3986,-1249,645,2655,1106
825,7386.573779000173,8,538,-4303,-775,585,2582,1204
826,7395.577698000125,9,763,-4913,-773,476,2519,1191
827,7404.439619000186,8,583,-5280,-600,311,2390,1018
828,7413.421538999955,8,678,-5617,-501,178,2098,525
829,7422.262460000184,8,672,-5654,-259,31,1775,506
830,7431.1833800002205,8,948,-5915,-247,-135,1437,263
831,7440.120300000217,8,940,-5997,-152,-229,1147,22
832,7448.969219999981,8,959,-5842,-157,-301,787,-127
833,7457.823141000063,8,1078,-5610,-250,-373,545,-262
834,7466.457064000224,8,1066,-5395,38,-528,357,-335
835,7476.747972000339,10,1077,-5189,97,-689,209,-370
836,7485.654892000184,8,1044,-5028,187,-854,74,-416
837,7494.65181100004,8,1069,-4904,266,-1054,-37,-747
838,7503.513732000101,8,1044,-4869,433,-1173,-248,-628
839,7512.592650999977,9,1027,-4791,574,-1255,-439,-764
840,7521.439571999963,8,1056,-4692,636,-1337,-629,-877
841,7530.378492000182,8,1035,-4650,631,-1339,-893,-960
842,7539.287412000249,8,1030,-4608,614,-1305,-1101,-1037
843,7548.184332000346,8,1012,-4509,585,-1242,-1273,-1128
844,7557.1332520003125,8,947,-4422,552,-1211,-1436,-1220
845,7565.9471730000405,8,881,-4216,489,-1211,-1653,-1319
846,7574.824094000178,8,789,-4100,476,-1224,-1836,-1433
847,7583.720013999937,8,717,-3894,396,-1533,-2046,-1520
848,7592.50593500019,8,581,-3704,294,-1323,-2531,-1571
849,7601.3328560002265,8,519,-3554,143,-1337,-2563,-1593
850,7610.248776999924,8,395,-3497,-7,-1361,-2750,-1613
851,7619.012698000006,8,312,-3422,-280,-1387,-2894,-1657
852,7628.145615999983,9,204,-2890,-482,-1392,-3008,-1674
853,7636.962538000262,8,111,-2660,-1023,-1394,-3123,-1620
854,7645.727459000227,8,51,-2313,-1038,-1383,-3188,-1461
855,7654.632379000304,8,40,-2029,-1325,-1343,-3204,-1298
856,7663.389301000279,8,89,-1926,-1584,-1307,-3191,-1083
857,7672.172221999972,8,-54,-1866,-1748,-1281,-3149,-1008
858,7681.039143000362,8,-41,-1856,-1937,-1272,-3087,-914
859,7689.84506400011,8,-131,-1707,-2166,-1271,-3108,-745
860,7698.843984000177,8,-286,-1737,-2406,-1294,-3163,-596
861,7707.679905000077,8,-490,-1751,-2732,-1252,-3212,-448
862,7716.4528260000225,8,-684,-1737,-3315,-1159,-3257,-329
863,7725.389746000019,8,-1154,-1939,-3666,-1011,-3271,-185
864,7734.18166700003,8,-1126,-1833,-4109,-516,-3210,-129
865,7743.1505869999455,8,-1455,-2275,-4646,-409,-3052,-82
866,7752.001507999921,8,-1597,-2173,-5371,-72,-2691,-70
867,7760.94842800012,8,-1666,-2252,-5503,452,-2247,-94
868,7769.860348000293,8,-1547,-2283,-5651,453,-1744,-112
869,7778.78526800032,8,-1748,-2252,-5736,563,-1238,-110
870,7787.634189000073,8,-1680,-2205,-5698,602,-654,-76
871,7796.499110000241,8,-1595,-2111,-5489,600,-245,-13
872,7805.412030000298,8,-1489,-1795,-5190,572,113,45
873,7814.301950000299,8,-1380,-1972,-4641,541,499,134
874,7823.20787100025,8,-1282,-1875,-4606,534,725,223
875,7832.028792000074,8,-1184,-1834,-4236,545,883,297
876,7840.98971100002,8,-1050,-1789,-4051,581,1278,330
877,7849.814633000278,8,-946,-1756,-3822,621,1152,359
878,7858.889551000175,9,-857,-1760,-3570,673,1286,400
879,7868.172468000012,9,-744,-1773,-3402,744,1364,453
880,7877.461385000061,9,-617,-1774,-3235,765,1382,549
881,7886.706302000221,9,-282,-1856,-3054,764,1368,612
882,7895.968219000224,9,-429,-1916,-2984,767,1312,695
883,7905.228136999995,9,-367,-1962,-2953,759,1236,799
884,7914.39005500024,9,-294,-2004,-2933,771,1186,851
885,7923.592972000279,9,-262,-2095,-2985,795,1174,916
886,7932.84088900009,9,-226,-2168,-3014,818,1167,977
887,7942.100807000315,9,-215,-2410,-3303,839,1198,1040
888,7951.417723000304,9,-205,-2692,-3147,885,1277,1064
889,7961.211634999927,9,-181,-3030,-3177,925,1354,1040
890,7969.988557000306,8,-186,-3299,-3259,939,1433,1013
891,7978.990476000035,9,-134,-3524,-3299,939,1774,976
892,7987.777398000162,8,-102,-3694,-3241,926,1658,948
893,7996.755316999952,8,-50,-3890,-3166,922,1779,938
894,8005.567238000367,8,-30,-4038,-3122,934,1877,932
895,8014.384160000191,8,3,-4109,-2980,994,1982,915
896,8023.392079000132,9,60,-4213,-2850,1059,2123,883
897,8032.192000000123,8,85,-4314,-2664,1151,2231,861
898,8041.18292000021,8,152,-4558,-2367,1218,2319,825
899,8050.023840999984,8,241,-5065,-2147,1255,2380,733
900,8058.945761000359,8,281,-5015,-1928,1244,2346,627
901,8067.786682000133,8,363,-5154,-1731,1154,2238,482
902,8076.734602000215,8,436,-5141,-1373,780,2079,342
903,8085.569522000242,8,644,-5227,-1268,882,1933,203
904,8094.502443000238,8,605,-5002,-1121,714,1698,135
905,8103.235364000284,8,604,-4670,-965,467,1446,62
906,8112.230284000361,8,813,-4682,-673,311,1293,20
907,8121.152204000282,8,911,-4749,-415,262,1240,25
908,8130.003125000258,8,953,-4657,-50,194,1130,43
909,8138.981044000047,8,993,-4546,-112,68,942,-46
910,8147.819965000053,8,979,-4499,4,-73,706,-164
911,8156.74888500007,8,1035,-4502,176,-281,438,-292
912,8165.663806000339,8,1028,-4457,248,-465,69,-395
913,8174.609726000199,8,769,-4359,176,-589,-187,-483
914,8183.463646000291,8,768,-4276,167,-678,-408,-536
915,8192.423566000343,8,1017,-4204,159,-740,-642,-568
916,8201.295487000152,8,1033,-4135,51,-786,-798,-606
917,8210.333406000245,9,1019,-4197,26,-814,-942,-638
918,8219.144327000322,8,1001,-4295,0,-866,-1121,-693
919,8228.152246000263,9,860,-4134,-246,-899,-1357,-798
920,8236.965167000108,8,778,-4077,-134,-958,-1579,-905
921,8245.781089000047,8,707,-3923,-254,-1277,-1811,-951
922,8254.661009000301,8,526,-3799,-469,-1071,-2056,-982
923,8263.444930000333,8,440,-3684,-716,-1063,-2295,-992
924,8272.27885100001,8,321,-3688,-1245,-1035,-2453,-1011
925,8281.128772000102,8,163,-3625,-1303,-1002,-2547,-1090
926,8289.944693000052,8,72,-3418,-1575,-954,-2593,-1183
927,8298.842614000023,8,-35,-3236,-1777,-900,-2647,-1251
928,8307.66553500007,8,-94,-3029,-2004,-866,-2657,-1228
929,8316.435456000363,8,-130,-3036,-2176,-820,-2597,-1175
930,8325.449375000062,9,-125,-2997,-2299,-808,-2500,-1165
931,8334.264297000118,8,-220,-2867,-2399,-791,-2429,-1161
932,8343.189217000145,8,-292,-2688,-2488,-797,-2418,-1158
933,8352.034138000363,8,-367,-2608,-2639,-811,-2416,-1125
934,8360.980057000234,8,-461,-2609,-2774,-784,-2399,-1116
935,8369.90097800026,8,-577,-2587,-2929,-706,-2369,-1121
936,8378.867896999964,8,-691,-2457,-3151,-626,-2319,-1104
937,8387.725818000035,8,-815,-2468,-3371,-266,-2244,-1067
938,8396.575739000127,8,-937,-2405,-3587,-401,-2135,-1085
939,8405.547659000149,8,-963,-2361,-3893,-256,-1987,-1105
940,8414.467579000302,8,-1204,-2370,-4208,-73,-1855,-1120
941,8423.354499000197,8,-1225,-2241,-4383,88,-1627,-1100
942,8432.179420000011,8,-1262,-2217,-4517,264,-1364,-1025
943,8441.164340000341,8,-1313,-2221,-4847,339,-1052,-908
944,8450.033260000055,8,-1374,-2190,-4664,376,-843,-758
945,8458.967179999945,8,-1428,-2167,-4646,358,-677,-616
946,8467.862101000264,8,-1536,-2153,-4695,314,-286,-466
947,8476.802021000367,8,-1579,-2135,-4748,313,-352,-329
948,8485.71894099996,8,-1546,-2040,-4799,350,-141,-198
949,8494.68386100034,8,-1565,-1911,-4743,439,86,-52
950,8503.569781000351,8,-1535,-1779,-4391,527,392,79
951,8512.622700000065,9,-1446,-1656,-4474,617,645,254
952,8521.457621000081,8,-1374,-1640,-4244,679,857,376
953,8530.358542000158,8,-1271,-1674,-4014,711,1026,498
954,8539.231462000316,8,-1221,-1717,-3818,684,1191,620
955,8548.105383000348,8,-1128,-1836,-3629,616,1296,734
956,8557.050303000324,8,-1074,-1914,-3507,544,1368,795
957,8565.827224000259,8,-980,-1955,-3368,501,1413,856
958,8574.706145000164,8,-904,-2006,-3241,497,1468,916
959,8583.486066000205,8,-808,-2065,-3113,530,1555,969
960,8592.361987000004,8,-721,-2144,-3010,550,1589,1013
961,8601.21290799998,8,-626,-2242,-2916,564,1576,1036
962,8609.971829000187,8,-554,-2378,-2849,539,1285,1053
963,8618.58475200006,8,-487,-2476,-2798,506,1480,1069
964,8627.450673000112,8,-414,-2621,-2737,460,1405,1087
965,8636.878587999945,9,-339,-2729,-2739,409,1335,1077
966,8645.679510000264,8,-338,-2972,-2761,384,1265,1057
967,8654.535431000113,8,-311,-3102,-2790,368,1225,972
968,8663.22035300027,8,-258,-3107,-2812,375,1217,842
969,8672.745268000199,9,-199,-3118,-2770,385,1200,757
970,8681.992185000126,9,-104,-3107,-2723,397,1185,700
971,8691.296102000251,9,-21,-2821,-2692,389,1142,691
972,8700.567019000118,9,-2,-2945,-2624,378,1089,689
973,8709.842936000314,9,77,-3094,-2584,345,1048,723
974,8719.081853000262,9,165,-3307,-2630,276,987,755
975,8728.339770000275,9,128,-3411,-2621,206,980,732
976,8737.628687000324,9,125,-3488,-2522,114,920,674
977,8746.800605000317,9,213,-3625,-2559,62,854,580
978,8755.96852300032,9,273,-3719,-2571,38,518,513
979,8765.05644200006,9,273,-3787,-2647,27,667,451
980,8774.84335400004,9,296,-3739,-2730,83,593,405
981,8783.722274999946,8,387,-3721,-2829,149,592,372
982,8792.658195000058,8,427,-3770,-2888,179,613,357
983,8801.52011500013,8,429,-3905,-2867,183,618,372
984,8810.54903500035,9,477,-4329,-2868,120,606,396
985,8819.3649560003,8,506,-4224,-2845,12,532,395
986,8828.249875999973,8,474,-4566,-2876,-125,440,383
987,8837.086797000211,8,470,-4743,-3053,-228,330,342
988,8845.866719000242,8,385,-4880,-3170,-297,251,259
989,8854.718640000101,8,403,-4855,-3562,-279,259,155
990,8863.494561000152,8,411,-4785,-3360,-233,339,51
991,8872.372482000173,8,436,-4721,-3393,-164,464,-42
992,8881.204403000083,8,483,-4574,-3303,-128,589,-80
993,8889.973324000039,8,566,-4451,-3215,-170,695,-110
994,8898.786245000338,8,567,-4349,-3044,-240,768,-119
995,8907.619166000131,8,637,-4317,-2850,-342,767,-101
996,8916.319088000364,8,669,-4276,-2676,-433,733,-85
997,8925.175009000213,8,682,-4230,-2545,-561,698,-76
998,8934.015929999987,8,722,-4199,-2502,-679,620,-90
999,8942.81385100021,8,687,-4248,-2455,-767,567,-149
1000,8951.954770000157,9,689,-4255,-2456,-837,516,-228
1001,8960.79269000029,8,651,-4164,-2405,-870,472,-321
1002,8969.768610000301,8,679,-3978,-2409,-865,453,-397
1003,8978.62053100016,8,661,-3689,-2387,-848,466,-547
1004,8987.517451000258,8,671,-3519,-2324,-846,496,-619
1005,8996.424372000092,8,726,-3402,-2199,-811,518,-633
