,time_ms,delta_ms,aX,aY,aZ,gX,gY,gZ
0,0.0,0,-2341,-5739,952,-94,-1019,-1822
1,10.434901999815338,10,-2371,-5407,680,-301,-1185,-2032
2,19.6328160000121,9,-2349,-4872,376,-472,-1378,-2230
3,28.881728999749612,9,-2335,-4742,185,-608,-1428,-2433
4,37.992644000041764,9,-2354,-4398,3,-732,-1427,-2556
5,47.53255499963416,9,-2497,-3881,-188,-810,-1455,-2514
6,56.800467999892135,9,-2400,-3513,-356,-905,-1470,-2311
7,66.05138099985197,9,-2286,-3241,-473,-967,-1386,-2104
8,75.23829499996282,9,-2201,-2949,-612,-995,-1273,-1862
9,84.84220499985895,9,-2197,-2779,-721,-943,-1143,-1652
10,94.1331179997178,9,-2175,-2621,-840,-880,-779,-1382
11,104.05502599996908,9,-2119,-2470,-893,-797,-848,-1170
12,112.92494300005274,8,-2051,-2356,-948,-701,-686,-882
13,121.84085899980346,8,-2000,-2195,-918,-615,-531,-618
14,130.70277599990732,8,-1915,-2016,-874,-520,-400,-319
15,139.55169299970294,8,-1891,-1874,-848,-456,-273,253
16,148.11061299997164,8,-1906,-1832,-829,-379,-186,359
17,157.25052799962214,9,-1924,-1797,-811,-23,-91,613
18,166.1634439997215,8,-2018,-1830,-819,-141,-4,839
19,176.53734699979395,10,-2062,-1846,-690,2,64,1107
20,185.3012649999073,8,-2165,-1900,-808,89,187,1502
21,194.10118299992973,8,-2269,-2130,-767,179,301,1393
22,202.84810099974493,8,-2558,-2241,-731,281,474,1487
23,211.58701900003507,8,-2511,-2355,-673,367,606,1557
24,220.46393599976,8,-2426,-2197,-403,513,696,1543
25,229.2768529996465,8,-2560,-2600,-351,637,851,1585
26,238.1167710000227,8,-2553,-2871,-298,750,973,1728
27,246.9316879996768,8,-2829,-3379,-264,879,1102,1975
28,255.78760500002318,8,-2653,-3548,-150,1025,1289,2073
29,264.82052099981956,9,-2578,-3706,31,1078,1491,1795
30,273.6564379997617,8,-2602,-3957,248,1133,1532,1936
31,282.59035399969434,8,-2505,-4301,382,1120,1446,1782
32,291.4182719996461,8,-2351,-4566,774,1142,1370,1522
33,300.3531879999173,8,-2356,-4817,992,1036,1172,1255
34,309.2301049996422,8,-2337,-5016,1115,981,954,974
35,318.1070219998219,8,-2357,-5173,1225,877,751,749
36,326.9439389996478,8,-2440,-5290,1392,697,589,512
37,335.8628559999488,8,-2465,-5559,1512,544,418,29
38,344.7477719996641,8,-2426,-5700,1621,407,232,11
39,353.6326889998236,8,-2298,-5758,1702,0,29,-231
40,362.55960599964965,8,-2148,-5779,1715,100,-495,-476
41,371.4485219998096,8,-2058,-5650,1593,-10,-694,-994
42,380.3984389996913,8,-2156,-5580,1417,-108,-1085,-1086
43,389.2163559999062,8,-2225,-5403,1017,-178,-1422,-1413
44,398.122272999899,8,-2272,-4907,693,-222,-1636,-1733
45,406.96419000005335,8,-2377,-4812,458,-277,-1728,-1968
46,415.8521069998642,8,-2537,-4535,176,-340,-1759,-2124
47,424.78802300001917,8,-2524,-4265,-9,-398,-1744,-2156
48,433.6419399996885,8,-2506,-4081,-94,-495,-1706,-2158
49,442.50685699989845,8,-2435,-3770,-176,-550,-1653,-2164
50,451.4027739996891,8,-2384,-3473,-300,-612,-1616,-2118
51,460.26969099966664,8,-2350,-3201,-412,-696,-1589,-1987
52,469.0946079999776,8,-2434,-3011,-529,-793,-1571,-1748
53,477.8595259999747,8,-2361,-2739,-957,-845,-1505,-1468
54,486.7544429998816,8,-2251,-2579,-841,-877,-1353,-1162
55,495.60436000001573,8,-2214,-2466,-961,-869,-1149,-948
56,504.42827699998816,8,-2152,-2383,-1050,-814,-961,-732
57,513.356193999698,8,-2110,-2236,-1100,-752,-718,-277
58,522.2751100000096,8,-2068,-2130,-1104,-665,-510,-278
59,531.1520269997345,8,-2030,-2024,-1054,-569,-324,-31
60,540.0309439996818,8,-2029,-1932,-1056,-409,-169,227
61,548.934860999907,8,-2079,-1966,-1079,-291,3,747
62,557.741778000036,8,-2137,-2065,-1074,-172,161,757
63,566.6926949998015,8,-2145,-2157,-1087,-77,333,912
64,575.3726129996721,8,-2322,-2336,-1105,33,517,1085
65,584.1735310000331,8,-2353,-2435,-1060,135,780,1338
66,593.0934469997737,8,-2295,-2436,-1004,219,985,1602
67,601.9343650000337,8,-2175,-2590,-735,312,1170,1800
68,610.8092819999911,8,-2628,-2415,-994,406,1328,1955
69,619.7021979996862,8,-2542,-2662,-702,424,1379,2124
70,628.3151180000459,8,-2622,-2650,-374,466,1453,2542
71,637.2690339999281,8,-2605,-2801,-159,571,1505,2446
72,646.152950999749,8,-2643,-3229,-45,704,1481,2522
73,655.0258679999388,8,-2545,-3809,116,928,1466,2444
74,663.9507840000078,8,-2576,-3887,313,1087,1471,2236
75,672.7597019998939,8,-2565,-4539,465,1481,1430,1901
76,681.7336179997255,8,-2099,-4937,851,1424,1463,1502
77,690.546534999612,8,-2299,-5603,1046,1543,1497,1014
78,699.371451999923,8,-2266,-5906,1528,1605,1411,274
79,708.5173669997857,9,-1897,-6271,1863,1583,1308,-83
80,717.3332839997784,8,-1979,-6284,1984,1406,796,-572
81,726.2662009998166,8,-2101,-6244,1998,1338,336,-915
82,735.1321179999104,8,-2101,-5945,2083,1234,-305,-1515
83,743.9890349996858,8,-2179,-5643,1794,814,-756,-1618
84,752.8969509999115,8,-2272,-5503,1403,797,-1042,-1847
85,761.774867999975,8,-2412,-5363,1079,621,-1236,-2053
86,770.6317849997504,8,-2328,-5034,886,450,-1266,-2226
87,779.4887019999805,8,-2433,-4868,701,239,-1246,-2310
88,788.2876199996645,8,-2383,-4574,646,-219,-1287,-2274
89,797.1365369999148,8,-2255,-4280,604,-272,-1360,-2212
90,805.9644549998666,8,-2239,-3965,497,-532,-1450,-2133
91,815.777363000052,9,-2238,-3818,353,-810,-1495,-2043
92,825.0452759998552,9,-2180,-3622,34,-960,-1487,-1895
93,834.2671899999914,9,-2210,-3485,153,-1043,-1462,-1743
94,843.5531029999765,9,-2203,-3251,46,-1051,-1399,-1501
95,852.7870169996277,9,-2160,-3105,-71,-781,-1048,-1270
96,862.0749299998351,9,-2076,-2943,-147,-957,-1137,-776
97,871.3248429999112,9,-1979,-2798,-204,-853,-993,-737
98,880.511757000022,9,-1941,-2310,-221,-727,-860,-504
99,889.7216709997338,9,-1873,-2299,-497,-649,-742,-190
100,898.9615839996077,9,-1957,-2124,-328,-571,-669,68
101,908.0165000000306,9,-1974,-1991,-399,-542,-574,482
102,917.8884069997366,9,-2146,-1564,-516,-508,-537,891
103,926.8133239997951,8,-2054,-1650,-596,-531,-396,1527
104,935.7612399999198,8,-2138,-1610,-713,-576,-197,1663
105,944.6821569999884,8,-2560,-1709,-800,-549,-23,1916
106,953.5420739998699,8,-2447,-1889,-884,-406,145,2075
107,962.4849899996661,8,-2468,-2202,-877,-195,443,2073
108,971.3289070000428,8,-2534,-2578,-802,69,705,1922
109,980.289823000021,8,-2496,-2798,-619,382,932,1765
110,989.1337409999323,8,-2557,-2852,-464,732,1096,1677
111,997.931657999743,8,-2423,-2951,-217,924,1269,1669
112,1006.9095740000193,8,-2399,-3119,6,1035,1345,1709
113,1015.7754909996584,8,-2461,-3297,236,1112,1313,1747
114,1024.7024079999392,8,-2477,-3818,397,1119,1230,1770
115,1033.568325000033,8,-2454,-3976,481,1065,1132,1710
116,1042.4612419997175,8,-2485,-4412,621,1043,1069,1482
117,1051.3891579998926,8,-2420,-4955,750,1070,1008,1126
118,1060.26007499986,8,-2207,-5627,995,1115,1003,668
119,1069.1199919997416,8,-2140,-5513,1289,1056,893,224
120,1077.9179099999965,8,-2070,-5596,1665,909,657,-114
121,1086.8518259999291,8,-2023,-5577,1780,716,328,-319
122,1095.7247429996642,8,-2046,-5787,1693,538,-19,-514
123,1104.651659999945,8,-2074,-5865,1700,481,-444,-644
124,1113.447576999988,8,-2073,-5838,1280,531,-694,-935
125,1122.416492999946,8,-2081,-5827,1356,439,-801,-1163
126,1131.2104109997563,8,-2081,-5668,1253,268,-941,-1373
127,1140.0223289997484,8,-2049,-5460,1168,116,-1187,-1570
128,1148.9752449997468,8,-2049,-5139,1023,-76,-1363,-1752
129,1157.725162999668,8,-2078,-4861,786,-307,-1530,-1828
130,1166.5410809996501,8,-2063,-4602,599,-609,-1645,-1876
131,1175.3909979997843,8,-2016,-4320,433,-812,-1685,-1931
132,1184.0659169997707,8,-2053,-3986,248,-983,-1691,-1948
133,1192.8688339999098,8,-2085,-3784,82,-1098,-1670,-1904
134,1201.7707509999127,8,-2081,-3525,-61,-1132,-1610,-1803
135,1210.5976679999912,8,-2123,-3242,-221,-1129,-1289,-1634
136,1219.5085849998577,8,-2105,-2939,-344,-1112,-1428,-1410
137,1228.0975049998233,8,-2122,-2750,-451,-1064,-1300,-1089
138,1237.0374209999682,8,-2064,-2587,-546,-1011,-1153,-852
139,1245.8463389998542,8,-2092,-2378,-612,-899,-992,-621
140,1254.7752549999132,8,-1989,-2111,-646,-827,-788,-385
141,1263.6491719999867,8,-1969,-1754,-661,-787,-645,-37
142,1272.5640879998537,8,-1949,-1511,-725,-782,-511,237
143,1281.3890059996993,8,-2052,-1448,-752,-731,-353,535
144,1290.2809229999548,8,-2154,-1428,-808,-642,-165,848
145,1299.1478399999323,8,-2287,-1433,-863,-533,-16,1171
146,1308.0147569999099,8,-2415,-1455,-922,-393,149,1595
147,1316.928672999893,8,-2620,-1444,-986,-212,360,1938
148,1325.7655909997084,8,-2678,-1565,-948,-86,703,2212
149,1334.7215069998128,8,-2816,-1865,-890,85,989,2412
150,1343.546423999669,8,-2938,-2145,-717,316,1225,2602
151,1352.5313400000414,8,-3093,-2356,-555,640,1391,2749
152,1361.3472580000234,8,-3152,-2624,-396,834,1569,2836
153,1370.2721739996377,8,-3165,-3079,-3,1024,1723,2808
154,1379.1550910000296,8,-3328,-3478,35,1195,1866,2640
155,1387.9610089998096,8,-3025,-3925,368,1422,1946,2409
156,1396.8419259999791,8,-2883,-4564,769,1554,1947,2158
157,1405.6508429998757,8,-2764,-4802,1131,1633,1829,1936
158,1414.4377610000447,8,-2692,-5152,1838,1627,1618,1634
159,1423.3536769997954,8,-2676,-5465,1777,1574,1092,1388
160,1432.1735949997674,8,-2681,-6077,1887,1436,1023,1117
161,1441.0265120000076,8,-2572,-6205,2119,1327,786,764
162,1449.83443000001,8,-2475,-6527,2245,1213,570,294
163,1458.5803479999413,8,-2370,-6588,2342,803,277,-111
164,1467.5312639997173,8,-2280,-6512,2350,722,-69,-557
165,1476.2851819996285,8,-2278,-6487,2225,362,-613,-1236
166,1485.0570999997217,8,-2280,-6229,1973,-54,-1049,-1404
167,1493.932016999679,8,-2423,-5876,1541,-765,-1459,-1893
168,1502.6989349998985,8,-2591,-5454,1153,-1193,-1772,-2177
169,1511.4488529998198,8,-2685,-4988,802,-1397,-1953,-2361
170,1520.3607700000248,8,-2757,-4524,415,-1671,-2068,-2449
171,1529.1326879996632,8,-2801,-4201,153,-1815,-2052,-2525
172,1537.958604999858,8,-2735,-3818,-49,-1882,-1985,-2543
173,1546.808521999992,8,-2730,-3428,-198,-1841,-1932,-2475
174,1555.6314399996154,8,-2691,-3042,-378,-1764,-1851,-2300
175,1564.4203570000172,8,-2612,-2640,-553,-1666,-1750,-1807
176,1573.3072739999443,8,-2526,-2404,-737,-1300,-1594,-1748
177,1582.1541919999618,8,-2551,-2274,-889,-1333,-1428,-1460
178,1591.0451079998893,8,-2501,-2114,-985,-1163,-1253,-1180
179,1599.8860259996945,8,-2399,-1895,-1052,-1008,-989,-942
180,1609.1799389996595,9,-2050,-1714,-1057,-863,-767,-714
181,1618.6938499999997,9,-2258,-1530,-1029,-517,-515,-494
182,1628.079761999743,9,-2216,-1365,-924,-659,-348,-249
183,1637.2976759998892,9,-2244,-1189,-924,-561,-183,153
184,1646.5355889999955,9,-2260,-1100,-915,-409,-73,539
185,1655.8545019997837,9,-2324,-1093,-962,-279,82,1204
186,1665.0414159998945,9,-2373,-1098,-991,-150,277,1447
187,1674.2493299998387,9,-2509,-1146,-960,24,736,2043
188,1683.5232429998541,9,-2667,-1270,-936,182,696,2138
189,1692.7231569998185,9,-2742,-1734,-865,378,879,2332
190,1701.982069999758,9,-2936,-1808,-529,592,1091,2523
191,1711.7499789997055,9,-3093,-2274,-656,858,1241,2659
192,1724.4388599997365,12,-3161,-2638,-454,1330,1456,2728
193,1733.2447779999711,8,-3215,-3271,-271,1623,1646,2670
194,1741.9556959998772,8,-3100,-3540,239,1873,1825,2466
195,1750.9646119997342,9,-2832,-3956,359,2071,1939,2247
196,1759.7775289996207,8,-2977,-4606,734,2207,2006,1968
197,1768.6244469996382,8,-3020,-5096,1124,2195,2044,1670
198,1777.5963629997023,8,-2852,-5799,1575,2189,2052,1268
199,1786.4532799999324,8,-2713,-6457,2165,2138,1986,855
200,1795.3641959998095,8,-2280,-7185,2766,1976,1719,338
201,1804.214113999933,8,-2091,-7403,2929,1770,1137,-502
202,1813.111029999618,8,-2101,-7454,2990,1429,460,-1004
203,1821.9949469998937,8,-2161,-7205,2747,993,-253,-1541
204,1831.0778619998018,9,-2327,-6832,2166,98,-1110,-2061
205,1841.192767999928,10,-2559,-5955,1562,-268,-1630,-2338
206,1849.9896859998444,8,-2788,-5767,1001,-704,-1967,-2508
207,1858.7366039996596,8,-2703,-5077,347,-1085,-2136,-2587
208,1867.6685199998246,8,-2736,-4570,224,-1432,-2168,-2579
209,1876.4604379998673,8,-2769,-4092,84,-1698,-2140,-2589
210,1885.3403549996983,8,-2653,-3375,-42,-1961,-2080,-2592
211,1894.156271999691,8,-2597,-3116,-177,-2050,-1975,-2543
212,1902.9921899996225,8,-2582,-2885,-358,-2077,-1886,-2420
213,1911.9311059998836,8,-2584,-2702,-628,-1960,-1792,-2250
214,1920.7910229997651,8,-2540,-2434,-779,-1694,-1687,-2003
215,1929.6979399996417,8,-2434,-2118,-935,-1477,-1483,-1681
216,1938.6278560000392,8,-2461,-2038,-1030,-1275,-1306,-1146
217,1947.529773000042,8,-2232,-1663,-1111,-1114,-823,-810
218,1956.3916899996912,8,-2212,-1562,-1158,-920,-856,-269
219,1965.3486069996688,8,-2137,-1331,-1127,-740,-597,-235
220,1974.191523999707,8,-2180,-1171,-1086,-589,-430,107
221,1983.238438999706,9,-2190,-776,-1090,-386,-302,411
222,1992.0743569996375,8,-2250,-974,-1120,-203,-157,992
223,2001.037272999838,8,-2321,-976,-1140,-21,33,1163
224,2009.9401889997353,8,-2380,-1024,-1158,160,227,1540
225,2018.8481059999503,8,-2539,-1121,-1156,357,430,1888
226,2027.7350229998774,8,-2717,-1468,-1180,494,691,2202
227,2036.604939999961,8,-2835,-1471,-1134,641,889,2556
228,2045.4748570000447,8,-3196,-1800,-1210,792,1078,2823
229,2054.421772999831,8,-3189,-2086,-1095,1002,1327,2956
230,2063.319689999844,8,-3219,-2614,-892,1270,1660,2940
231,2072.249606999776,8,-3224,-2978,-261,1573,1862,2849
232,2081.142522999926,8,-3223,-3275,-62,1828,1953,2780
233,2089.9494410000443,8,-3216,-3707,267,2038,1963,2676
234,2098.9073569999164,8,-3304,-4430,552,2105,1898,2499
235,2107.7082749998226,8,-3286,-4986,816,2133,1820,2133
236,2116.5381920000073,8,-3231,-5294,1234,2113,1749,1783
237,2125.530108000021,8,-3108,-6096,1599,2020,1659,1438
238,2134.36802599972,8,-2997,-6243,2278,1864,1502,811
239,2143.295941999895,8,-2819,-6476,2445,1655,1233,592
240,2152.111859999877,8,-2667,-6614,2622,1399,811,197
241,2160.9257769996475,8,-2495,-6542,2647,962,45,-236
242,2169.7336949996497,8,-2512,-6383,2435,534,-473,-943
243,2178.4666129997277,8,-2546,-6030,2143,89,-855,-1092
244,2187.2945309996794,8,-2624,-5598,1634,-336,-1280,-1533
245,2196.1384479996013,8,-2978,-5124,1179,-961,-1623,-1738
246,2204.947365999942,8,-2879,-4364,748,-1113,-1813,-1852
247,2213.795282999854,8,-3179,-4215,467,-1450,-1935,-1875
248,2222.5262009997095,8,-2863,-3704,103,-1663,-1901,-1933
249,2231.451117999768,8,-2868,-3386,-179,-1796,-1836,-1956
250,2240.3150349996395,8,-2714,-2832,-286,-1805,-1745,-1959
251,2249.03795299997,8,-2590,-2756,-390,-1733,-1552,-1959
252,2257.8708709997954,8,-2565,-2534,-480,-1571,-1388,-1931
253,2266.8217870000262,8,-2599,-2375,-599,-1380,-1248,-1841
254,2275.659703999736,8,-2545,-2248,-717,-1078,-1109,-1714
255,2284.606619999977,8,-2609,-2203,-801,-832,-960,-1500
256,2293.4535379999943,8,-2612,-2129,-870,-571,-844,-1158
257,2302.4704529998417,9,-2660,-2044,-985,-336,-716,-849
258,2311.324370999955,8,-2485,-1936,-1009,-138,-293,-562
259,2320.280286999605,8,-2459,-1818,-1012,-55,-343,-54
260,2329.2032029999064,8,-2425,-1771,-997,7,-201,-19
261,2338.063119999788,8,-2404,-1705,-958,46,-68,187
262,2346.956036999927,8,-2464,-1730,-946,117,29,412
263,2355.8899539998492,8,-2444,-1742,-898,194,168,632
264,2364.770871000019,8,-2531,-1813,-877,293,272,910
265,2373.620787999698,8,-2609,-1826,-867,410,396,1155
266,2382.567703999939,8,-2637,-1854,-817,542,552,1391
267,2391.3996219998808,8,-2830,-2012,-817,644,759,1635
268,2400.4145369999605,9,-2880,-2116,-741,734,927,1940
269,2409.2014549996748,8,-3020,-2255,-600,824,1086,2138
270,2417.9413729998487,8,-3133,-2484,-467,923,1228,2336
271,2427.9512799998884,10,-3339,-2683,-300,1004,1534,2493
272,2437.264192999919,9,-3456,-2973,-169,1062,1320,2647
273,2446.59710499991,9,-3706,-3330,-137,1153,1323,2776
274,2455.794018999768,9,-3453,-3471,104,1083,1363,2803
275,2464.8929339996357,9,-3203,-3847,401,1021,1474,2521
276,2474.324845999945,9,-3014,-4575,708,992,1527,2167
277,2483.5017599998537,9,-2855,-4771,1108,977,1457,1680
278,2492.794672999935,9,-2833,-5150,1457,901,1044,1263
279,2502.0515869996416,9,-2906,-5613,1731,804,994,642
280,2511.289499999748,9,-2722,-6053,2117,656,758,119
281,2521.161407999898,9,-2734,-6210,2557,425,329,-662
282,2530.0393249999615,8,-2482,-6219,2547,12,-74,-1117
283,2539.0152410000155,8,-2551,-5707,2406,121,-744,-1656
284,2547.78215899978,8,-2574,-5563,2193,23,-1202,-2103
285,2556.5350769998076,8,-2596,-5033,1602,-118,-1408,-2477
286,2565.4549939999924,8,-2653,-4645,1313,-267,-1656,-2797
287,2574.20791200002,8,-2833,-4375,940,-393,-1821,-2958
288,2583.136827999624,8,-3064,-4205,554,-547,-1904,-3063
289,2591.8827460000102,8,-3164,-3971,210,-580,-1962,-3047
290,2600.646663999669,8,-3326,-3674,-22,-598,-1993,-2764
291,2609.558580999874,8,-3262,-3250,-316,-672,-1996,-2407
292,2618.3254989996385,8,-3128,-2901,-547,-844,-1925,-2061
293,2627.1004169998378,8,-2968,-2692,-710,-1004,-1739,-1770
294,2636.0023339998406,8,-2791,-2570,-882,-1107,-1528,-1301
295,2644.797251,8,-2794,-2403,-944,-1135,-1328,-1405
296,2653.716167999846,8,-2681,-2294,-989,-1105,-1122,-1275
297,2662.5770849996115,8,-2622,-2164,-991,-1003,-939,-1107
298,2671.4200019996497,8,-2637,-2038,-998,-853,-734,-880
299,2680.3139189996728,8,-2309,-1922,-1039,-708,-587,-530
300,2689.174835999893,8,-2516,-1876,-1068,-569,-422,-189
301,2698.0527529999563,8,-2531,-1893,-1090,-406,-218,454
302,2706.8926709998777,8,-2427,-1728,-1080,-29,62,638
303,2716.4915809999,9,-2482,-1744,-1066,-136,275,893
304,2725.4364969999187,8,-2594,-1848,-1053,-31,496,1087
305,2734.3434139997953,8,-2604,-1892,-974,56,642,1230
306,2743.3113299998695,8,-2697,-1956,-826,130,745,1337
307,2752.1262479999677,8,-2753,-2114,-730,232,828,1492
308,2760.7961659996363,8,-2745,-2154,-665,331,930,1696
309,2769.7030829999676,8,-2940,-2222,-612,418,1036,1939
310,2778.486000999692,8,-2975,-2309,-522,512,1138,2245
311,2787.317917999644,8,-2962,-2770,-361,602,1253,2437
312,2796.270834999632,8,-3037,-2681,-268,712,1294,2549
313,2805.11375199967,8,-2938,-2890,-41,769,1381,2527
314,2814.029668999865,8,-3040,-3138,112,820,1403,2407
315,2822.8275859996756,8,-2960,-3391,358,851,1401,2250
316,2831.7485029997442,8,-2920,-4009,539,839,1390,2026
317,2840.607419999742,8,-2836,-4113,983,911,1290,1748
318,2849.468336999962,8,-2876,-4386,954,932,1184,1390
319,2858.2192559997566,8,-2857,-4621,1108,923,1056,1124
320,2867.091172999608,8,-2791,-4761,1236,855,882,864
321,2875.96609000002,8,-2767,-4901,1316,776,606,597
322,2884.810006999942,8,-2737,-5044,1392,726,374,196
323,2893.5739249996004,8,-2750,-5163,1431,732,141,-163
324,2902.44684199979,8,-2754,-5289,1474,676,-48,-545
325,2911.3007589999143,8,-2700,-5322,1404,618,-276,-1196
326,2920.1016769998205,8,-2811,-5328,1379,515,-455,-1321
327,2928.9915939998536,8,-2845,-5171,1326,388,-704,-1680
328,2937.78451199978,8,-2934,-4964,1255,173,-1257,-1861
329,2946.5334299998176,8,-2721,-4757,1102,-64,-1222,-2298
330,2955.511345999639,8,-2722,-4570,856,-199,-1409,-2211
331,2964.280263999626,8,-2757,-4334,682,-309,-1534,-2412
332,2973.152180999932,8,-2837,-4217,411,-407,-1602,-2521
333,2981.979099,8,-2938,-4071,213,-502,-1644,-2547
334,2990.7510169996385,8,-2967,-3639,-234,-597,-1693,-2464
335,2999.7429319996627,8,-2804,-3419,-85,-719,-1650,-2239
336,3008.516849999978,8,-2847,-3297,-226,-859,-1572,-1998
337,3017.3637679999956,8,-2708,-3231,-310,-1112,-1484,-1692
338,3026.2836839997362,8,-2686,-2806,-428,-1339,-1385,-1464
339,3035.1846009998553,8,-2610,-2566,-562,-1546,-1324,-1249
340,3044.10051800005,8,-2510,-2418,-703,-1654,-1234,-1091
341,3052.9944349996185,8,-2445,-2273,-757,-1616,-1118,-949
342,3061.8893509999907,8,-2379,-2096,-790,-1453,-912,-810
343,3070.855267999832,8,-2357,-1940,-849,-1211,-756,-576
344,3079.70618499985,8,-2422,-1772,-932,-963,-646,-292
345,3088.557101999868,8,-2463,-1620,-1031,-668,-285,54
346,3097.5520179999876,8,-2446,-1445,-1132,-446,-358,409
347,3106.3879349999297,8,-2470,-1439,-1170,-10,-161,834
348,3115.3408519999175,8,-2505,-1428,-1246,-34,37,1137
349,3124.1627689996676,8,-2589,-1358,-1212,146,302,1395
350,3133.125684999868,8,-2691,-1369,-1136,310,500,1647
351,3142.020601999775,8,-2753,-1498,-1037,738,692,1947
352,3150.9415189998435,8,-2906,-1660,-948,712,885,2161
353,3159.772435999912,8,-2999,-1804,-840,885,1068,2318
354,3168.5863539996717,8,-3080,-2130,-529,1104,1298,2370
355,3177.501270999983,8,-3292,-2526,-590,1312,1436,2518
356,3186.4351869999155,8,-3217,-2822,-347,1543,1622,2525
357,3195.3191039997364,8,-3324,-3230,-7,1714,1842,2478
358,3204.1430219996982,8,-3295,-3676,296,1857,1938,2447
359,3212.9279389996555,8,-2664,-3857,547,1948,2018,2208
360,3221.7568569999457,8,-3184,-4518,1014,1942,2008,1998
361,3231.242767999902,9,-2946,-4819,1353,1854,1866,1613
362,3240.498681999725,9,-2969,-5147,1700,1713,1659,1250
363,3249.8035949997757,9,-2836,-5512,1900,1573,1314,593
364,3259.03150799968,9,-2775,-5659,2105,1401,993,285
365,3268.01042399984,8,-2906,-5452,2258,1075,422,-273
366,3277.5333350000437,9,-2674,-5762,2225,620,-15,-567
367,3286.7242489996897,9,-2706,-5731,2066,382,-260,-867
368,3295.874163999997,9,-2751,-5377,1847,378,-665,-1226
369,3305.0660779999816,9,-2580,-4934,1545,146,-1205,-1483
370,3314.2219919996023,9,-2944,-4448,1249,-339,-1337,-1644
371,3323.445905999961,9,-2911,-4350,883,-677,-1557,-1816
372,3333.3268139999745,9,-2883,-4095,607,-886,-1671,-1910
373,3342.1817309999824,8,-2832,-3806,396,-961,-1648,-1990
374,3351.1546469999303,8,-2858,-3466,167,-1046,-1620,-2005
375,3359.9555649998365,8,-2839,-3085,33,-1092,-1582,-1937
376,3368.9274809999006,8,-2889,-3162,-92,-1068,-1518,-1568
377,3377.742398999999,8,-2842,-3005,-507,-952,-1440,-1639
378,3386.596315999668,8,-2796,-2767,-449,-546,-1314,-1459
379,3395.5352319999292,8,-2719,-2333,-568,-609,-1174,-1249
380,3404.363149999881,8,-2687,-2483,-674,-461,-986,-771
381,3413.253066999914,8,-2593,-2240,-775,-312,-844,-780
382,3422.086983999634,8,-2593,-2157,-851,-181,-714,-599
383,3430.8469019997574,8,-2594,-2022,-982,-31,-596,-404
384,3439.719818999947,8,-2557,-1881,-1045,40,-457,-191
385,3448.4657369998786,8,-2595,-1820,-1115,87,-261,28
386,3457.1996559998297,8,-2606,-1737,-1136,131,-68,368
387,3466.115572000035,8,-2611,-1772,-1173,180,122,621
388,3474.8424909998903,8,-2653,-1760,-1135,273,318,842
389,3483.7004080000042,8,-2684,-1744,-1090,346,583,1084
390,3492.5093259998903,8,-2751,-1640,-782,374,797,1358
391,3501.2772439999935,8,-2698,-1652,-913,295,1058,1600
392,3510.0281619997986,8,-2928,-1869,-764,267,1235,1810
393,3518.885079000029,8,-3019,-2113,-642,378,1342,1976
394,3527.64299699993,8,-3163,-2332,-295,481,1478,2099
395,3536.515913999665,8,-3167,-2597,-355,600,1623,2169
396,3545.4008309998244,8,-3207,-2825,-159,723,1746,2120
397,3554.3307479997566,8,-3333,-3223,89,879,1838,2036
398,3563.2136649996937,8,-3204,-3583,736,973,1927,1882
399,3572.0535819996257,8,-3089,-3428,837,1027,1956,1564
400,3580.946498999765,8,-3137,-4180,1285,1003,1898,1395
401,3589.7524160000103,8,-3030,-4264,1594,955,1732,1199
402,3598.614333999649,8,-3156,-4570,1866,807,1229,895
403,3607.520249999652,8,-3403,-4864,2252,405,518,478
404,3616.3571679999222,8,-3031,-5023,2465,-238,103,187
405,3625.2400849998594,8,-2761,-5440,2447,-79,-10,-123
406,3634.1260019999027,8,-2649,-5655,2469,83,-82,-755
407,3642.9419189998953,8,-2711,-5646,2162,328,-239,-956
408,3651.8878349997976,8,-2893,-5335,1986,517,-574,-1258
409,3660.677752999618,8,-2963,-4972,1810,502,-899,-1495
410,3669.6626689999903,8,-3109,-4522,1486,141,-1412,-1660
411,3678.450587000043,8,-3121,-4439,1102,-359,-1787,-1796
412,3687.2965039997325,8,-3021,-4275,775,-982,-1967,-1926
413,3696.232420999877,8,-3023,-4094,515,-866,-2001,-2035
414,3705.026338999687,8,-2997,-3733,235,-897,-1965,-2129
415,3714.663248999841,9,-2949,-3267,-22,-1271,-1927,-2144
416,3723.529165999935,8,-3020,-3016,-225,-1217,-1912,-2082
417,3732.4810820000494,8,-3041,-2799,-422,-1259,-1866,-1903
418,3741.3609989998804,8,-2919,-2570,-663,-1230,-1724,-1597
419,3750.2909159998126,8,-2873,-2427,-835,-1148,-1541,-1322
420,3759.058833999916,8,-2789,-2258,-978,-1022,-1347,-1022
421,3767.9227509997872,8,-2735,-2084,-1136,-947,-1109,-740
422,3776.6246689998297,8,-2601,-1935,-1206,-868,-905,-507
423,3785.57958600004,8,-2531,-1837,-1222,-767,-697,-360
424,3794.3475039996883,8,-2507,-1694,-1233,-605,-501,-182
425,3803.2474209999236,8,-2480,-1586,-1239,-492,-284,24
426,3812.114337999901,8,-2529,-1593,-1247,-345,-126,344
427,3821.0172539997984,8,-2686,-1599,-1332,-167,20,660
428,3829.778172999795,8,-2639,-1553,-1341,-16,481,955
429,3838.647089999995,8,-2721,-1585,-1324,117,525,1487
430,3847.5470069997755,8,-2782,-1635,-1264,249,789,1552
431,3856.437922999703,8,-2904,-1703,-1117,369,986,1801
432,3865.353839999898,8,-2939,-1793,-970,483,1140,2017
433,3874.1797579996273,8,-2977,-1898,-801,559,1367,2165
434,3883.134673999848,8,-3118,-2242,-598,666,1498,2292
435,3891.9765910000024,8,-3232,-2617,-417,814,1583,2303
436,3900.850507999621,8,-3233,-3246,-169,971,1672,2190
437,3909.6804259997953,8,-3213,-3468,121,1085,1766,2003
438,3918.5133429996313,8,-3147,-4063,516,1146,1848,1730
439,3927.386259999821,8,-3085,-4658,1144,1122,1883,1330
440,3936.28717699994,8,-2996,-5313,1662,962,1833,988
441,3945.08909499973,8,-2996,-5597,2133,743,1561,657
442,3954.0500109997083,8,-2962,-5573,2468,486,1196,356
443,3962.859928999933,8,-2936,-5744,2707,237,663,-4
444,3971.817844999805,8,-2861,-5904,2961,-137,-212,-352
445,3980.6597629999487,8,-2564,-5999,2691,-104,-163,-786
446,3989.5816789999117,8,-2768,-5539,2385,-64,-648,-1455
447,3998.4765959998185,8,-3027,-5277,2098,-316,-1181,-1552
448,4007.2955139999067,8,-2935,-4936,1643,-532,-1566,-1742
449,4016.322428999956,9,-3080,-4580,1182,-667,-1871,-1882
450,4025.135346999832,8,-2947,-4303,544,-708,-1954,-2058
451,4034.868255999754,9,-2941,-3662,346,-749,-1987,-2177
452,4044.2391679998764,9,-2971,-3525,48,-799,-2013,-2219
453,4053.5410819998106,9,-2998,-3172,-177,-872,-2011,-2209
454,4062.8309949997856,9,-2965,-2913,-440,-873,-1972,-2112
455,4072.0639080000183,9,-2931,-2727,-621,-838,-1894,-2007
456,4081.259822999982,9,-2880,-2567,-1023,-757,-1743,-1805
457,4090.5127359997095,9,-2912,-2433,-915,-646,-1582,-1571
458,4099.758649999785,9,-2833,-2265,-1075,-481,-1363,-1030
459,4109.009562999745,9,-2749,-2084,-1207,-397,-1118,-932
460,4118.252476999714,9,-2631,-1988,-1259,-345,-853,-694
461,4127.341391999835,9,-2544,-1908,-1223,-302,-544,-450
462,4137.15830000001,9,-2507,-1875,-1167,-237,-337,-253
463,4146.067216999654,8,-2462,-1874,-1114,-161,-104,218
464,4154.916133999905,8,-2426,-1885,-1061,-50,59,243
465,4163.684052000008,8,-2381,-1820,-1068,62,214,466
466,4172.544968999773,8,-2562,-1896,-1074,205,333,685
467,4181.32588699973,8,-2498,-1895,-1064,272,503,888
468,4190.168804999757,8,-2566,-1993,-1020,327,663,1084
469,4198.96472299979,8,-2573,-2062,-908,392,822,1332
470,4207.785639999656,8,-2815,-2111,-818,464,1254,1488
471,4216.595557999881,8,-2688,-2545,-732,558,1182,1613
472,4225.538473999677,8,-2747,-2342,-629,658,1360,1735
473,4234.368391999851,8,-2849,-2505,-508,712,1463,1880
474,4243.263308999758,8,-3034,-2803,-405,823,1512,1979
475,4252.126225999746,8,-2914,-3176,-214,951,1594,1947
476,4261.041141999613,8,-2976,-3602,235,1061,1673,1544
477,4269.885059999979,8,-2848,-3867,348,1157,1683,1567
478,4278.717976999815,8,-2753,-4277,675,1233,1637,1341
479,4287.460895999629,8,-2704,-4630,995,1306,1304,1032
480,4296.369811999739,8,-2897,-5153,1488,1304,1427,355
481,4305.1687299998775,8,-2543,-5668,1990,1273,1363,2
482,4314.295644999675,9,-2709,-5675,2289,1186,1142,-566
483,4323.278560999825,8,-2543,-5912,2782,1005,852,-1001
484,4332.150477999676,8,-2413,-6029,3003,778,542,-886
485,4341.155393999998,9,-2366,-5816,2924,572,-24,-1013
486,4350.022310999975,8,-2450,-5720,2583,268,-922,-1208
487,4358.917227999882,8,-2464,-5361,2171,-10,-1372,-1409
488,4367.813144999673,8,-2663,-5078,1568,-321,-1807,-1604
489,4376.738060999742,8,-2753,-4768,1056,-678,-2127,-1725
490,4385.598977999962,8,-2771,-4156,645,-1038,-2308,-1849
491,4394.597893999617,8,-2752,-3901,313,-1274,-2370,-1919
492,4403.470810999806,8,-2802,-3568,9,-1461,-2342,-1914
493,4412.372727999809,8,-2758,-3422,9,-1439,-2190,-1819
494,4421.258644999853,8,-2674,-2954,-386,-1267,-1900,-1750
495,4430.055562999769,8,-2704,-2718,-626,-1249,-1712,-1662
496,4439.024478999727,8,-2679,-2482,-767,-1207,-1511,-1484
497,4447.848396999689,8,-2719,-2377,-871,-1163,-1354,-1272
498,4456.757312999798,8,-2693,-2242,-921,-1034,-1205,-1070
499,4465.600230999826,8,-2625,-2065,-992,-851,-933,-839
500,4474.371149000035,8,-2514,-2009,-1026,-667,-700,-522
501,4483.319064999705,8,-2465,-1827,-1059,-494,-481,-310
502,4492.086982999808,8,-2388,-1743,-1016,-327,-12,-86
503,4500.947901000018,8,-2381,-1773,-958,-213,-86,143
504,4509.777817999748,8,-2349,-1791,-927,-77,37,360
505,4518.539735999639,8,-2322,-1933,-883,76,190,598
506,4527.395652999985,8,-2378,-1998,-822,257,343,788
507,4536.184570999922,8,-2405,-2299,-770,357,466,987
508,4544.873489999645,8,-2447,-2139,-727,436,606,1194
509,4553.6554079999405,8,-2474,-2255,-668,496,750,1432
510,4562.514324999938,8,-2544,-2416,-598,559,911,1591
511,4571.328242999698,8,-2739,-2597,-570,671,1050,1742
512,4580.095160999917,8,-2737,-2748,-473,759,1156,1874
513,4588.9820779998445,8,-2683,-3019,-56,844,1351,1891
514,4597.791995999614,8,-2656,-3301,12,955,1476,1828
515,4606.564914000046,8,-2654,-3513,357,1271,1515,1755
516,4615.454829999635,8,-2613,-3752,680,1031,1501,1642
517,4624.263747999976,8,-2655,-3996,1205,1003,1380,1517
518,4633.187664999696,8,-2744,-4313,1451,983,1231,1390
519,4642.090582000037,8,-2791,-4777,1597,964,1100,1223
520,4651.012498,8,-2706,-5575,1889,939,972,990
521,4659.81841599978,8,-2505,-6021,2082,1026,754,641
522,4668.6283340000045,8,-2278,-6472,2508,1129,573,24
523,4677.526250000028,8,-2089,-6639,2777,1124,300,-534
524,4686.4481669999805,8,-2128,-6514,2711,915,-397,-1042
525,4695.354083999973,8,-2351,-6064,2445,607,-873,-1443
526,4704.211000999749,8,-2445,-5810,2036,159,-1396,-1837
527,4713.73591199972,9,-2538,-5217,1372,-367,-1998,-2062
528,4722.626828999637,8,-2649,-4797,929,-684,-1998,-2190
529,4731.483745999867,8,-2707,-4353,469,-941,-2064,-2226
530,4740.408662999926,8,-2665,-3972,194,-1190,-2028,-2179
531,4749.567576999652,9,-2620,-3462,-32,-1324,-1898,-2119
532,4758.43849399962,8,-2561,-3135,-209,-1411,-1772,-2037
533,4767.293411999617,8,-2532,-2887,-397,-1437,-1635,-1934
534,4776.218327999686,8,-2529,-2754,-561,-1410,-1503,-1816
535,4785.1142449999315,8,-2504,-2576,-677,-1286,-1328,-1656
536,4793.8691629997265,8,-2479,-2430,-773,-1126,-1167,-1461
537,4802.657080999779,8,-2446,-2299,-828,-977,-987,-1158
538,4811.409998999807,8,-2363,-2153,-824,-820,-790,-912
539,4820.264916999804,8,-2259,-1799,-792,-644,-601,-658
540,4829.096833999756,8,-2201,-1867,-760,-489,-407,-417
541,4837.684753999838,8,-2186,-1734,-703,-326,-271,-90
542,4847.255664999921,9,-2148,-1628,-646,-129,-95,174
543,4856.5425779997895,9,-2190,-1617,-627,25,16,524
544,4865.804490999835,9,-2247,-1636,-605,201,145,773
545,4875.099403999684,9,-2307,-1775,-582,301,340,1065
546,4884.277318999921,9,-2340,-1851,-504,356,764,1272
547,4893.496232999951,9,-2439,-1896,-432,401,698,1747
548,4902.75514599989,9,-2505,-1974,-350,430,816,1818
549,4911.968059999708,9,-2614,-2293,-247,467,993,2275
550,4926.52892399974,14,-2823,-2528,-169,482,1057,2505
551,4935.610838999764,9,-3009,-2607,-136,579,1164,2710
552,4945.225748999746,9,-3144,-2858,-69,752,1238,2830
553,4954.0346669996325,8,-3172,-3463,146,864,1360,2760
554,4962.75958599972,8,-3174,-3732,145,1032,1569,2557
555,4971.7015019996325,8,-3142,-3977,391,1150,1659,2217
556,4980.42642099972,8,-3025,-4224,630,1183,1707,1961
557,4989.172338999651,8,-3094,-4835,857,1148,1655,1745
558,4997.913256999709,8,-3440,-4795,763,1170,1456,1301
559,5006.728174999807,8,-2874,-5260,1379,1004,1257,1069
560,5015.583091999815,8,-2776,-5601,1718,824,1107,982
561,5024.292010999943,8,-2746,-5761,1894,666,858,690
562,5033.19492799983,8,-2711,-5884,2098,461,281,392
563,5042.062844999691,8,-2598,-5938,2150,295,95,-201
564,5050.940761999755,8,-2537,-5930,2014,169,-249,-365
565,5059.701679999762,8,-2700,-5832,1896,-235,-601,-769
566,5068.506597999658,8,-2439,-5763,1682,-120,-839,-1211
567,5077.281515999857,8,-2607,-5601,1459,-245,-1102,-1617
568,5086.2004329997035,8,-2718,-5032,1186,-390,-1418,-1926
569,5095.023349999792,8,-2750,-4626,903,-768,-1692,-2167
570,5103.941266999755,8,-3033,-4298,627,-680,-1839,-2285
571,5112.82118400004,8,-2888,-3998,320,-790,-1898,-2350
572,5121.74910099975,8,-2991,-3652,-240,-849,-1911,-2303
573,5130.584017999809,8,-3049,-3355,-264,-864,-1895,-2117
574,5139.476934999948,8,-2981,-3071,-426,-903,-1776,-1991
575,5148.306852999667,8,-2851,-2601,-546,-906,-1549,-1899
576,5157.196768999711,8,-2801,-2612,-567,-881,-1354,-1790
577,5166.1246859998755,8,-2746,-2346,-596,-861,-1220,-1586
578,5174.945603999731,8,-2654,-2143,-608,-832,-1111,-1388
579,5183.9095199998155,8,-2577,-2039,-665,-792,-988,-1175
580,5192.724437999914,8,-2584,-1947,-719,-733,-818,-948
581,5201.674353999806,8,-2497,-1890,-756,-648,-660,-671
582,5210.4882720000205,8,-2464,-1821,-762,-512,-480,-448
583,5219.32618899973,8,-2452,-1739,-752,-398,-315,-209
584,5228.198106000036,8,-2437,-1677,-759,-292,-109,14
585,5237.037023999619,8,-2432,-1696,-720,-189,46,303
586,5245.933940999748,8,-2431,-1691,-758,-26,207,551
587,5254.812857999696,8,-2538,-1632,-839,106,362,796
588,5263.598775999981,8,-2660,-1703,-904,214,657,1066
589,5272.574692000035,8,-2729,-1774,-912,262,959,1460
590,5281.358609999643,8,-2897,-1878,-843,254,1219,1863
591,5290.162526999666,8,-3115,-1861,-692,215,1362,2290
592,5298.986444999628,8,-3189,-2162,-655,258,1423,2711
593,5307.518364999851,8,-3155,-2509,-432,336,1543,2957
594,5316.385282999818,8,-3215,-2725,-198,728,1646,2990
595,5325.241199999709,8,-3129,-2902,-44,989,1684,2848
596,5334.028117999878,8,-3017,-3421,254,962,1619,2685
597,5342.716036999718,8,-2984,-4085,520,1148,1564,2419
598,5351.464954999756,8,-2992,-4221,797,1304,1460,2136
599,5360.357871999895,8,-2963,-4556,1082,1355,1339,1771
600,5369.209788999797,8,-2973,-4938,1331,1356,1211,1477
601,5377.96170699994,8,-2981,-5170,1516,1268,794,1157
602,5386.928623999665,8,-3032,-5501,1797,1185,813,855
603,5395.7425409998905,8,-2728,-5618,2091,1086,634,391
604,5404.658457999631,8,-2591,-5931,2261,963,359,43
605,5413.481375999709,8,-2652,-5931,2345,761,-243,-650
606,5422.413291999874,8,-2594,-5823,2270,517,-433,-896
607,5431.3372090000485,8,-2681,-5697,1991,28,-838,-1470
608,5440.227125999627,8,-3071,-5161,1699,-28,-1489,-1825
609,5449.124042999756,8,-2886,-4901,1382,-289,-1600,-2302
610,5457.980959999986,8,-2876,-4547,814,-550,-1767,-2207
611,5466.938875999858,8,-3304,-4110,617,-793,-1874,-2316
612,5475.788793999982,8,-3079,-3717,260,-1038,-1937,-2314
613,5484.8007089999555,9,-3056,-3297,-16,-1204,-1879,-2267
614,5493.670627000029,8,-3015,-3003,-510,-1285,-1767,-2183
615,5502.687541999876,9,-2933,-2725,-426,-1323,-1638,-2087
616,5511.52146000004,8,-2859,-2506,-548,-1306,-1520,-1951
617,5520.46937599971,8,-2839,-2238,-654,-1246,-1406,-1770
618,5529.383292999682,8,-2822,-2086,-817,-1155,-1302,-1478
619,5538.249209999776,8,-2582,-1922,-935,-1024,-1171,-1171
620,5547.151126999779,8,-2797,-1759,-1075,-828,-980,-575
621,5556.096042999798,8,-2665,-1624,-1118,-645,-641,-259
622,5564.928960999623,8,-2611,-1498,-1082,-433,-351,-190
623,5573.832877999848,8,-2603,-1432,-1024,-239,-108,29
624,5582.701795000048,8,-2600,-1423,-948,-18,69,268
625,5591.488712999762,8,-2599,-1537,-849,131,284,745
626,5600.466629000039,8,-2588,-1648,-713,261,452,740
627,5609.235547000026,8,-2564,-1734,-599,358,597,939
628,5618.054464999659,8,-2748,-1832,-547,464,704,1183
629,5626.89538199993,8,-2834,-1926,-545,484,864,1453
630,5635.67729999977,8,-2863,-2049,-469,474,1032,1744
631,5644.940213999689,9,-3001,-2244,-371,490,1188,1909
632,5654.301125999609,9,-3058,-2536,-245,538,1338,2017
633,5663.50003999969,9,-3209,-2844,-51,630,1418,2053
634,5672.82495299969,9,-3132,-3202,151,781,1489,1798
635,5682.064867000008,9,-3120,-3623,447,886,1545,1948
636,5691.2507809997805,9,-2969,-3935,760,1017,1556,1745
637,5700.514694000049,9,-2890,-4430,1237,1094,1521,1416
638,5709.771607999755,9,-2758,-5077,1669,1156,1364,1133
639,5719.509517000006,9,-2701,-5278,2250,1185,1149,776
640,5728.664431999732,9,-2567,-5660,2630,1162,562,480
641,5737.907344999712,9,-2479,-6015,2854,1107,247,39
642,5747.614254999917,9,-2471,-6052,2808,970,-259,-374
643,5756.545170999743,8,-2535,-5992,2536,778,-880,-793
644,5765.479087999665,8,-2706,-5809,2016,507,-1350,-1221
645,5774.295004999658,8,-2798,-5429,1705,171,-2008,-1495
646,5783.281920999798,8,-2758,-5073,1348,-309,-2274,-1738
647,5792.110838999633,8,-2822,-4556,803,-660,-2175,-1944
648,5801.06475499997,8,-2876,-4191,721,-1239,-2235,-2060
649,5809.8766729999625,8,-2977,-3851,443,-1504,-2280,-2043
650,5818.479592999665,8,-2849,-3411,278,-1453,-2237,-2030
651,5827.353509999739,8,-2802,-3074,-227,-1549,-2091,-1982
652,5836.242426999888,8,-2843,-2864,-179,-1565,-1969,-1855
653,5845.016344999749,8,-2851,-2576,-447,-1503,-1824,-1616
654,5853.97526099996,8,-2800,-2079,-622,-1334,-1646,-1370
655,5862.751179000043,8,-2772,-2197,-736,-1139,-1390,-825
656,5871.64209599996,8,-2512,-1784,-815,-912,-1178,-846
657,5880.478013999891,8,-2646,-1803,-1068,-721,-999,-494
658,5889.265931999944,8,-2438,-1481,-992,-473,-514,-304
659,5898.105848999876,8,-2563,-1722,-918,-291,-304,-105
660,5906.896767000035,8,-2489,-1369,-979,-165,-317,51
661,5915.699684999709,8,-2527,-1456,-736,28,-20,237
662,5924.660600999687,8,-2589,-1729,-935,510,249,582
663,5933.482518999881,8,-2703,-1757,-922,358,352,960
664,5942.424434999793,8,-2702,-1773,-934,307,556,1521
665,5951.29535299975,8,-2829,-1787,-886,236,705,1609
666,5960.194269999647,8,-2842,-1839,-763,229,938,1771
667,5969.101185999989,8,-2917,-2304,-646,338,1161,1910
668,5977.889104000042,8,-3057,-2377,-301,502,1371,2301
669,5986.901020000005,9,-3289,-2642,-353,649,1567,2140
670,5995.740937999926,8,-3113,-2947,-149,810,1700,2134
671,6004.672853999637,8,-3099,-3194,92,918,1777,2068
672,6013.496772000053,8,-2974,-3476,726,982,1817,1953
673,6022.406689000036,8,-3255,-3866,816,1037,1794,1798
674,6031.230606000008,8,-3057,-4086,935,1054,1640,1682
675,6040.167523000036,8,-2859,-4502,1254,1031,1282,1441
676,6049.072439999691,8,-2834,-4729,1772,1014,1406,1169
677,6057.884356999693,8,-2880,-5015,1824,983,1224,826
678,6066.823273999944,8,-2585,-5312,2086,942,993,520
679,6075.622191999628,8,-2700,-5515,2247,853,745,181
680,6084.575107999626,8,-2611,-5657,2390,713,334,-137
681,6093.408025999906,8,-2602,-5599,2398,277,-62,-579
682,6102.2579430000405,8,-2605,-5442,2227,336,-698,-950
683,6111.147859999619,8,-2750,-5261,1911,76,-799,-1287
684,6120.018777000041,8,-2854,-4948,1531,-141,-1188,-1785
685,6128.97069399969,8,-2964,-4469,1073,-370,-1406,-1696
686,6137.822611000047,8,-2962,-4029,784,-587,-1543,-1751
687,6146.690527999908,8,-2926,-3670,559,-821,-1568,-1757
688,6155.664444999729,8,-2934,-3323,77,-955,-1542,-1711
689,6164.535361999697,8,-2878,-3056,51,-1041,-1469,-1616
690,6173.312279999664,8,-2843,-2763,-147,-1106,-1382,-1562
691,6182.122197999888,8,-2797,-2600,-301,-1163,-1034,-1514
692,6190.951114999734,8,-2772,-2430,-390,-1093,-1157,-1441
693,6199.828031999914,8,-2717,-2265,-495,-973,-1041,-1327
694,6208.577950999825,8,-2758,-2133,-612,-552,-924,-1167
695,6217.468866999752,8,-2841,-2039,-740,-554,-833,-923
696,6226.2837849998505,8,-2777,-1895,-865,-401,-701,-632
697,6235.096702999726,8,-2745,-1802,-992,-270,-526,-269
698,6244.024619999891,8,-2752,-1786,-1056,-137,-315,17
699,6252.894536999975,8,-2702,-1759,-1002,24,-90,272
700,6261.787453999659,8,-2706,-1721,-975,129,160,740
701,6270.625370999824,8,-2668,-1898,-864,238,347,651
702,6279.502288000003,8,-2703,-2121,-725,362,526,772
703,6288.340205999702,8,-2667,-2365,-576,507,694,830
704,6297.254122999675,8,-2689,-2583,-403,573,865,880
705,6306.181038999966,8,-2815,-2720,-229,626,939,975
706,6315.015957000014,8,-2809,-2847,-19,633,998,1162
707,6323.823874000027,8,-2854,-2961,130,573,1047,1288
708,6332.641791999777,8,-2852,-3150,290,532,1069,1388
709,6341.4867100000265,8,-2870,-3360,422,520,1064,1459
710,6350.444625999899,8,-2815,-3588,634,517,1042,1417
711,6359.30854299977,8,-2806,-3890,761,573,984,1266
712,6368.16546,8,-2740,-4196,919,645,928,1027
713,6376.992377999613,8,-2632,-4635,1114,728,851,731
714,6385.708296999837,8,-2575,-4908,1465,783,791,347
715,6394.818211999791,9,-2510,-5033,1770,758,668,66
716,6403.665128999819,8,-2463,-5099,1990,661,396,-159
717,6412.631044999671,8,-2449,-5227,1803,514,87,-403
718,6421.466962999602,8,-2429,-5270,2003,380,-217,-740
719,6430.362879999848,8,-2405,-5210,1884,220,-768,-1026
720,6439.222796999729,8,-2465,-5057,1710,94,-779,-1299
721,6447.826716999771,8,-2459,-4758,1504,-75,-1055,-1544
722,6457.320627999707,9,-2571,-4426,1276,-317,-1517,-1644
723,6466.5405419996205,9,-2589,-3969,1004,-511,-1465,-1680
724,6475.734455999827,9,-2628,-3694,694,-667,-1528,-1649
725,6485.028368999792,9,-2613,-3429,432,-827,-1534,-1603
726,6494.275282999752,9,-2607,-3124,144,-918,-1489,-1524
727,6503.5981959999845,9,-2593,-2870,-38,-958,-1426,-1428
728,6512.778109999999,9,-2590,-2646,-201,-972,-1350,-1273
729,6522.071023999615,9,-2600,-2496,-411,-935,-1257,-1128
730,6531.245937999756,9,-2708,-2347,-608,-787,-1125,-906
731,6540.509851000024,9,-2658,-2179,-795,-660,-989,-588
732,6550.4147589999775,9,-2583,-2007,-903,-512,-707,-355
733,6559.34867499991,8,-2555,-1846,-945,-403,-466,-84
734,6568.288592000044,8,-2546,-1756,-932,-275,-247,110
735,6577.1045100000265,8,-2552,-1738,-898,-169,-12,319
736,6586.033425999631,8,-2570,-1790,-851,-50,170,516
737,6594.871343999785,8,-2579,-1867,-757,52,359,756
738,6603.7082609996105,8,-2602,-1933,-691,150,532,976
739,6612.5491789998705,8,-2796,-1933,-679,213,641,1263
740,6621.330096999827,8,-2751,-1993,-599,214,827,1547
741,6629.9480159996165,8,-2813,-2136,-543,222,1017,2024
742,6638.8739330000135,8,-2952,-2275,-463,256,1189,1989
743,6647.641850999662,8,-3108,-2429,-399,325,1320,2107
744,6656.433768999705,8,-3155,-2586,-16,407,1488,2217
745,6665.4136849997485,8,-3247,-2737,-111,484,1590,2292
746,6674.153603999912,8,-3300,-2894,28,573,1623,2307
747,6682.934521999869,8,-3322,-3178,408,662,1633,2183
748,6691.764439000053,8,-3455,-4032,337,840,1691,2008
749,6700.55335699999,8,-3180,-4172,718,970,1683,1736
750,6709.353275000012,8,-2892,-4244,1003,1062,1675,1136
751,6718.476189999819,9,-3196,-4564,1246,1158,1576,658
752,6730.312078999759,11,-2735,-5084,1675,1047,1389,369
753,6739.176995999969,8,-2594,-5219,1951,899,1097,202
754,6747.983913999633,8,-2759,-5370,2065,653,385,29
755,6756.993829999828,9,-2599,-5206,2001,492,26,-123
756,6765.855746999932,8,-2604,-5179,1811,411,-346,-402
757,6774.772664000011,8,-2622,-5067,1591,318,-583,-682
758,6783.710580999923,8,-2662,-4981,1387,181,-726,-992
759,6792.620497999906,8,-2576,-4835,1187,8,-834,-1332
760,6801.561413999934,8,-3032,-4620,961,-165,-966,-1661
761,6810.459330999947,8,-2905,-4301,777,-312,-1143,-1766
762,6819.316247999723,8,-2999,-4031,599,-525,-1306,-1787
763,6828.152165999654,8,-2927,-3623,390,-653,-1417,-1740
764,6836.857084999792,8,-2974,-3381,200,-751,-1433,-1609
765,6845.722002000002,8,-2944,-3168,3,-831,-1415,-1498
766,6854.730917999859,9,-2883,-3029,-121,-855,-1361,-1356
767,6863.584834999983,8,-2787,-2813,-222,-820,-1268,-1216
768,6872.61375099979,9,-2741,-2627,-349,-747,-1198,-1085
769,6881.473667999671,8,-2738,-2484,-495,-652,-1126,-994
770,6890.367584999694,8,-2764,-2361,-595,-537,-776,-889
771,6899.276501999793,8,-2787,-2223,-697,-441,-874,-754
772,6908.102419999977,8,-2782,-2121,-827,-344,-725,-555
773,6916.981336999925,8,-2777,-2056,-846,-2,-292,-372
774,6925.80225499978,8,-2773,-1920,-869,-149,-364,-210
775,6934.750170999905,8,-2778,-1883,-843,-50,-134,239
776,6943.61508799966,8,-2802,-1901,-829,36,20,235
777,6952.4880059998395,8,-2810,-1969,-734,126,200,448
778,6961.291922999862,8,-2786,-2055,-603,225,463,690
779,6972.592817999612,11,-2811,-2181,-511,281,602,872
780,6981.359735999831,8,-2821,-2269,-362,311,726,1044
781,6990.219652999713,8,-2862,-2364,-252,304,837,1134
782,6999.026570999831,8,-2904,-2800,-208,284,892,1210
783,7007.791488999828,8,-2976,-2774,-119,270,962,1248
784,7016.604406999704,8,-3093,-3017,2,297,995,1266
785,7025.448324999616,8,-3022,-3340,111,372,1036,1238
786,7034.336241999881,8,-2957,-3615,314,464,1118,1181
787,7043.205158999626,8,-2893,-3929,757,497,1226,1071
788,7052.033077000033,8,-2840,-4191,698,521,1257,863
789,7060.971992999839,8,-2703,-4395,1022,511,1238,642
790,7069.826910999836,8,-2614,-4500,1300,507,1136,377
791,7078.641827999945,8,-2587,-4813,1428,481,929,164
792,7087.609745000009,8,-2517,-4843,1579,402,575,4
793,7096.419661999789,8,-2454,-4780,1698,281,258,-199
794,7105.445577999944,9,-2414,-4968,1630,182,-19,-404
795,7114.268496000022,8,-2365,-5034,1589,126,-340,-665
796,7123.194411999975,8,-2342,-5004,1444,89,-515,-1037
797,7132.077329999902,8,-2411,-4883,1279,34,-976,-1303
798,7140.985245999673,8,-2481,-4387,1064,-130,-939,-1509
799,7149.867163999716,8,-2511,-4354,895,-311,-1162,-1669
800,7158.889078999891,9,-2808,-4103,622,-453,-1289,-1791
801,7167.758996999964,8,-2651,-3609,418,-555,-1382,-1828
802,7176.668912999958,8,-2677,-3361,226,-575,-1433,-1783
803,7185.541830999682,8,-2735,-3339,-229,-588,-1411,-1681
804,7194.377747999624,8,-3056,-3162,-232,-579,-1371,-1455
805,7203.433663999931,9,-2714,-2895,-378,-601,-1308,-1253
806,7212.284580999949,8,-2620,-2727,-448,-615,-1166,-810
807,7221.246496999811,8,-2623,-2599,-517,-606,-1033,-859
808,7230.076414999985,8,-2306,-2488,-574,-576,-905,-701
809,7238.998331999937,8,-2539,-2406,-623,-500,-533,-511
810,7247.869248999905,8,-2492,-2261,-664,-443,-648,-316
811,7256.878164999762,9,-2483,-2155,-758,-381,-524,-71
812,7265.761081999699,8,-2483,-2059,-785,-323,-399,81
813,7274.629998999899,8,-2476,-2036,-814,-222,-16,244
814,7283.4549169997445,8,-2580,-2078,-905,-93,-125,436
815,7292.246834999787,8,-2594,-2056,-924,47,-6,659
816,7301.120751999861,8,-2633,-2069,-874,172,160,863
817,7309.873669999888,8,-2731,-2088,-827,296,340,1091
818,7318.6995879996175,8,-2799,-2164,-786,342,591,1319
819,7327.562504999605,8,-2833,-2360,-700,378,797,1771
820,7336.365422999734,8,-2889,-2475,-566,426,959,1697
821,7344.992342999831,8,-2997,-2588,-436,485,1073,1845
822,7353.727260999676,8,-3089,-2645,-312,543,1145,2015
823,7362.6531779996185,8,-3016,-2663,-226,540,1301,2104
824,7371.478094999929,8,-3132,-2955,-49,528,1361,2173
825,7380.3380129998,8,-3262,-2974,118,262,1333,2226
826,7389.165929999763,8,-3181,-3519,251,505,1342,2163
827,7397.965847999785,8,-3080,-3684,407,581,1369,1982
828,7406.910764999793,8,-2868,-4208,660,720,1381,1690
829,7415.777681999771,8,-2707,-4515,1058,852,1381,1207
830,7424.549599999864,8,-2712,-4706,1338,897,1037,856
831,7433.658514999934,9,-2660,-5110,1606,815,969,305
832,7442.55743199983,8,-2657,-4966,1742,647,618,208
833,7451.419348999934,8,-2593,-5067,1748,479,271,-72
834,7460.386265999659,8,-2640,-4971,1674,327,-24,-398
835,7469.275182999809,8,-2533,-4984,1630,249,-320,-955
836,7478.169099999832,8,-2656,-4811,1450,205,-546,-1050
837,7487.022016999617,8,-2734,-4588,1227,121,-750,-1264
838,7495.873933999974,8,-2882,-4110,1003,-10,-937,-1359
839,7504.824850999739,8,-2985,-4080,723,-141,-1160,-1355
840,7513.65376900003,8,-2948,-3795,267,-266,-1252,-1300
841,7522.59768499971,8,-2964,-3559,271,-380,-1261,-1290
842,7531.432602999757,8,-2930,-3077,132,-476,-1239,-1287
843,7540.321519999907,8,-2924,-3084,-28,-554,-1201,-1265
844,7549.254435999956,8,-2863,-2948,-150,-607,-1135,-1219
845,7558.120354000039,8,-2832,-2818,-231,-641,-1057,-1172
846,7567.01626999984,8,-2809,-2699,-300,-657,-978,-1132
847,7575.997186999757,8,-2798,-2625,-362,-629,-878,-1060
848,7584.7171049999815,8,-2809,-2522,-439,-555,-805,-902
849,7593.506022999918,8,-2822,-2441,-547,-470,-733,-723
850,7602.400939999825,8,-2856,-2073,-658,-337,-637,-502
851,7611.161858999822,8,-2879,-2236,-730,-233,-491,-249
852,7619.986775999678,8,-2769,-1944,-725,-177,-347,240
853,7628.706694999892,8,-2900,-1756,-750,-187,-204,273
854,7637.640610999824,8,-2930,-1715,-805,-192,-59,547
855,7646.398529999715,8,-2892,-1849,-780,-119,98,785
856,7655.242446999637,8,-2963,-1910,-751,7,317,965
857,7664.042364999659,8,-2999,-1980,-709,120,479,1145
858,7672.803282999666,8,-2974,-2063,-641,202,617,1256
859,7681.604201000027,8,-3311,-2173,-545,290,1007,1339
860,7690.445118999833,8,-3138,-2340,-429,336,859,1422
861,7699.248035999972,8,-3235,-2603,-296,402,991,1553
862,7708.087953999893,8,-3258,-2693,-201,469,1113,1702
863,7717.596864999905,9,-3354,-2899,-93,529,1195,1839
864,7726.4417829997,8,-3306,-3049,41,564,1266,1884
865,7735.473697999623,9,-3189,-3362,271,589,1292,1744
866,7744.30961600001,8,-2942,-4079,569,709,1308,1449
867,7753.259531999902,8,-2736,-4197,886,766,1274,790
868,7762.132449999626,8,-2764,-4478,1188,777,1133,572
869,7771.060365999801,8,-2674,-4610,1544,726,883,263
870,7779.944282999622,8,-2701,-4733,1744,538,293,-8
871,7788.8662000000295,8,-2681,-4840,1829,387,131,-310
872,7797.700117999739,8,-2755,-4844,1725,277,-171,-690
873,7806.5260349999335,8,-2567,-4741,1596,198,-456,-969
874,7815.4709519999415,8,-2812,-4358,1467,133,-657,-1241
875,7824.381868999808,8,-2880,-4521,1229,101,-864,-1445
876,7833.315784999741,8,-2866,-4390,1049,52,-1014,-1627
877,7842.150702999788,8,-2936,-4118,842,-60,-1155,-1716
878,7851.072619999741,8,-2941,-3821,638,-242,-1532,-1747
879,7859.803538000051,8,-2969,-3477,432,-415,-1381,-1725
880,7868.650455999614,8,-2930,-3299,156,-545,-1399,-1647
881,7877.653371999713,9,-2854,-3095,-2,-637,-1368,-1580
882,7886.508288999721,8,-2825,-2918,-172,-702,-1330,-1511
883,7895.398205999754,8,-2880,-2726,-334,-704,-1283,-1408
884,7904.227124000045,8,-2857,-2554,-762,-698,-1218,-1237
885,7913.095040999906,8,-2750,-2451,-662,-652,-1109,-1082
886,7921.988957999929,8,-2799,-2049,-780,-547,-977,-933
887,7930.747876999703,8,-2758,-2177,-896,-431,-826,-521
888,7939.60779400004,8,-2706,-2080,-977,-281,-621,-622
889,7948.374711999804,8,-2700,-1984,-1016,-139,-461,-443
890,7956.982631999836,8,-2748,-1952,-1019,43,-41,-35
891,7966.6595419998885,9,-2800,-1952,-1003,199,-60,-73
892,7975.8314559999235,9,-2819,-1920,-918,352,117,91
893,7985.086369999863,9,-2838,-1987,-888,521,384,267
894,7994.249284000034,9,-2919,-2141,-734,634,571,554
895,8003.506197999741,9,-2830,-2221,-624,702,770,1011
896,8012.832110999625,9,-2939,-2400,-410,690,915,979
897,8022.011024999756,9,-2972,-2574,-293,649,1031,1171
898,8031.22293899969,9,-2936,-2691,-190,571,1138,1334
899,8040.45385299969,9,-2935,-2819,42,523,1100,1282
900,8049.700766999649,9,-3241,-3178,289,614,1122,1281
901,8058.675682999819,8,-3151,-3394,341,594,1199,1346
902,8068.435591999787,9,-2991,-3778,543,554,1325,1321
903,8077.239509999799,8,-2976,-4160,802,545,1451,1194
904,8086.205425999651,8,-2362,-4518,1284,559,1541,864
905,8094.973344999744,8,-2464,-4832,1713,589,1506,531
906,8103.898260999813,8,-2293,-5360,2179,563,1260,154
907,8112.644179999734,8,-2180,-5456,2807,554,774,-492
908,8121.411097999953,8,-2231,-5527,2696,541,303,-738
909,8130.2970149999965,8,-2299,-5635,2796,503,-179,-1073
910,8139.061932999994,8,-2176,-5570,2590,444,-640,-1393
911,8147.808851999798,8,-2405,-5337,2272,355,-1056,-1671
912,8156.653768999604,8,-2385,-4831,1636,189,-1429,-1890
913,8165.457686999616,8,-2480,-4510,1500,-6,-1594,-2049
914,8174.284604999684,8,-2571,-4240,1073,-472,-1692,-2107
915,8183.17252199995,8,-2723,-4018,773,-434,-1772,-2078
916,8191.929439999967,8,-2770,-3406,474,-605,-1816,-1995
917,8200.74935799994,8,-2783,-3278,10,-761,-1783,-1847
918,8209.60927499982,8,-2720,-3069,73,-897,-1698,-1627
919,8218.50619199995,8,-2639,-2931,-68,-1018,-1589,-1473
920,8227.310109999962,8,-2648,-2854,-183,-1053,-1446,-1337
921,8236.302025999976,8,-2577,-2811,-289,-1015,-1328,-1151
922,8245.192942999893,8,-2549,-2685,-435,-916,-1215,-983
923,8254.073859999608,8,-2514,-2559,-527,-777,-1104,-796
924,8262.94077800003,8,-2471,-2388,-654,-637,-928,-623
925,8271.900693999669,8,-2471,-2266,-1018,-474,-779,-423
926,8280.745611999919,8,-2505,-2210,-874,-312,-621,-245
927,8289.692527999705,8,-2476,-2140,-927,-145,-448,-52
928,8298.547445999702,8,-2455,-2097,-917,-20,-184,103
929,8307.452362999811,8,-2407,-2182,-888,94,36,324
930,8316.317280000021,8,-2498,-2272,-799,161,255,481
931,8325.104197999735,8,-2437,-2386,-715,216,452,651
932,8334.050113999638,8,-2463,-2469,-587,243,658,848
933,8342.898031999994,8,-2561,-2480,-538,245,782,1149
934,8351.80094899988,8,-2567,-2513,-432,220,898,1362
935,8360.657865999656,8,-2631,-2680,-403,193,1277,1521
936,8369.35378499993,8,-2605,-2981,-284,209,1143,1602
937,8378.173702999902,8,-2585,-3311,-142,287,1320,1613
938,8387.067619999925,8,-2534,-3492,62,359,1425,1481
939,8395.96053699961,8,-2570,-3779,281,453,1472,1402
940,8404.860453999845,8,-2468,-4065,472,475,1460,1332
941,8413.659371999984,8,-2451,-3908,663,427,1393,1277
942,8422.544288999688,8,-2482,-4062,841,383,1271,1220
943,8431.328206999751,8,-2456,-4156,903,337,1138,1150
944,8440.152124999713,8,-2428,-4397,1015,306,992,1015
945,8448.987041999771,8,-2236,-4794,1130,384,887,550
946,8457.702960999995,8,-2141,-4809,1400,472,825,457
947,8466.362879999906,8,-2325,-4900,1392,462,645,6
948,8475.171797999792,8,-2237,-5001,1540,412,406,-278
949,8484.040714999992,8,-2179,-4925,1553,312,135,-499
950,8492.814632999853,8,-2221,-4981,1576,215,-221,-685
951,8501.722549999613,8,-2170,-5125,1291,193,-477,-934
952,8510.507468000014,8,-2294,-5069,1454,165,-666,-1231
953,8519.48638499971,8,-2141,-4641,1354,121,-827,-1515
954,8528.274302999762,8,-2271,-4690,1159,26,-1071,-1695
955,8537.111220000043,8,-2299,-4356,989,-116,-1239,-1739
956,8546.081136999874,8,-2327,-4102,691,-500,-1354,-1692
957,8554.950053999619,8,-2444,-3827,456,-325,-1420,-1624
958,8563.86897099992,8,-2455,-3572,231,-379,-1403,-1512
959,8572.771887999806,8,-2467,-3373,93,-420,-1333,-1345
960,8581.678803999694,8,-2486,-3174,-107,-470,-1260,-1197
961,8590.580720999696,8,-2497,-3040,-245,-525,-1193,-783
962,8599.561637999614,8,-2452,-2856,-349,-549,-1082,-859
963,8608.392554999682,8,-2397,-2722,-464,-551,-976,-649
964,8617.302471999665,8,-2359,-2309,-557,-518,-886,-481
965,8626.228388999607,8,-2380,-2404,-641,-480,-804,-317
966,8635.163305999868,8,-2372,-2213,-729,-434,-665,-136
967,8644.001223000032,8,-2403,-2163,-850,-379,-528,113
968,8652.865139999903,8,-2495,-2090,-901,-286,-361,312
969,8661.86605599978,9,-2584,-2111,-943,-149,-67,752
970,8670.78297299986,8,-2591,-2133,-889,-20,182,681
971,8679.689889999736,8,-2620,-2149,-752,119,412,941
972,8688.610806999804,8,-2640,-2205,-596,264,604,1155
973,8697.51872400002,8,-2675,-2293,-458,356,793,1341
974,8706.213642999955,8,-2657,-2346,-368,434,889,1496
975,8715.042559999802,8,-2915,-2581,-252,478,933,1721
976,8724.405472999933,9,-2838,-2635,-138,475,1061,1876
977,8733.335389999866,8,-2885,-2930,-6,486,1180,1992
978,8742.138307999994,8,-2883,-3171,164,515,1289,2041
979,8751.04122499988,8,-2880,-3367,329,543,1379,1984
980,8760.31213799979,9,-2748,-3587,763,544,1451,1782
981,8769.718049999938,9,-2689,-3855,778,547,1445,1559
982,8778.944963999948,9,-2601,-4230,1038,534,1349,1053
983,8788.140878999911,9,-2500,-4393,1361,494,1244,990
984,8797.3697919997,9,-2486,-4821,1529,427,986,527
985,8806.53270699986,9,-2458,-4735,1692,334,728,535
986,8815.784620999693,9,-2385,-5105,1736,219,460,303
987,8825.089533999744,9,-2356,-4927,1758,167,159,-17
988,8834.288447999825,9,-2376,-4947,1688,100,-64,-282
989,8843.533362000016,9,-2359,-4901,1587,40,-344,-533
990,8852.75327599993,9,-2397,-4818,1367,-62,-559,-843
991,8862.68118299995,9,-2403,-4622,1183,-165,-802,-1084
992,8871.808097999747,9,-2445,-4486,946,-259,-962,-1235
993,8880.525016999854,8,-2488,-4401,709,-330,-1079,-1368
994,8889.336934999847,8,-2506,-4240,512,-383,-1132,-1486
995,8898.130852999657,8,-2519,-4021,360,-428,-1140,-1567
996,8906.91477099972,8,-2547,-3808,215,-455,-1132,-1586
997,8915.753688999757,8,-2600,-3598,25,-468,-1136,-1537
998,8924.629606000053,8,-2616,-3459,-114,-422,-1118,-1434
999,8933.441524000045,8,-2582,-3265,-510,-399,-1071,-1049
1000,8942.339440999604,8,-2656,-3077,-427,-359,-1026,-1170
1001,8951.139358999626,8,-2634,-2994,-617,-334,-955,-981
1002,8959.91127699972,8,-2596,-2856,-747,-315,-865,-820
1003,8968.758193999747,8,-2541,-2715,-874,-284,-764,-661
1004,8977.64411199978,8,-2501,-2573,-949,-259,-612,-508
1005,8986.544029000015,8,-2538,-2398,-989,-221,-453,-321
1006,8995.406946000003,8,-2543,-2287,-1044,-180,-302,-155
