,time_ms,delta_ms,aX,aY,aZ,gX,gY,gZ
0,0.0,0,2825,-1000,763,-1331,466,131
1,10.193903000072169,10,2897,-1051,927,-1342,379,160
2,19.29081700018287,9,2860,-1116,1025,-1488,295,239
3,28.527728999961255,9,2845,-1068,796,-1609,149,331
4,37.641643000370095,9,2823,-1093,914,-1697,23,415
5,47.08055300034175,9,2768,-1150,514,-1691,-109,473
6,56.24446599995281,9,2743,-1143,607,-1321,-200,522
7,66.23337200016977,9,2701,-1178,483,-1328,-286,558
8,75.57928300002459,9,2665,-1244,362,-1112,-330,560
9,84.75419600017631,9,2693,-1317,314,-754,-361,557
10,96.98808000030112,12,2699,-1407,279,-495,-367,566
11,107.20098299998426,10,2780,-1511,287,-284,-370,565
12,116.74689200026478,9,2864,-1650,362,-157,-349,562
13,125.54780900018159,8,2972,-1787,468,-52,-336,553
14,134.43872500010912,8,3168,-1838,534,103,-339,532
15,143.31964000029984,8,3349,-1901,534,268,-374,531
16,152.0045580000442,8,3526,-2064,516,434,-405,542
17,161.0964720002812,9,3681,-2302,447,602,-434,532
18,170.0013869999566,8,3913,-2567,435,788,-463,491
19,178.83930300013162,8,4100,-2908,405,916,-494,432
20,187.74221900002885,8,4336,-3145,369,1023,-501,345
21,196.6591340001287,8,4558,-3337,295,1128,-504,300
22,205.60505000003104,8,4770,-3523,245,1232,-476,258
23,214.57396400001016,8,4898,-3773,503,1318,-420,196
24,223.4088810000685,8,4956,-3927,237,1429,-354,89
25,232.33679600025425,8,4955,-4101,252,1789,-306,-25
26,240.9847140002057,8,4899,-4208,326,1652,-270,-176
27,249.78463100023873,8,4861,-4244,377,1728,-238,-331
28,258.725546000278,8,4759,-4191,423,1744,-233,-739
29,267.5064630002453,8,4659,-4076,437,1709,-223,-655
30,276.3573790002738,8,4475,-3935,431,1595,-222,-779
31,285.2362940002422,8,4356,-3683,431,1509,-249,-886
32,294.0082110003459,8,4253,-3300,396,1464,-283,-989
33,302.901127000041,8,3844,-3008,279,1435,-318,-1051
34,311.6670439999325,8,3986,-2642,162,1402,-346,-1092
35,320.4789599999458,8,3819,-2064,51,1403,-362,-1113
36,329.37087600021187,8,3676,-2026,-89,1449,-389,-1137
37,338.2017920002909,8,3520,-1820,-229,1519,-396,-1154
38,347.0647080002891,8,3406,-1599,-375,1628,-392,-1164
39,356.01762300029804,8,3239,-1436,-459,1769,-383,-1159
40,364.84853900037706,8,3116,-1257,-519,1851,-371,-1154
41,373.8484539999263,8,3022,-1119,-563,1890,-357,-1151
42,382.70037000029333,8,2944,-961,-524,1877,-349,-1127
43,391.56028600018544,8,2875,-532,-476,1806,-344,-1084
44,400.4732020002848,8,2829,-570,-412,1703,-340,-774
45,409.45711700032916,8,2775,-406,-321,1312,-323,-926
46,418.3950320002623,8,2787,-203,-244,1391,-304,-824
47,427.30194700016,8,2781,0,-214,1281,-305,-691
48,436.1768630001279,8,2812,236,-192,1198,-326,-487
49,445.14277799999036,8,2752,364,-170,1127,-371,-322
50,454.06769300007,8,2696,422,-170,1071,-432,-188
51,462.98660899992683,8,2611,443,-169,1033,-531,-82
52,471.6645270000299,8,2565,486,-195,949,-620,20
53,480.60144200007926,8,2531,530,-288,858,-733,119
54,489.56435700029033,8,2525,523,-405,699,-840,223
55,498.3872729999348,8,2592,532,-515,533,-973,318
56,507.34318800004985,8,2664,574,-1013,378,-1081,431
57,516.2531040000431,8,2746,638,-1062,234,-1167,482
58,525.2080190002744,8,2932,663,-1267,141,-1202,505
59,534.0849350000099,8,3134,688,-1446,112,-1151,535
60,543.003850000332,8,3415,696,-1577,97,-1058,572
61,551.8287660001988,8,4032,706,-1576,68,-942,604
62,560.4836840002463,8,4262,649,-1588,6,-847,627
63,569.4106000000829,8,4666,542,-1594,-67,-758,637
64,578.2755160003035,8,5087,413,-1630,-155,-694,657
65,587.1344320003118,8,5391,297,-1711,-232,-640,667
66,595.9173480000572,8,5671,98,-1778,-303,-586,661
67,604.7602650000954,8,5758,-138,-1890,-333,-503,630
68,613.6161809999976,8,5823,-432,-1973,-310,-341,589
69,622.4490970002989,8,5799,-691,-2025,-10,-188,534
70,631.2870130000192,8,5742,-1229,-2038,-168,237,487
71,640.2009290000024,8,5583,-1285,-2012,-83,125,438
72,649.0288449999753,8,5383,-1680,-1894,-1,309,369
73,657.9817599999842,8,5112,-1966,-1709,28,449,226
74,666.7916760002299,8,4828,-2205,-1507,-20,559,37
75,675.7745909999358,8,4527,-2330,-1293,-149,639,-164
76,684.5975080000244,8,4355,-2266,-1130,-307,684,-370
77,693.4264240003358,8,4242,-2054,-953,-731,690,-553
78,702.3873390003246,8,4144,-1787,-875,-667,674,-642
79,711.2022549999892,8,4026,-1515,-814,-787,647,-678
80,720.2031700003317,9,3920,-1212,-762,-873,644,-687
81,729.0690859999813,8,3590,-1018,-687,-909,647,-675
82,738.0660010003339,8,3725,-864,-625,-912,657,-659
83,747.0599150001362,8,3630,-755,-567,-884,643,-639
84,756.0028299999431,8,3555,-703,-446,-838,622,-623
85,764.9207460003709,8,3479,-689,-355,-792,603,-618
86,773.8096620000761,8,3395,-692,-263,-770,578,-604
87,782.6675780002006,8,3360,-667,-170,-781,539,-588
88,791.6024930000276,8,3317,-674,-96,-813,504,-534
89,800.464409000142,8,3266,-660,-50,-853,473,-470
90,809.3173249999381,8,3233,-629,232,-880,454,-388
91,819.0452329999971,9,3195,-604,16,-895,445,-319
92,828.3501440000691,9,3182,-566,44,-890,427,-249
93,837.7450550001413,9,3143,-587,138,-861,398,-182
94,846.9549680003183,9,3126,-621,227,-806,357,-128
95,856.2278800000058,9,3090,-638,327,-749,313,-66
96,865.497792000042,9,3058,-634,359,-711,11,247
97,874.6997050002392,9,3064,-637,420,-684,202,67
98,883.9486169999873,9,3053,-610,469,-695,154,147
99,893.1485299999622,9,3055,-588,492,-707,116,234
100,902.4004420002711,9,3044,-586,476,-740,94,331
101,911.4893559999473,9,3050,-562,490,-742,64,397
102,921.1362650003139,9,2820,-605,515,-697,53,478
103,930.0641800000449,8,3075,-659,555,-591,34,538
104,938.9390960000128,8,3098,-674,562,-496,32,594
105,947.7730120001979,8,3098,-826,564,-421,12,652
106,956.7919270002676,9,3129,-957,595,-368,-11,706
107,965.6618420003724,8,3219,-1114,621,-324,-29,743
108,974.5457580002039,8,3298,-1529,600,-313,-73,770
109,983.4176740000657,8,3414,-1418,575,-309,-117,802
110,992.3485890003576,8,3510,-1584,513,-285,-151,831
111,1001.2725050000881,8,3689,-2009,417,-218,-154,843
112,1010.2304199999708,8,3844,-2007,393,-145,-142,829
113,1019.1173360003631,8,4045,-2164,343,227,-131,799
114,1028.0402510002205,8,4248,-2361,314,95,-140,770
115,1036.924167000052,8,4453,-2592,292,241,-136,708
116,1045.8560820002276,8,4819,-3010,491,337,-116,601
117,1054.757998000241,8,4509,-2996,540,437,-86,422
118,1063.6479130002954,8,4941,-3226,450,496,-55,286
119,1072.9568250003467,9,4986,-3364,521,480,-54,158
120,1081.7967410002893,8,5040,-3300,582,761,-28,39
121,1090.679657000237,8,5097,-3306,579,535,-16,-62
122,1099.5875720000186,8,5014,-3220,540,609,4,-185
123,1108.5864870001387,8,4952,-3065,498,662,4,-308
124,1117.4804030001724,8,4863,-2884,448,689,-3,-438
125,1126.2993190002817,8,4762,-2701,405,706,-12,-518
126,1135.2142350001486,8,4595,-2530,348,720,-23,-576
127,1144.1011500000968,8,4424,-2336,254,748,-44,-642
128,1153.0540650001058,8,4250,-2186,158,785,-54,-727
129,1161.8509820000327,8,4084,-2017,91,829,-62,-783
130,1170.6688980002582,8,3857,-1845,19,888,-72,-827
131,1179.5278140002665,8,3711,-1638,-26,923,-83,-857
132,1188.3757310001783,8,3610,-1465,-43,946,-82,-877
133,1197.2146470002372,8,3494,-1319,-105,945,-91,-877
134,1206.0445629999776,8,3364,-1188,-159,922,-105,-873
135,1214.9234789999355,8,3268,-1026,-197,898,-128,-858
136,1223.8403940000353,8,3211,-904,-204,881,-147,-818
137,1232.7023100001497,8,3136,-795,-241,854,-173,-779
138,1241.5572270001576,8,3077,-687,-257,830,-190,-741
139,1250.3891430001204,8,3017,-534,-287,808,-225,-694
140,1259.4210570000541,9,2978,-433,-291,785,-252,-631
141,1268.273973000305,8,2967,-326,-292,753,-270,-562
142,1277.2058890000153,8,2936,-229,-282,698,-303,-488
143,1286.090804000196,8,2906,-128,-326,636,-330,-405
144,1295.0067199999467,8,2878,-62,-351,585,-348,-294
145,1303.961635000178,8,2868,-12,-392,537,-370,-213
146,1312.8735509999387,8,2855,32,-441,512,-391,-130
147,1321.7404669999269,8,2877,84,-456,497,-422,-52
148,1330.610383000021,8,2903,130,-471,484,-442,30
149,1339.574298000116,8,2943,153,-501,438,-445,112
150,1348.4742130003724,8,2981,166,-477,383,-448,185
151,1357.4561280001944,8,3046,245,-451,327,-457,283
152,1366.307044000223,8,3110,267,-480,286,-468,369
153,1375.288959000045,8,3208,5,-476,222,-490,448
154,1384.1318750000937,8,3300,206,-585,200,-522,512
155,1393.044791000193,8,3410,133,-655,180,-539,569
156,1401.8767070001559,8,3540,74,-735,162,-546,593
157,1410.7316230001743,8,3730,30,-818,147,-526,616
158,1419.7015380000266,8,3960,-28,-842,141,-463,632
159,1428.5394540002017,8,4170,-101,-854,118,-409,666
160,1437.4173700002757,8,4434,-206,-876,101,-362,704
161,1446.3152860002992,8,4712,-365,-894,56,-316,720
162,1455.2852010001516,8,4969,-591,-905,11,-262,696
163,1464.2231160000847,8,5173,-725,-939,-51,-228,658
164,1473.0830319999768,8,5352,-885,-1015,-96,-196,610
165,1481.8549490000805,8,5496,-1057,-1070,-117,-153,561
166,1490.6938650001393,8,5556,-1297,-1177,-105,-72,474
167,1499.5557810002538,8,5599,-1532,-1189,-71,11,346
168,1508.251699000084,8,5550,-1699,-1185,-40,109,228
169,1517.0646149999811,8,5476,-1819,-1107,-23,216,103
170,1525.9475309999289,8,5330,-1891,-994,-39,295,-6
171,1534.8184470003616,8,5187,-1929,-911,-100,386,-139
172,1543.6843630000112,8,5039,-1880,-826,-175,437,-309
173,1552.52327900007,8,4608,-1754,-794,-265,474,-432
174,1561.4091950001239,8,4691,-1596,-761,-344,507,-531
175,1570.3391100000772,8,4526,-1374,-726,-412,531,-602
176,1579.0940270003375,8,4131,-1182,-681,-467,550,-663
177,1588.010942999972,8,4201,-1028,-642,-759,568,-707
178,1596.8408590001673,8,4021,-870,-617,-559,590,-742
179,1605.812774000242,8,3885,-648,-576,-576,608,-754
180,1615.3056840003046,9,3708,-506,-510,-595,612,-738
181,1624.72159500021,9,3594,-371,-471,-620,626,-699
182,1634.2215050003688,9,3456,-309,-387,-631,619,-668
183,1643.428417999985,9,3362,-266,-327,-634,611,-610
184,1652.7493290000166,9,3286,-245,-225,-640,608,-561
185,1661.976242000037,9,3178,-230,-152,-657,599,-491
186,1671.3981530001547,9,3128,-265,-73,-644,579,-431
187,1680.6860650003728,9,3060,-252,22,-603,552,-398
188,1689.9879760003387,9,3022,-256,36,-500,537,-374
189,1699.218889000349,9,2938,-356,115,-370,497,-340
190,1708.4618010003396,9,2877,-334,152,-248,469,-277
191,1718.2407089999288,9,2795,-424,174,-262,430,-215
192,1727.1936239999377,8,2805,-403,193,-324,409,-123
193,1736.1005390002902,8,2755,-391,287,-414,383,-43
194,1745.0524539999606,8,2785,-357,417,-472,373,20
195,1754.0373690003435,8,2818,-347,458,-482,359,98
196,1762.9762850001498,8,2802,-370,501,-486,335,204
197,1771.8352010001581,8,2812,-366,608,-505,289,299
198,1780.6081170001562,8,2853,-357,625,-541,244,402
199,1789.541033000205,8,2876,-456,677,-582,176,751
200,1798.335949000375,8,2974,-518,708,-590,134,602
201,1807.202865000363,8,3323,-616,699,-584,102,686
202,1816.1467810000431,8,3192,-776,707,-560,79,771
203,1825.0196970002435,8,3294,-973,691,-523,71,815
204,1833.9356120000048,8,3470,-1074,894,-381,99,859
205,1842.6915290001489,8,3639,-1230,852,-214,139,894
206,1851.4384459999746,8,3810,-1570,910,-78,182,895
207,1860.3593620000538,8,4039,-1959,1033,38,195,877
208,1869.142278000254,8,4275,-2247,1133,137,201,840
209,1877.9501950002668,8,4541,-2526,1241,188,186,789
210,1886.76611100027,8,4755,-2713,1272,281,171,737
211,1895.5390280002575,8,4968,-2948,1253,323,175,681
212,1904.4659440000942,8,5033,-3303,1312,351,183,607
213,1913.2818600000974,8,5098,-3463,1393,401,185,469
214,1922.1017760000905,8,5133,-3517,1380,443,194,321
215,1931.017692000296,8,5029,-3616,1853,444,94,121
216,1939.8736080001981,8,4926,-3614,1327,447,-12,-41
217,1948.830523000197,8,4904,-3436,1366,454,10,-218
218,1957.7044390002811,8,4750,-3333,1295,510,-19,-352
219,1966.6223540002647,8,4598,-2848,1210,514,-14,-459
220,1975.5222700000559,8,4421,-2797,1166,506,-14,-550
221,1984.414186000322,8,4291,-2526,1093,491,-30,-625
222,1993.2471020001685,8,4134,-2269,1000,422,-49,-670
223,2002.231017000213,8,3944,-1958,897,378,-93,-694
224,2011.150931999964,8,3785,-1709,817,389,-141,-702
225,2020.0988480000888,8,3634,-1506,676,432,-204,-713
226,2028.9097640002183,8,3457,-1323,587,517,-241,-730
227,2037.756680000257,8,3350,-1141,262,583,-272,-751
228,2046.712595000372,8,3234,-908,417,641,-293,-713
229,2055.58351100035,8,3148,-781,366,670,-316,-685
230,2064.561426000182,8,3042,-696,302,739,-368,-663
231,2073.8663380002436,9,2991,-507,13,792,-403,-629
232,2082.713254000282,8,2938,-437,171,868,-440,-593
233,2091.4011720001326,8,2880,-375,113,946,-468,-541
234,2100.3180870002325,8,2828,-282,83,956,-490,-477
235,2109.195002999968,8,2795,-162,54,933,-543,-406
236,2118.1639179999365,8,2750,-96,49,896,-613,-316
237,2126.990835000015,8,2725,-19,7,839,-638,-236
238,2135.9607490003327,8,2723,252,-33,756,-675,-163
239,2144.7476660000575,8,2754,80,-70,650,-703,-73
240,2153.655582000283,8,2774,41,-202,558,-730,30
241,2162.470497999948,8,2787,115,-264,411,-772,145
242,2171.2674150003295,8,2823,114,-320,283,-811,198
243,2180.2463300000454,8,2849,57,-324,128,-836,240
244,2189.0832460003367,8,2876,132,-457,40,-854,260
245,2197.9511620002086,8,2849,33,-535,-67,-856,363
246,2206.806078000227,8,3120,511,-605,-220,-840,435
247,2215.6159950000074,8,3317,186,-588,-302,-778,764
248,2224.5249100001274,8,3603,194,-697,-346,-670,635
249,2233.4058260003076,8,3810,385,-542,-521,-545,757
250,2242.3237420002806,8,3952,10,-518,-494,-573,784
251,2251.2216570003147,8,4219,254,-584,-545,-564,857
252,2260.1825720003035,8,4596,106,-416,-599,-538,1050
253,2269.076488000337,8,4534,-309,-444,-423,-578,1155
254,2278.109403000144,9,4765,-734,-519,-240,-618,1158
255,2287.008318000062,8,4891,-1101,-678,-69,-656,1088
256,2295.9502339999744,8,5017,-1483,-1083,28,-632,1060
257,2304.839149000145,8,5248,-1428,-1431,-401,-148,1065
258,2313.7760650001837,8,5678,-2084,-1596,-679,268,717
259,2322.724980000203,8,5340,-2143,-1238,-942,-39,498
260,2331.5758960002313,8,5858,-2431,-1190,-532,94,446
261,2340.4638120000527,8,5389,-2518,-961,-447,465,894
262,2349.476727000365,9,5883,-2570,-1393,-427,423,590
263,2358.38964200002,8,6581,-3059,-1379,-498,483,189
264,2367.40055700011,9,5457,-2876,-1162,-385,663,-161
265,2376.279473000068,8,4983,-2888,-923,-95,712,-747
266,2385.2443880000465,8,4712,-2665,-789,105,639,-808
267,2394.2323030000807,8,4642,-2329,-705,179,540,-1102
268,2403.1242180003574,8,4420,-2043,-586,122,600,-1155
269,2411.966135000057,8,4743,-1729,-96,53,518,-1328
270,2420.9130500003084,8,4240,-1239,-633,-89,544,-1357
271,2430.510959000003,9,4609,-1556,-506,-183,683,-1343
272,2439.946869000323,9,4254,-860,-43,-285,1023,-1146
273,2449.1597820001516,9,3558,-121,-227,-337,1009,-1027
274,2458.4956940002485,9,3745,-970,-226,-293,805,-1677
275,2467.774606000148,9,3043,-20,-107,-306,845,-1286
276,2476.977519000229,9,3276,-231,48,-333,829,-1354
277,2486.248431000149,9,3207,-37,263,-242,741,-1214
278,2495.444344000134,9,3235,-10,398,-187,676,-1130
279,2504.678256000261,9,3175,-18,480,-211,583,-1059
280,2513.8881689999835,9,3091,248,588,-278,460,-942
281,2523.707075999937,9,3072,99,637,-349,386,-773
282,2532.6829910000015,8,3086,209,647,-388,309,-667
283,2541.5869070002373,8,2990,219,631,-371,235,-605
284,2550.1738250000017,8,2951,316,636,-299,176,-562
285,2559.168740000132,8,2888,289,455,-332,55,-431
286,2568.0816560002313,8,2923,501,633,-312,-95,-392
287,2576.950571999987,8,3002,337,555,-268,-128,-277
288,2585.862487000213,8,2976,306,477,-230,-182,-322
289,2594.6104040003775,8,2939,327,466,-153,-215,-203
290,2603.294322000238,8,2879,377,421,-162,-192,-90
291,2612.033239000084,8,2933,140,352,-210,-139,18
292,2620.9131549999256,8,3014,129,442,-246,-44,22
293,2629.7060720003174,8,3083,94,496,-254,-18,178
294,2638.520987999982,8,3222,99,621,-239,-2,271
295,2647.401904000162,8,3352,-39,659,-101,-92,336
296,2656.2548199999583,8,3518,-143,669,8,-134,738
297,2665.2037359999667,8,3615,-186,754,82,-176,678
298,2674.1346510002586,8,3798,-359,780,134,-178,773
299,2683.004567000353,8,3893,-1023,704,160,-199,726
300,2691.842483000073,8,4249,-1113,684,206,-241,631
301,2700.6753990003745,8,4469,-1242,592,299,-268,562
302,2709.5763150000494,8,4661,-1563,447,361,-268,516
303,2718.419231000098,8,4921,-1814,438,422,-184,466
304,2727.3141470000155,8,5106,-2001,406,472,-100,403
305,2736.1740630003624,8,5234,-2133,411,522,-54,306
306,2745.153977999962,8,5352,-2238,428,559,251,233
307,2754.0008940000007,8,5429,-2558,477,588,34,149
308,2762.924810000186,8,5414,-2319,526,599,86,50
309,2771.784726000078,8,5370,-2338,607,571,135,-96
310,2780.612642000051,8,5259,-2375,719,519,143,-268
311,2789.5735570000397,8,5081,-2052,684,492,95,-431
312,2798.3964740001284,8,4949,-2094,677,454,73,-554
313,2807.336389000284,8,4805,-1875,619,423,55,-654
314,2816.214305000358,8,4400,-1713,531,397,54,-725
315,2825.1512199999524,8,4427,-1479,507,463,78,-852
316,2833.994136000001,8,4269,-1240,502,566,115,-969
317,2842.8920520000247,8,3844,-1061,460,633,141,-1026
318,2851.6709690002244,8,3947,-822,462,653,161,-1023
319,2860.5158850000407,8,3728,-637,525,677,157,-1015
320,2869.46080000007,8,3610,-471,534,674,109,-1005
321,2878.224717000194,8,3477,-388,535,687,83,-1017
322,2887.0256340001106,8,3382,-307,573,701,43,-1016
323,2895.8365510002295,8,3254,-171,521,699,-17,-986
324,2904.7644659999605,8,3192,0,491,653,-96,-911
325,2913.6683820001963,8,3079,31,456,608,-155,-832
326,2922.4652980001338,8,2989,-96,440,624,-197,-755
327,2931.2202149999393,8,2916,298,420,571,-506,-747
328,2940.092131000256,8,2850,368,349,619,-334,-676
329,2948.939048000284,8,2819,520,275,636,-386,-562
330,2957.748964000075,8,2773,569,201,630,-440,-410
331,2966.6568800003006,8,2688,556,132,634,-482,-310
332,2975.512796000203,8,2588,572,68,638,-525,-225
333,2984.404712000014,8,2538,610,26,627,-589,-134
334,2993.2086280000476,8,2509,619,-12,600,-634,11
335,3002.0895440002278,8,2506,680,-61,540,-658,136
336,3010.984460000145,8,2536,718,-108,461,-656,497
337,3019.8613760003354,8,2539,868,-122,423,-687,333
338,3028.776291000213,8,2648,943,-174,392,-692,465
339,3037.637206999989,8,2706,950,-277,360,-691,609
340,3046.6121220001696,8,2891,944,-381,347,-714,741
341,3055.4520390001016,8,3032,840,-718,283,-762,827
342,3064.4049540001106,8,3185,788,-574,208,-820,887
343,3073.865864000254,9,3396,775,-993,163,-869,914
344,3082.7357800003483,8,3671,724,-921,123,-827,992
345,3091.6736950002814,8,4053,874,-981,178,-737,1155
346,3100.5016120002438,8,4376,660,-1205,98,-569,1165
347,3109.285529000317,8,4630,589,-1161,70,-459,1158
348,3118.3254430002307,9,4974,467,-1180,51,-435,1227
349,3127.2433580002144,8,5192,282,-1070,25,-377,1486
350,3136.1832740003592,8,5420,-53,-1314,-91,-255,1315
351,3145.1001890000043,8,5663,-260,-1787,-137,-276,1137
352,3153.986105000058,8,5893,-294,-1610,-205,-179,945
353,3162.873020999996,8,5967,-577,-1714,-506,-33,843
354,3171.7659370001456,8,5919,-830,-1725,-324,114,740
355,3180.687852000119,8,5827,-1095,-1712,-354,333,599
356,3189.6157680002943,8,5412,-1250,-1613,-375,513,355
357,3198.397684000156,8,5465,-1299,-1469,-442,662,180
358,3207.3815990002004,8,5160,-1296,-1341,-508,780,51
359,3216.17251600037,8,4917,-1294,-1178,-541,915,-64
360,3225.929424000242,9,4695,-1160,-942,-572,1006,-149
361,3235.2613350003594,9,4520,-992,-743,-609,1079,-214
362,3244.5232479999504,9,4277,-865,-574,-699,1114,-243
363,3253.913159000149,9,4070,-744,-418,-764,1106,-311
364,3263.119072000336,9,3619,-678,-250,-816,1054,-342
365,3272.3879840000336,9,3655,-465,-129,-871,974,-369
366,3281.6438960003325,9,3527,-336,-30,-1037,1074,-550
367,3290.8728090001205,9,3408,-187,-73,-1249,1177,-468
368,3300.111721000121,9,3400,-62,-87,-1167,969,-219
369,3309.326634000172,9,3190,-57,-76,-1157,923,-186
370,3318.5455470002125,9,3142,-189,37,-1135,992,-102
371,3328.299453999989,9,2871,-491,288,-1011,899,-39
372,3337.2193700001844,8,2902,-295,287,-1059,855,-53
373,3346.077286000309,8,2819,-261,360,-1040,741,-37
374,3354.870203000246,8,2879,-224,493,-1028,681,22
375,3363.7181190001684,8,2804,-224,594,-1053,604,119
376,3372.640034000142,8,2825,-195,622,-1074,507,502
377,3381.400952000149,8,2781,-253,606,-1122,471,351
378,3390.302867000173,8,2793,-359,635,-1142,434,438
379,3399.088784000014,8,2723,-523,673,-1155,382,505
380,3407.99270000025,8,2722,-671,725,-1139,348,554
381,3416.867616000218,8,2729,-804,784,-1091,289,602
382,3425.7845310003177,8,2728,-884,853,-1002,180,636
383,3434.5844480003507,8,2754,-972,858,-922,87,690
384,3443.4303640000508,8,2762,-1048,827,-885,14,746
385,3452.34328000015,8,2779,-1157,839,-859,-20,788
386,3461.1991960000523,8,2812,-1262,866,-834,-30,849
387,3470.189111000309,8,2882,-1370,891,-803,-34,875
388,3479.0540270000747,8,2954,-1477,932,-757,-10,902
389,3488.049942000089,8,3049,-1602,1053,-693,7,912
390,3496.8848580001577,8,3190,-1710,1153,-610,12,908
391,3505.897773000015,9,3387,-1801,1250,-527,14,907
392,3514.74368900017,8,3580,-1962,1411,-434,-4,892
393,3523.7236040002244,8,3717,-2161,1471,-319,-70,876
394,3532.641519000208,8,3985,-2344,1456,-248,-142,902
395,3541.506434999974,8,4140,-2766,1447,-222,-189,927
396,3550.3503520003505,8,4303,-2713,1326,-147,-254,969
397,3559.2432680000456,8,4505,-2827,1292,-154,-268,925
398,3568.2211830003325,8,4690,-3323,1141,-83,-241,855
399,3577.0840990003308,8,4718,-3276,1022,32,-183,806
400,3585.8810150002682,8,4903,-3519,984,159,-81,800
401,3594.8209309999584,8,5351,-3690,763,236,63,636
402,3603.833845000281,9,5111,-3663,713,205,130,406
403,3612.6617620002435,8,5048,-3600,660,83,13,-176
404,3621.4846780003427,8,4627,-3376,759,-102,315,-373
405,3630.4735930002607,8,4684,-3369,495,35,275,-355
406,3639.4335080003657,8,5034,-2941,345,215,-106,-412
407,3648.3354239999244,8,4930,-2583,502,213,-41,-517
408,3657.270339000206,8,4798,-2425,268,197,-43,-538
409,3666.057255999931,8,4582,-2149,283,177,-216,-572
410,3674.917172000278,8,4353,-1558,175,180,-256,-560
411,3683.763087999978,8,4204,-1676,112,158,-253,-581
412,3692.6070050003545,8,3953,-1373,-44,202,-296,-526
413,3701.3929220001955,8,3876,-1335,-169,193,-329,-506
414,3710.2488380000977,8,3711,-1173,-282,246,-309,-475
415,3719.160753000324,8,3538,-1114,-328,236,-182,-475
416,3728.0346689999533,8,3296,-936,-314,233,-81,-452
417,3736.885584999982,8,3261,-931,-73,218,-71,-412
418,3745.8045010002934,8,3208,-696,23,293,-138,-334
419,3754.6394170003623,8,3242,-629,3,282,-108,-243
420,3763.5853330002647,8,3201,-558,10,235,-61,-161
421,3772.49024799994,8,3098,-588,80,147,-7,-72
422,3781.301165000059,8,3049,-695,178,86,24,-56
423,3790.335079000215,9,3031,-799,195,81,16,-35
424,3799.170996000157,8,3010,-786,174,81,24,-34
425,3808.127911000156,8,3042,-771,202,68,54,12
426,3817.0468260000234,8,3086,-645,257,64,63,101
427,3825.9207420001076,8,3113,-541,267,54,24,227
428,3834.8836570003186,8,3125,-700,306,49,-1,315
429,3843.7805730000036,8,3147,-854,407,90,-26,347
430,3852.6514889999817,8,3201,-979,569,200,-81,364
431,3861.539405000258,8,3236,-1006,755,318,-169,385
432,3870.4253210003117,8,3257,-1121,794,403,-230,421
433,3879.2612370002644,8,3278,-1203,726,423,-310,441
434,3888.187153000217,8,3335,-1243,598,445,-366,466
435,3897.0070690002103,8,3391,-1277,491,436,-382,495
436,3906.007984000098,9,3466,-1330,429,416,-377,507
437,3914.8019010003736,8,3552,-1507,300,450,-304,457
438,3923.7908160002917,8,3698,-1916,458,179,-224,171
439,3932.6047320000725,8,3836,-1092,721,127,-147,358
440,3941.4366490000248,8,3534,-1082,450,50,-352,482
441,3950.319563999983,8,4331,-3616,231,813,-393,568
442,3959.1694810001172,8,4067,-1900,735,565,-279,379
443,3968.0423970003176,8,3965,-1752,855,504,-434,413
444,3976.962312000069,8,4177,-1811,444,443,-520,360
445,3985.92122700029,8,4187,-1927,628,402,-591,283
446,3994.6801440000854,8,4183,-1942,62,459,-499,240
447,4003.563060000033,8,4400,-1826,67,453,-423,5
448,4012.341977000233,8,4488,-1895,226,461,-305,61
449,4021.148894000362,8,4622,-2479,-16,559,-250,-95
450,4029.8608110001624,8,4485,-1607,96,253,-195,508
451,4039.725718000227,9,4168,-1664,157,-238,-209,327
452,4049.004630000127,9,4492,-2020,-250,37,-307,62
453,4058.320542000274,9,4195,-1727,-220,-15,-249,-12
454,4067.544454000199,9,4096,-1781,-90,-149,-269,-140
455,4077.151363000212,9,3849,-1838,-378,-205,-356,-355
456,4086.4252760002273,9,4152,-1888,-449,-279,-248,-311
457,4095.6481880002684,9,4227,-1809,-405,-295,-17,-451
458,4104.885101000036,9,4179,-1888,-296,-92,130,-496
459,4114.121012999931,9,4081,-1369,-398,39,333,-495
460,4123.354926000047,9,4049,-1042,-259,147,459,-342
461,4132.8168360000745,9,4045,-946,-181,300,513,-225
462,4142.017748999933,9,4006,-945,216,304,550,-112
463,4150.962664999952,8,3986,-1153,170,335,593,-110
464,4159.846580000249,8,3904,-1737,449,268,592,-141
465,4168.776496000191,8,3717,-1633,754,192,571,-481
466,4177.657412000372,8,3619,-1626,475,86,477,-469
467,4186.713326000245,9,3586,-1503,380,-40,446,-602
468,4195.563241999935,8,3260,-938,11,-114,465,-538
469,4204.594156999974,9,3391,-930,-358,-197,493,-514
470,4213.438073000361,8,3240,-698,-307,-178,543,-293
471,4222.3519890003445,8,2737,-466,-470,-307,546,-51
472,4231.242905000272,8,2653,467,-821,-355,646,-212
473,4240.1978200000485,8,3119,612,169,-282,776,-177
474,4249.0797360001125,8,3125,-1306,465,398,644,-252
475,4258.053650999955,8,2980,-240,219,344,996,-126
476,4266.896567000003,8,2907,-623,479,73,723,231
477,4275.972481000281,9,3166,-1714,1220,-160,619,581
478,4284.825397000077,8,3038,-1816,1358,-509,672,413
479,4293.724312999984,8,2838,-1998,1686,-754,196,179
480,4302.61622900025,8,2324,-2039,1790,-1159,-205,-446
481,4311.442145000001,8,3421,-2059,1462,-1317,-543,-770
482,4320.471060000273,9,3575,-2679,1643,-843,-1018,-898
483,4329.388976000246,8,2886,-1085,911,-497,-1027,-904
484,4338.261891999991,8,2940,-517,809,-724,-1299,-639
485,4347.183806999965,8,3993,-1295,942,-503,-1091,-725
486,4356.069723000019,8,3825,-1772,1285,-386,-859,-770
487,4364.855640000314,8,3120,-1838,1445,-274,-827,-365
488,4373.819554999955,8,3423,-1255,1309,-395,-848,-68
489,4382.6234719999775,8,3699,-939,1189,-436,-801,-119
490,4391.503388000274,8,3579,-1046,667,-528,-514,-233
491,4400.291305000337,8,3606,-1413,751,-705,-766,-149
492,4409.130220999941,8,3705,-1687,680,-521,-866,-49
493,4418.012137000005,8,4241,-1499,504,-17,-899,-90
494,4426.805053999942,8,4365,-1282,455,-120,-519,-75
495,4435.66796999994,8,4612,-1473,459,-9,-685,19
496,4444.445887000256,8,4753,-1540,287,25,-607,163
497,4453.266803000133,8,4873,-1524,56,45,-525,380
498,4462.128719000248,8,4618,-1786,-40,-57,-557,435
499,4471.072634999928,8,5083,-1750,-570,141,-288,345
500,4479.948551000234,8,4816,-1810,-566,81,-296,338
501,4488.9824649999355,9,4771,-1883,-904,162,-162,251
502,4497.936380000283,8,4767,-1906,-1071,234,23,98
503,4506.800296000165,8,4959,-2325,-1011,121,145,22
504,4515.637212999991,8,4520,-1881,-729,118,218,-121
505,4524.508128999969,8,4557,-1967,-1180,172,469,-227
506,4533.414044999972,8,4371,-1793,-1068,70,597,-246
507,4542.344960000264,8,4299,-1862,-846,92,818,-290
508,4551.190875999964,8,4623,-2139,-605,171,992,-462
509,4560.197791000064,9,4310,-1820,-348,205,1098,-564
510,4569.066707000275,8,3180,-1332,-365,113,1098,-569
511,4578.114622000157,9,3987,-1562,55,129,933,-591
512,4586.999537000338,8,3798,-1223,229,79,846,-670
513,4595.909453000331,8,3506,-1340,205,-5,803,-819
514,4604.800369000259,8,3591,-1134,260,0,774,-1077
515,4613.702285000272,8,3246,-1648,412,-119,886,-1382
516,4622.657200000049,8,3186,-1560,549,-70,768,-1554
517,4631.284118000167,8,3118,-1070,445,-85,304,-1903
518,4640.33203300005,9,3433,-668,672,-44,428,-2314
519,4649.21294900023,8,3052,-457,385,146,315,-2570
520,4658.139864000077,8,3262,-422,448,487,246,-2750
521,4666.9877799999995,8,3159,-544,13,313,366,-3011
522,4675.97069500016,8,2009,-222,409,240,443,-3101
523,4684.764611999981,8,3098,463,84,137,373,-2851
524,4693.682527999954,8,2146,995,651,151,356,-2126
525,4702.498443999957,8,-1941,-174,162,97,135,1100
526,4711.2253620002775,8,5215,78,626,71,-108,-2290
527,4720.316276000176,9,-2935,1752,-4326,117,-588,-294
528,4729.090193000047,8,3477,-99,-241,-36,31,748
529,4737.965109000015,8,5496,928,678,-105,-397,243
530,4746.746024999993,8,-2944,1665,-2191,-2104,-1569,-848
531,4755.560942000102,8,283,-664,598,-1782,-807,1011
532,4764.417858000343,8,3771,-517,1829,-612,421,-579
533,4773.238775000209,8,2298,627,461,385,-236,-165
534,4782.022692000282,8,3206,381,821,264,140,81
535,4790.9206070003165,8,3305,193,807,3,168,24
536,4799.715524000021,8,3134,-22,670,-211,-331,61
537,4808.626440000353,8,2970,-119,798,-293,-469,299
538,4817.462356000306,8,3286,-327,970,-301,-211,626
539,4826.287273000162,8,3626,-516,889,-184,-78,875
540,4836.004181000135,9,3594,-268,609,-20,-52,907
541,4845.296093000343,9,3950,-610,582,87,-210,912
542,4854.580005000116,9,4100,-904,626,113,-228,848
543,4863.826917000097,9,4287,-1216,686,165,-150,691
544,4873.1028300003345,9,4602,-1272,771,511,-114,474
545,4882.377742000244,9,4458,-1407,762,366,-109,384
546,4891.574655000113,9,4478,-1507,742,388,-90,325
547,4900.767567999992,9,4591,-1584,821,339,-56,297
548,4909.94548100025,9,4608,-1597,875,326,-93,280
549,4919.129394000265,9,4589,-1677,889,307,-211,243
550,4928.408306000165,9,4788,-1731,959,320,-268,146
551,4937.492219999967,9,4998,-1813,1017,337,-226,-22
552,4947.026130000268,9,5040,-1900,898,358,-290,-116
553,4955.929046000165,8,5107,-1759,812,330,-399,-170
554,4964.701963000152,8,5103,-1763,672,283,-413,-227
555,4973.589877999984,8,4920,-1749,494,235,-393,-294
556,4982.420795000053,8,4778,-1630,405,228,-348,-417
557,4991.223712000192,8,4599,-1414,475,297,-279,-542
558,5000.109627000256,8,4384,-1226,431,414,-180,-599
559,5008.9415440002085,8,5086,-1302,454,468,25,-651
560,5017.745461000231,8,5000,-1369,469,1009,507,-559
561,5026.641376000043,8,4522,-752,309,943,253,-448
562,5035.485292999965,8,5438,-649,138,903,83,-536
563,5044.4362080002065,8,3969,342,116,674,-109,-494
564,5053.297123999982,8,4195,-357,33,531,-83,-385
565,5062.1040410001115,8,5772,-450,300,601,500,-277
566,5071.05695600012,8,3814,-122,237,784,413,-292
567,5080.661865000366,9,3498,248,273,894,305,-88
568,5089.608780000162,8,3468,110,441,754,209,193
569,5100.985673000196,11,3139,230,458,615,-22,359
570,5109.848589000194,8,2996,205,447,522,-279,415
571,5118.858503999945,9,3073,127,426,506,-412,379
572,5127.693420000014,8,2936,156,334,485,-503,334
573,5136.70333500022,9,2945,178,191,491,-524,389
574,5145.481252000081,8,3119,731,107,486,-468,395
575,5154.165168999953,8,2862,360,-124,517,-378,409
576,5163.101085000108,8,2567,571,-139,500,-221,436
577,5171.967001000212,8,2733,690,-494,491,-135,571
578,5180.919916000221,8,2607,797,-494,305,-178,803
579,5189.825832000224,8,2378,713,-544,215,-254,1031
580,5198.750747000304,8,2634,724,-690,81,-365,1189
581,5207.679663000363,8,2772,501,-548,50,-482,1245
582,5216.593579000346,8,2858,92,-504,-16,-393,1246
583,5225.446495000142,8,2851,-31,-72,-184,-241,1003
584,5234.349411000039,8,2974,8,14,-224,-235,855
585,5243.147327000315,8,3175,-10,224,-274,-170,1122
586,5251.9792440002675,8,3333,-241,613,-177,-490,1263
587,5260.852160000013,8,3582,-47,584,-155,-435,1516
588,5269.682076000208,8,3625,-643,771,-91,-590,1445
589,5278.52599300013,8,3998,-856,651,-125,-718,1646
590,5287.423909000154,8,4228,-1497,669,-336,-866,1749
591,5296.216825000101,8,4302,-1569,313,-469,-998,1819
592,5305.186740999943,8,4445,-1782,-216,-560,-1020,1752
593,5313.999657000295,8,4601,-1788,-136,-554,-1062,1288
594,5322.935572999995,8,3912,-2105,-161,-287,-826,1064
595,5331.755488999988,8,4635,-857,-685,-45,-699,1527
596,5340.640405000158,8,4452,-1523,-601,-95,-529,1194
597,5349.583320999955,8,4101,-1626,-742,210,-250,1138
598,5358.454236999933,8,4418,-2053,-380,85,3,1145
599,5367.453152000053,8,4381,-2083,-192,177,224,1092
600,5376.3030680001975,8,4521,-2116,77,352,216,1132
601,5385.231983000267,8,4499,-2318,211,399,143,1259
602,5394.151899000008,8,7852,-4221,966,959,-26,847
603,5403.099814000143,8,3904,-2944,210,762,-20,655
604,5411.922731000232,8,4000,-3106,83,438,-152,721
605,5420.896646000074,8,4301,-2885,-282,229,-266,528
606,5429.770562000158,8,4090,-2674,-589,-38,-359,472
607,5438.785477000238,9,3637,-2584,-1382,-62,-515,392
608,5447.710392000317,8,3900,-2320,-710,-78,-354,502
609,5456.68030700017,8,3733,-2258,-665,-140,-323,482
610,5465.556223000021,8,3616,-1465,-881,184,-593,502
611,5474.507139000252,8,3695,-2018,-114,-57,-489,306
612,5483.457054000155,8,5063,-2625,-765,-573,-330,-146
613,5492.366970000148,8,3572,-2142,-728,-647,-448,-509
614,5501.1758860000555,8,3952,-2135,-498,-718,-192,-715
615,5510.056802000236,8,3519,-2108,-154,-613,6,-453
616,5518.945717999941,8,3433,-2128,-25,-466,39,-337
617,5527.791635000085,8,3433,-2043,-319,-306,67,-322
618,5536.740550000104,8,2831,-1716,-381,-269,37,-239
619,5545.556467000097,8,2816,-1427,-658,-207,-17,-71
620,5554.481382000176,8,3543,-1557,-460,-303,-51,-103
621,5563.287298999967,8,3042,-1482,-268,-420,-8,-16
622,5572.093216000212,8,2969,-1626,9,-407,71,30
623,5581.038131000241,8,3650,-2148,-226,-387,110,209
624,5589.872046999972,8,3348,-1547,-230,-421,94,334
625,5598.74696299994,8,3264,-1527,-488,-946,-29,619
626,5607.588880000094,8,3227,-2105,398,-545,-496,614
627,5616.374796999935,8,3276,-1314,411,-1022,-390,499
628,5625.348712000232,8,3321,-1529,-239,-1402,-294,566
629,5634.1486280002755,8,2775,-1790,-347,-1640,-172,758
630,5643.611539000176,9,3681,-1840,-553,-1680,179,394
631,5653.011450000122,9,3698,-1973,-533,-1527,340,358
632,5661.99236500006,8,3639,-1963,-733,-1419,510,386
633,5671.148278000146,9,3549,-1656,-387,-1262,465,331
634,5680.517190000046,9,3100,-1632,-420,-1099,338,273
635,5689.855102000365,9,3265,-1920,-809,-572,116,36
636,5699.207012999977,9,3014,-2175,-646,-297,-311,-113
637,5708.45592600017,9,3222,-2664,-1079,430,-700,-693
638,5717.731837999963,9,3640,-2197,-629,1135,-1185,-1384
639,5726.924751000297,9,3409,-2592,-762,1436,-1193,-1269
640,5736.160663000192,9,3616,-2005,-1122,1778,-1193,-546
641,5746.059569999943,9,4428,-2062,-1128,1585,-1127,-133
642,5755.042485000104,8,3915,-2005,-822,1473,-1178,-70
643,5763.983400000143,8,4737,-1888,-1634,1237,-783,-41
644,5772.9483150001215,8,4706,-2867,-1056,1159,439,-155
645,5781.811232000109,8,3609,-1836,-175,26,353,-273
646,5790.829146000306,9,4273,-1583,-1175,150,102,-431
647,5799.671063000005,8,4092,-1282,-610,25,756,-342
648,5808.607978000055,8,3756,-1648,-330,-34,475,-227
649,5817.554893000306,8,4001,-1448,-685,-262,323,-168
650,5826.490809000006,8,3718,-1669,-657,-347,2,-177
651,5835.37672500006,8,3757,-2037,-1269,-58,88,-483
652,5844.2956399999275,8,3896,-1732,-1133,283,129,-150
653,5853.155557000264,8,4392,-1676,-801,435,-247,15
654,5876.754333000008,23,3657,-1625,-440,677,-173,-99
655,5885.655249000138,8,4005,-1340,-173,527,-308,-47
656,5894.5011650002925,8,3424,-1416,-234,169,-222,56
657,5903.331082000022,8,3525,-1487,-419,-13,-338,171
658,5911.909001000367,8,3840,-1525,-754,-61,-102,220
659,5921.107914000004,9,4043,-1465,-344,-391,339,342
660,5929.88583100032,8,3567,-1631,-451,-1256,545,594
661,5938.782747000005,8,3837,-2020,-1116,-825,573,410
662,5947.586663000038,8,3432,-1710,-1106,-531,533,230
663,5956.443579000279,8,3608,-1884,-1026,-429,410,-462
664,5965.301495999938,8,3478,-1945,-971,-291,299,-559
665,5974.099412000214,8,3590,-1639,-374,-198,316,-600
666,5982.997328000238,8,3528,-1548,-625,-187,431,-825
667,5991.831244999958,8,3445,-2008,-585,-299,507,-1040
668,6000.626162000117,8,3209,-1877,-785,-385,438,-1068
669,6009.554077000303,8,3343,-1630,-980,-605,110,-945
670,6018.398993000119,8,4203,-4598,-297,-59,32,-1223
671,6027.317908999976,8,4306,-1735,-562,141,582,-1038
672,6036.268824000217,8,3036,-1083,-325,188,569,-753
673,6045.171740000114,8,4676,-3198,-898,441,905,-756
674,6054.039655999986,8,3696,-1225,-508,169,872,-415
675,6062.9565720000755,8,2715,-1124,-485,1,708,-273
676,6071.801488000347,8,2931,-1457,-370,-118,585,-720
677,6081.3733980003235,9,3188,-1345,-260,-301,521,-1069
678,6090.395312000055,9,2909,-1216,-93,-390,473,-1318
679,6099.246229000073,8,2855,-749,-59,-684,624,-869
680,6108.311143000265,9,2839,-792,-142,-653,568,-717
681,6117.140059000121,8,2913,-722,-2,-660,313,-677
682,6126.032975000271,8,2893,-550,46,-540,215,-618
683,6134.870891999981,8,2940,-478,3,-431,166,-572
684,6143.792806999954,8,2893,-532,-20,-315,125,-514
685,6152.752722000059,8,2850,-541,48,-180,72,-462
686,6161.592638999991,8,2904,-674,459,-149,36,-443
687,6170.294556000044,8,2928,-733,402,-168,90,-321
688,6179.08047300034,8,3318,-748,472,-302,120,-357
689,6188.067388000036,8,3414,-722,602,-248,148,-419
690,6196.902305000094,8,3598,-1071,628,-243,181,-320
691,6205.821219999962,8,3825,-1229,696,-139,143,21
692,6214.602136999929,8,4307,-1214,632,-23,139,264
693,6223.548053000286,8,4450,-1433,723,-21,106,312
694,6232.328970000253,8,4675,-1749,804,-20,-10,358
695,6241.180886000166,8,4865,-1919,793,-20,-62,362
696,6250.037801999952,8,5370,-2279,713,-10,-30,353
697,6258.857718999934,8,5326,-2554,553,22,26,260
698,6267.63563600025,8,5356,-2564,379,117,51,232
699,6276.47355199997,8,5528,-2693,245,179,72,236
700,6285.262469000372,8,5555,-2819,61,508,118,232
701,6294.106386000294,8,5385,-2814,-17,336,212,215
702,6303.004301000328,8,5473,-2731,-8,458,295,154
703,6311.84021800027,8,5500,-2464,-101,641,403,149
704,6320.691134000299,8,5130,-2783,51,462,676,28
705,6329.576050000014,8,5002,-2745,-2,437,701,-239
706,6338.519966000149,8,4736,-2558,136,396,526,-722
707,6347.420881000289,8,4601,-2496,252,295,338,-933
708,6356.303797000237,8,4200,-2052,-204,-10,495,-642
709,6365.242713000043,8,3991,-1690,-121,-188,472,-794
710,6374.12662900033,8,3789,-1434,-72,-357,453,-854
711,6383.049545000176,8,3587,-1307,-10,-517,456,-871
712,6391.9504600003165,8,2600,-1112,-379,-571,468,-924
713,6400.903376000315,8,3208,-998,1,-737,489,-919
714,6409.789292000369,8,3014,-338,-132,-755,364,-795
715,6418.711207000342,8,2973,-54,-65,-819,250,-743
716,6427.635123000073,8,2783,96,-24,-814,157,-728
717,6436.5890379999655,8,2594,197,1,-777,94,-593
718,6445.360955000069,8,2602,180,46,-647,11,-456
719,6454.0958730003695,8,2478,286,4,-505,-21,-334
720,6463.014788000237,8,2351,369,8,-402,-69,-244
721,6471.880705000331,8,2385,424,28,-381,-99,-174
722,6480.7796200002485,8,2369,490,30,-433,-151,-106
723,6489.728536000257,8,2295,522,59,-491,-193,7
724,6498.651451000114,8,2284,521,166,-524,-228,108
725,6507.500368000365,8,2257,504,184,-510,-271,226
726,6516.316284000368,8,2260,457,116,-448,-347,323
727,6525.265200000376,8,2234,415,109,-337,-400,487
728,6534.071117000167,8,2275,339,144,-239,-467,630
729,6543.064031000085,8,2352,114,118,-84,-540,761
730,6551.857948000361,8,2420,-129,78,56,-611,863
731,6560.646865000308,8,2429,-406,120,152,-595,1026
732,6569.532781000362,8,2485,-715,163,208,-558,1155
733,6578.317698000319,8,2656,-1240,160,239,-266,1250
734,6587.223614000322,8,2721,-1452,167,249,-511,1535
735,6596.059530000275,8,2835,-1905,174,262,-517,1273
736,6604.857447000086,8,3013,-2246,274,286,-535,1206
737,6613.722363000306,8,3258,-2807,353,345,-573,1048
738,6622.530280000319,8,3288,-3069,434,409,-548,1061
739,6631.563195000126,9,3836,-2598,155,469,-639,1244
740,6640.44511100019,8,4104,-2992,227,432,-707,1224
741,6649.35402600031,8,4444,-2957,143,441,-707,1199
742,6658.2599420003135,8,4515,-3106,1251,520,-566,1271
743,6667.081859000064,8,4833,-3708,497,449,-479,1224
744,6675.907775000269,8,4935,-3494,85,589,-520,1066
745,6684.68569200013,8,5150,-4040,176,698,-554,812
746,6693.635608000022,8,5406,-3997,194,784,-617,613
747,6702.512524000213,8,5553,-4100,230,897,-583,488
748,6711.208442000043,8,5807,-4173,99,877,-526,309
749,6720.409355000356,9,5898,-4116,15,899,-524,176
750,6729.279270999996,8,5833,-4112,-68,893,-537,-36
751,6738.215186000161,8,5895,-4223,-510,921,-506,-329
752,6747.032103000038,8,5426,-3848,-335,967,-490,-571
753,6755.968018000203,8,5437,-3669,-402,982,-415,-793
754,6764.818935000221,8,5229,-3548,-500,957,-333,-1042
755,6773.7598500002605,8,5013,-3281,-486,978,-289,-1258
756,6782.5857670000005,8,4628,-3037,-396,1004,-326,-1471
757,6791.465683000297,8,4531,-2610,-402,1031,-417,-1672
758,6800.328599000295,8,4281,-2327,-377,1018,-544,-2032
759,6809.189515000071,8,4103,-2038,-392,972,-627,-1868
760,6818.11043100015,8,3626,-1852,-534,914,-698,-1888
761,6827.002346999961,8,3605,-1422,-806,814,-717,-1926
762,6835.917262000294,8,3376,-1255,-952,727,-646,-1935
763,6844.75417900012,8,3125,-962,-1069,710,-586,-1886
764,6853.682094000305,8,2982,-620,-1150,1013,-481,-1872
765,6862.4780110003485,8,2904,-473,-1187,850,-337,-1894
766,6871.337927000241,8,2933,-248,-1179,995,-218,-2083
767,6880.1998440003445,8,2293,1051,-1427,1042,3,-2024
768,6889.029760000085,8,2506,-938,-1092,992,94,-2319
769,6897.96567600024,8,2577,-914,-806,1055,44,-2691
770,6906.757592000304,8,2463,88,-637,947,-46,-2514
771,6915.572508999958,8,2147,438,-689,830,-197,-1886
772,6924.468425000214,8,2366,954,-744,761,-248,-1683
773,6933.21134200005,8,2454,1084,-758,665,-503,-1320
774,6941.991259000133,8,2500,1200,-837,616,-298,-1015
775,6950.880175000293,8,2535,1050,-924,658,-323,-539
776,6959.714092000013,8,2543,882,-966,731,-317,-592
777,6968.508009000288,8,2669,1119,-1043,812,-282,-317
778,6977.367925000181,8,2653,1154,-1242,484,-2,-135
779,6986.254841000118,8,2792,916,-1185,551,-163,24
780,6995.171756000218,8,2801,702,-781,555,-117,29
781,7004.00767300016,8,2917,736,-851,479,-43,141
782,7012.9205890002595,8,3007,459,-756,324,-29,135
783,7021.755505000328,8,3165,479,-632,289,-91,42
784,7030.630421000296,8,3328,613,-634,409,-120,35
785,7039.562337000007,8,3516,762,-909,312,-128,68
786,7048.3752530003585,8,3809,540,-932,403,-130,179
787,7057.39716800008,9,4025,782,-864,529,-179,301
788,7066.199085000335,8,4242,780,-1013,478,-131,417
789,7075.652994999928,9,4557,610,-967,434,-93,507
790,7084.553911000057,8,4805,323,-876,386,-52,536
791,7093.439827000111,8,5041,135,-872,353,10,558
792,7102.390743000342,8,5249,-52,-846,330,32,513
793,7111.211659000219,8,5605,-302,-806,229,89,423
794,7120.177574000081,8,5742,-664,-534,157,169,330
795,7129.0474900001755,8,5763,-918,-1037,185,197,269
796,7138.000406000174,8,6108,-1228,-858,39,354,122
797,7146.891322000101,8,5910,-1131,-715,-108,552,-252
798,7155.949236000197,9,6078,-1060,-993,-485,663,-175
799,7165.24514799994,9,5724,-1136,-834,-297,655,-267
800,7174.678059000144,9,5439,-1194,-752,-239,663,-407
801,7183.842972000093,9,5156,-1328,-658,-176,716,-587
802,7193.026886000098,9,4955,-1308,-416,-55,800,-790
803,7202.312798000094,9,4760,-1199,-286,43,749,-1022
804,7211.496711000109,9,4554,-903,-208,47,656,-1123
805,7220.746624000185,9,4409,-603,-139,-61,598,-1151
806,7229.945537000276,9,4143,-363,-145,-170,550,-1163
807,7239.179448999948,9,3934,-34,-213,-287,538,-1180
808,7248.386362000019,9,3740,113,-231,-352,516,-1134
809,7258.253269000306,9,3515,241,-280,-347,441,-1092
810,7267.26518400028,9,3198,360,-309,-399,511,-1095
811,7276.12709999994,8,3143,397,-260,-428,481,-1062
812,7285.10601500011,8,2984,541,-207,-478,408,-1013
813,7294.007931000124,8,2845,618,-108,-537,376,-950
814,7302.987846000178,8,2751,704,-51,-623,339,-885
815,7311.836762999974,8,2655,856,36,-668,253,-796
816,7320.692679000331,8,2639,1017,59,-751,182,-725
817,7329.607595000198,8,2554,1087,160,-844,114,-594
818,7338.509511000211,8,2373,1132,103,-918,25,-447
819,7347.431426000185,8,2402,1235,92,-965,-57,-301
820,7356.3753420003195,8,2280,1405,225,-944,-151,-55
821,7365.280257999984,8,2614,1331,58,-986,-136,44
822,7374.135174000003,8,2357,1408,3,-862,-215,200
823,7383.041090000006,8,2399,1258,-20,-764,-250,361
824,7391.901006000353,8,2477,1033,50,-681,-201,476
825,7400.793922000048,8,2520,857,163,-638,-148,530
826,7409.605839000051,8,2569,519,236,-597,-137,611
827,7418.3847560002505,8,2693,789,289,-598,-176,710
828,7427.3126709999815,8,2849,664,400,-615,-225,850
829,7436.130588000196,8,2907,681,304,-649,-286,1080
830,7445.074503000342,8,3067,303,285,-698,-332,1211
831,7453.902420000304,8,3157,254,273,-700,-378,1246
832,7462.6613370001,8,3238,-11,1,-643,-500,1238
833,7471.481254000082,8,3453,-111,149,-575,-586,1174
834,7480.290169999989,8,3602,-293,90,-259,-639,1157
835,7489.12308700028,8,3885,-320,-32,-487,-620,1129
836,7498.155002000203,9,4168,-420,-108,-498,-557,1142
837,7507.035917999929,8,4444,-384,-110,-491,-503,1207
838,7515.938834000281,8,4262,-198,22,-458,-459,1493
839,7524.8377490001985,8,5454,-822,-328,-496,-405,1229
840,7533.762665000268,8,5644,-1117,-430,-456,-354,975
841,7542.726580000362,8,5739,-1044,-535,-466,-212,859
842,7551.552497000102,8,5940,-1339,-607,-531,-113,722
843,7560.412412999995,8,6167,-1569,-647,-544,22,274
844,7569.365328999993,8,6143,-1775,-694,-534,115,329
845,7578.211245000148,8,6145,-1893,-666,-479,208,72
846,7587.095160999979,8,6111,-1901,-642,-404,318,-46
847,7595.994077000341,8,6038,-1540,-534,-378,488,-198
848,7604.896993000239,8,5781,-1678,-410,-387,564,-242
849,7613.899908000349,9,5562,-1411,-313,-395,597,-288
850,7622.872823000307,8,5330,-1311,-256,-452,1022,-411
851,7631.709739000144,8,4927,-1449,-130,-445,805,-605
852,7640.621655000359,8,4783,-1226,-14,-467,809,-874
853,7649.571571000251,8,4593,-912,20,-498,803,-1020
854,7658.531486000356,8,4274,-716,109,-526,786,-1080
855,7667.444402000001,8,4139,-441,136,-522,751,-1127
856,7676.303318000009,8,3954,-368,159,-479,734,-1118
857,7685.248233000038,8,3588,-228,247,-414,777,-1108
858,7694.072150000011,8,3627,-252,309,-364,758,-1129
859,7702.746068000124,8,3552,-73,367,-331,739,-1124
860,7711.581984000077,8,3425,5,430,-349,703,-1089
861,7720.434901000317,8,3299,108,457,-368,634,-1056
862,7729.277817000366,8,3178,139,480,-387,568,-1028
863,7738.152733000334,8,3042,139,502,-380,486,-990
864,7746.831651000321,8,2946,250,492,-393,430,-917
865,7755.57156900004,8,2904,415,398,-417,360,-837
866,7764.43248500027,8,2938,476,462,-443,324,-696
867,7773.2474019999245,8,2784,903,292,-585,228,-466
868,7782.004318999952,8,2861,361,272,-790,339,-495
869,7790.896235000218,8,2707,566,646,-518,298,-352
870,7799.78015100005,8,2595,629,557,-432,227,-245
871,7808.687066999937,8,2569,547,574,-389,213,-155
872,7817.461984000147,8,2496,562,680,-408,112,-101
873,7826.290900000004,8,2480,527,734,-414,38,-24
874,7835.173815999951,8,2507,557,708,-414,-22,80
875,7844.029733000298,8,2487,537,686,-449,-82,183
876,7852.99564800016,8,2506,260,649,-486,-159,282
877,7861.807565000163,8,2582,436,595,-492,-182,412
878,7870.751480000308,8,2618,421,604,-489,-202,537
879,7879.590396000367,8,2736,380,580,-444,-203,643
880,7888.469313000314,8,2919,260,574,-359,-200,711
881,7897.427228000197,8,3057,161,619,-294,-195,791
882,7906.336144000306,8,3558,66,682,-234,-167,861
883,7915.2740590002395,8,3683,-72,769,-156,-148,923
884,7924.157975000071,8,3892,-410,833,-94,-159,960
885,7933.058891000201,8,4128,-807,842,-50,-150,952
886,7941.996807000123,8,4368,-1140,867,-18,-162,899
887,7950.949722000132,8,4681,-1333,818,16,-176,828
888,7959.709639000266,8,4990,-1560,816,50,-203,901
889,7968.983552000282,9,5125,-1683,768,103,-211,814
890,7978.287464000005,9,5549,-2114,730,83,-129,561
891,7987.486377000096,9,5712,-2171,620,84,-112,341
892,7996.944287000133,9,5858,-2347,593,53,22,139
893,8006.168200000047,9,5881,-2312,608,73,56,-99
894,8015.391113000078,9,5901,-2174,640,143,119,-286
895,8024.6030260000225,9,5812,-1945,675,207,190,-482
896,8033.89893800022,9,5700,-1747,739,282,508,-633
897,8043.081851000352,9,5470,-1486,807,314,319,-1024
898,8052.413763000004,9,5262,-1259,877,325,351,-905
899,8061.380678000205,8,4995,-933,931,305,378,-989
900,8071.081587000208,9,4766,-702,946,290,380,-1053
901,8080.556497000089,9,4513,-471,919,302,370,-1080
902,8089.543412000239,8,4280,-233,886,342,342,-1041
903,8098.427328000071,8,3843,-57,806,353,328,-989
904,8107.365243999993,8,3842,42,788,364,316,-941
905,8116.172160000133,8,3673,208,773,359,272,-886
906,8125.309074000143,9,3453,339,757,370,225,-800
907,8134.1459909999685,8,3582,550,722,413,183,-957
908,8143.0309070001385,8,2928,487,858,331,113,-886
909,8151.92282299995,8,3067,662,982,162,186,-728
910,8160.8477380000295,8,2825,744,1007,173,68,-556
911,8169.730653999977,8,2901,726,1164,315,-104,-456
912,8178.638570000203,8,3007,850,1250,389,-512,-337
913,8187.520486000267,8,2733,964,1320,390,-503,-181
914,8196.53240100024,9,2523,1005,1089,35,-697,-33
915,8205.349318000117,8,2479,843,886,173,-750,22
916,8214.088234999963,8,2393,660,734,141,-761,59
917,8223.03415100032,8,2444,676,641,164,-735,93
918,8231.834067000364,8,2813,755,587,180,-681,112
919,8240.771983000286,8,2501,880,547,159,-682,230
920,8249.593900000036,8,2567,909,520,132,-701,359
921,8258.437815999969,8,2646,835,508,116,-740,463
922,8267.390731999967,8,2671,635,456,156,-755,602
923,8276.19864799999,8,2850,668,473,219,-767,672
924,8285.133564000262,8,2964,593,479,264,-808,760
925,8293.89448100028,8,3087,480,452,299,-853,851
926,8302.718398000252,8,3255,285,393,340,-901,874
927,8311.480315000153,8,3358,123,354,373,-959,866
928,8320.29723200003,8,3522,-21,212,321,-997,831
929,8329.063149000376,8,3647,-145,49,310,-1030,794
930,8338.022064000143,8,3843,-227,-73,281,-1014,769
931,8346.866980999948,8,3934,-326,-230,274,-987,762
932,8355.790896000144,8,4148,-430,-267,338,-939,723
933,8364.586813000187,8,4204,-758,-286,434,-901,708
934,8373.400729999958,8,4440,-511,-396,464,-832,697
935,8382.321646000037,8,4614,-588,-508,452,-813,624
936,8391.144562000136,8,4640,-805,-533,478,-795,609
937,8400.072478000311,8,4857,-675,-656,431,-755,561
938,8408.92739400033,8,4920,-797,-699,377,-679,267
939,8417.732311000236,8,4964,-837,-806,312,-603,454
940,8426.647227000103,8,5008,-929,-854,260,-538,383
941,8435.510143000101,8,5033,-941,-840,246,-478,279
942,8444.415059000221,8,5003,-871,-863,261,-405,196
943,8453.370975000325,8,5012,-720,-890,267,-344,117
944,8462.50088800025,9,5069,-601,-921,287,-19,66
945,8471.446804000152,8,5069,-493,-893,313,-186,25
946,8480.361720000019,8,5023,-471,-774,352,-122,-19
947,8489.236635999987,8,4871,-446,-750,389,-79,-22
948,8498.200551000082,8,4815,-361,-793,370,-19,-41
949,8507.096467000338,8,4658,-547,-822,353,45,-86
950,8516.01438300031,8,4473,-632,-786,353,103,-189
951,8524.913299000218,8,4319,-624,-734,359,150,-261
952,8533.824215000095,8,4206,-559,-695,381,188,-319
953,8542.83612900008,9,4102,-474,-665,412,214,-361
954,8551.683046000107,8,3973,-398,-633,442,233,-380
955,8560.527961999924,8,3821,-385,-603,504,511,-392
956,8569.59587700021,9,3701,-375,-478,535,281,-413
957,8578.439793000143,8,3597,-300,-392,529,279,-440
958,8587.403708000238,8,3541,-190,-238,259,250,-445
959,8596.244625000054,8,3461,-49,-144,452,196,-407
960,8605.225539999992,8,3421,102,-102,380,113,-357
961,8614.098456000193,8,3366,171,-73,337,49,-296
962,8623.003372000312,8,3298,256,-75,306,-9,-254
963,8631.785289000163,8,3202,356,-148,284,-61,-227
964,8640.615206000348,8,3175,316,-116,271,-121,-156
965,8649.486122000326,8,3163,353,-133,228,-149,-91
966,8658.32503799993,8,3167,385,-114,220,-179,-54
967,8667.07595600019,8,3171,406,-138,207,-236,-3
968,8675.931872000092,8,3226,403,-169,189,-274,35
969,8684.732789000009,8,3224,405,-180,168,-308,85
970,8693.666703999952,8,3258,432,-212,162,-343,148
971,8702.59962,8,3313,474,-206,151,-389,197
972,8711.383537000074,8,3354,445,-262,121,-423,270
973,8720.123455000248,8,3411,428,-334,90,-440,333
974,8728.98737100013,8,3406,304,-414,84,-453,391
975,8737.903287000336,8,3473,209,-483,98,-468,396
976,8746.735203000298,8,3553,95,-534,147,-464,391
977,8755.620119000014,8,3644,14,-572,190,-463,371
978,8765.238028000113,9,3783,-33,-658,172,-471,355
979,8774.67993900018,9,3855,-143,-732,120,-483,364
980,8783.857851999983,9,4001,-148,-828,28,-468,374
981,8793.293763000293,9,4208,-147,-971,-39,-478,380
982,8802.607675000218,9,4423,-265,-1197,-72,-457,400
983,8811.803588000203,9,4660,-340,-1356,-71,-374,369
984,8821.046501000183,9,4864,-412,-1626,-52,-296,288
985,8830.237414000294,9,5116,-446,-1729,-43,-161,204
986,8839.485327000148,9,5215,-561,-1911,-33,-38,107
987,8848.688240000229,9,5405,-513,-1857,-24,124,13
988,8857.921153000007,9,5431,-890,-1839,-33,353,-82
989,8867.48006200014,9,5485,-840,-1747,-91,478,-191
990,8877.346968999973,9,5450,-923,-1599,-122,648,-317
991,8888.977859000079,11,5289,-885,-1460,-220,759,-426
992,8897.900774999925,8,5191,-826,-1025,-274,867,-572
993,8906.82069100012,8,5016,-609,-1026,-324,912,-667
994,8915.683607000119,8,4850,-444,-871,-358,940,-728
995,8924.546523000117,8,4644,-347,-707,-383,984,-782
996,8933.474439000292,8,4416,-190,-552,-403,1007,-840
997,8942.395355000372,8,4207,-95,-385,-441,1024,-880
998,8951.220271000238,8,4006,39,-236,-525,1030,-898
999,8960.196187000292,8,3802,131,-150,-615,1013,-906
1000,8969.041103000109,8,3617,186,244,-663,1000,-899
1001,8977.887019000264,8,3445,295,165,-716,961,-890
1002,8986.73593600006,8,3236,401,207,-680,915,-869
1003,8995.50585299994,8,3123,733,234,-664,876,-833
