,time_ms,delta_ms,aX,aY,aZ,gX,gY,gZ
0,0.0,0,560,-4292,-1083,38,228,545
1,10.348903999783943,10,621,-4101,-903,-71,-8,516
2,19.631817000117735,9,698,-4545,-920,-82,-56,532
3,28.8987310000266,9,553,-4760,-1117,96,-239,481
4,38.30664399993111,9,338,-4946,-1459,484,-305,274
5,47.60355700000218,9,165,-5255,-1871,784,-213,-25
6,56.82447199978924,9,18,-5548,-2206,1036,-197,-181
7,65.97238699987429,9,5,-5739,-2201,1196,-98,-231
8,75.21230099973764,9,31,-5771,-2137,1203,20,-237
9,84.44421500007593,9,42,-5734,-2068,1083,97,-266
10,93.66012899999987,9,96,-5623,-1850,922,127,-375
11,102.8460439997616,9,42,-5584,-1700,672,114,-475
12,112.48495399968306,9,19,-5567,-1623,413,36,-680
13,121.50986999995439,9,93,-5722,-1507,235,-17,-846
14,130.31878799984042,8,75,-5778,-1686,85,-118,-980
15,139.1697059998478,8,-29,-5921,-1879,-1,-511,-1080
16,148.042624000027,8,-76,-6204,-2520,-4,-305,-1194
17,156.8525419997968,8,-113,-6492,-2554,48,-212,-1315
18,165.64845999982936,8,-43,-6908,-2489,28,253,-1389
19,174.55637700004445,8,-24,-6622,-2188,-60,509,-1482
20,183.21129700007077,8,171,-6140,-1597,-199,521,-1585
21,191.9842150000477,8,220,-5879,-1312,-386,546,-1694
22,200.88713199993435,8,452,-5509,-1377,-624,497,-1743
23,209.76005000011355,8,299,-5028,-1181,-788,434,-1842
24,218.6559669999042,8,294,-5380,-1084,-798,470,-1878
25,227.45488600003227,8,368,-5243,-1476,-815,528,-1877
26,236.30480299971168,8,419,-5212,-1129,-818,597,-1913
27,245.211720000043,8,722,-5427,-1182,-673,820,-1865
28,254.14763699973264,8,908,-5379,-980,-667,878,-1837
29,263.06355399992754,8,1137,-5295,-745,-722,909,-1835
30,271.96847200002594,8,1518,-5154,-671,-737,869,-1814
31,280.90538900005413,8,1329,-4788,-663,-795,522,-1835
32,289.78930599987507,8,1392,-4356,-657,-808,703,-1812
33,298.71322300004977,8,1400,-3996,-721,-523,652,-1729
34,307.59914100008245,8,1341,-3924,-800,-720,630,-1668
35,316.42805799992857,8,1332,-3818,-769,-615,677,-1707
36,325.4319749999013,9,1407,-3496,-639,-513,803,-2047
37,334.40889099983906,8,1465,-3409,-631,-402,844,-1760
38,343.11980999973457,8,1478,-3270,-478,-304,836,-1685
39,352.5337229998513,9,1546,-3127,-259,-315,819,-1654
40,361.3886409998486,8,1736,-3158,-266,-330,766,-1613
41,370.32455700000355,8,1574,-2878,-428,-380,607,-1584
42,379.1774749997785,8,1601,-2782,-346,-359,481,-1453
43,388.2073909999235,9,1589,-2293,-379,-247,487,-1366
44,397.1093079999264,8,1514,-1927,-554,-194,460,-1317
45,406.07122499977777,8,1467,-1528,-643,-232,399,-1360
46,414.9191430001338,8,1452,-1542,-581,-298,391,-1359
47,423.86906000001545,8,1548,-1618,-463,-338,464,-1227
48,432.7079780000531,8,1665,-1701,-311,-361,521,-1025
49,442.09488999968016,9,1716,-1860,-181,-9,440,-789
50,451.5868019998379,9,2046,-1926,-54,-186,392,-679
51,460.33972099985476,8,1836,-1919,-81,-184,343,-634
52,469.14163900009953,8,1859,-1919,-120,-94,4,-588
53,478.1155549999312,8,1789,-1682,-191,-208,84,-515
54,486.98247299989816,8,1838,-1677,-234,-229,-38,-405
55,495.8613899998454,8,1820,-1622,-370,-106,-120,-260
56,504.7533080000903,8,1844,-1352,-734,-170,-254,-217
57,513.6062259998653,8,1941,-1707,-745,-73,-144,-121
58,522.4241440000696,8,2043,872,397,-128,-142,-92
59,531.2830610000674,8,2219,-2713,-1021,-210,-57,158
60,540.2219779998632,8,2425,-1562,-692,28,21,409
61,549.3898929998977,9,1807,-1891,-620,-107,48,325
62,558.2038110001122,8,2361,-1938,-580,238,107,62
63,567.0197290000942,8,2086,-1993,-547,30,87,-342
64,576.036644999931,9,2201,-2048,-596,54,23,-491
65,584.8835629999485,8,2114,-1900,-602,48,-85,-431
66,593.8264799997341,8,2082,-1825,-753,-47,-476,-271
67,602.7193969998734,8,2108,-1908,-857,-188,-373,-68
68,611.6563139999016,8,2202,-2041,-997,-308,-514,95
69,620.6002310000258,8,2246,-2113,-990,-352,-540,241
70,629.5211480000944,8,2318,-2541,-1022,-324,-502,320
71,638.410064999789,8,2310,-2474,-1086,-254,-461,390
72,647.3419819999435,8,2267,-2583,-1238,-240,-470,472
73,656.2178999997741,8,2217,-2693,-1392,-314,-556,535
74,665.166816999772,8,2133,-2862,-1409,-484,-663,550
75,674.0687339997748,8,2115,-2983,-1393,-567,-710,489
76,683.0286509998587,8,2093,-3039,-1507,-257,-704,385
77,691.8755679998867,8,2154,-3138,-1596,-365,-659,325
78,700.6374869997671,8,2131,-3183,-1654,-127,-291,305
79,709.4864050000069,8,2114,-3159,-1763,50,-365,297
80,718.3793219996915,8,2055,-3154,-1718,215,-231,320
81,727.2502400001031,8,1799,-3184,-1491,335,-127,363
82,736.2031560001014,8,2069,-3339,-1339,408,-58,387
83,745.0910739999017,8,2012,-3313,-1182,457,-56,341
84,753.9159919997473,8,2087,-3476,-1078,485,-81,289
85,762.7499099999113,8,2064,-3583,-949,503,-132,250
86,771.6478269999243,8,2150,-3621,-871,539,-149,207
87,780.4967449997093,8,2179,-3643,-885,579,-170,197
88,789.4186620001165,8,2196,-3661,-867,611,-191,217
89,798.200579999957,8,2175,-3690,-815,631,-205,229
90,807.0124979999491,8,2138,-3729,-831,607,-300,199
91,816.9534059998114,9,2205,-3788,-744,567,-417,100
92,826.3223189997007,9,2243,-3744,-653,569,-512,31
93,835.6042319996959,9,2059,-3704,-574,591,-537,20
94,844.8251469999377,9,2307,-3721,-618,644,-556,36
95,854.1280599997663,9,2305,-3729,-781,647,-605,48
96,863.3699739998519,9,2254,-3726,-879,598,-682,64
97,872.6748879998922,9,2259,-3719,-971,523,-786,52
98,881.9018019999021,9,2226,-3751,-1099,449,-866,25
99,891.286714999751,9,2254,-3750,-1155,418,-925,-12
100,901.2656219997552,9,2305,-3767,-1238,382,-981,-25
101,914.1065029998572,12,2267,-3756,-1438,289,-1090,-25
102,923.1074189997344,9,2257,-3740,-1590,213,-1162,-55
103,931.8933370000195,8,2246,-3758,-1789,145,-1199,-91
104,940.7672550000825,8,2265,-3710,-1872,86,-1208,-122
105,949.5361730000695,8,2274,-3341,-1971,74,-1204,-135
106,958.3360920000814,8,2254,-3555,-2071,70,-1188,-129
107,967.232008999872,8,2223,-3554,-2232,77,-1139,-160
108,976.0769270001219,8,2246,-3536,-2328,105,-1077,-202
109,984.9408439999934,8,2300,-3472,-2384,148,-999,-205
110,993.9057609999509,8,2389,-3528,-2446,181,-901,-183
111,1002.771679000034,8,2461,-3685,-2573,176,-818,-191
112,1011.6755959998045,8,2478,-3776,-2673,195,-754,-250
113,1020.6165129998226,8,2533,-3801,-2764,229,-700,-337
114,1029.5154299997193,8,2588,-3853,-2923,298,-610,-457
115,1038.3883479998985,8,2750,-3980,-3076,433,-467,-596
116,1047.2832649998054,8,2990,-4037,-3078,620,-28,-710
117,1056.1501829997724,8,3258,-4526,-3167,702,-91,-787
118,1065.0350999999318,8,3402,-4619,-3109,668,-101,-815
119,1074.137015999895,9,3541,-4682,-2957,561,-103,-874
120,1083.177932000126,9,3624,-4108,-2866,402,-69,-952
121,1092.0538489999672,8,3596,-3925,-2856,260,-121,-1001
122,1100.9937660001015,8,3535,-3790,-2894,120,-177,-1024
123,1109.8476839997602,8,3530,-3680,-2962,48,-143,-1091
124,1118.7766009998086,8,3561,-3561,-3007,40,-33,-1191
125,1127.5965189997805,8,3651,-3603,-2978,66,91,-1243
126,1136.4524370001163,8,3747,-3684,-2790,81,216,-1286
127,1145.3523539998969,8,3785,-3737,-2657,122,366,-1366
128,1154.307271000107,8,3838,-3640,-2576,148,755,-1449
129,1163.1221889997505,8,3779,-3410,-2466,91,627,-1521
130,1171.9631070000105,8,3679,-3221,-2282,17,702,-1564
131,1180.955023000024,8,3569,-3139,-2225,-23,769,-1566
132,1189.756940999814,8,3361,-2822,-2129,-12,800,-1587
133,1198.4398609997697,8,3330,-2965,-2068,19,850,-1655
134,1207.0327809997252,8,3378,-2955,-1973,58,955,-1713
135,1215.9206979999908,8,3411,-2883,-1894,86,1055,-1745
136,1224.7166160000234,8,3389,-2851,-1760,63,1113,-1746
137,1233.514534999813,8,3406,-2812,-1631,-33,1125,-1712
138,1242.340452999997,8,3375,-2638,-1540,-215,1059,-1644
139,1252.6693569998315,10,3301,-2514,-1554,-348,970,-1609
140,1261.5302740000516,8,3204,-2420,-1584,-423,947,-1612
141,1270.3781919999528,8,3115,-2324,-1694,-427,975,-1612
142,1279.1811100000814,8,3022,-2219,-1722,-333,1033,-1629
143,1288.0840279999575,8,3043,-2213,-1725,-240,1170,-1673
144,1296.8749460001163,8,3095,-2304,-1630,-156,1300,-1738
145,1305.7228640000176,8,3146,-2177,-1504,-135,1377,-1819
146,1314.6187809998082,8,3185,-1907,-1404,-127,1367,-1817
147,1323.4876989999975,8,3206,-1739,-1286,-151,1339,-1713
148,1332.3896160000004,8,3156,-1603,-1101,-206,1346,-1548
149,1341.6025299998182,9,3035,-1287,-1069,-229,1314,-1477
150,1350.4894479997347,8,3049,-1113,-967,-263,1302,-1446
151,1359.3883650000862,8,2969,-1170,-771,-281,1312,-1430
152,1368.3352819998618,8,3058,-1277,-1017,-381,1373,-1445
153,1377.228199000001,8,3020,-1576,-834,-418,1462,-1464
154,1386.1691160000191,8,2960,-1489,-651,-488,1459,-1464
155,1395.0130339999305,8,2816,-1412,-526,-573,1347,-1469
156,1403.9059510000698,8,2821,-1070,-286,-643,1235,-1391
157,1412.7588689998447,8,2881,-848,-270,-907,1166,-1319
158,1421.6937860001053,8,2814,-767,-267,-974,1075,-1240
159,1430.5957040000976,8,2809,-411,-191,-1020,906,-1113
160,1439.5286209996812,8,2756,-349,-158,-1002,789,-987
161,1448.3755379997092,8,2755,-34,-93,-867,698,-868
162,1457.3054550000961,8,2723,-276,44,-764,644,-788
163,1466.1233729998457,8,2685,-663,94,-651,613,-711
164,1474.942290999934,8,2658,-791,151,-553,564,-716
165,1483.9282079997247,8,2785,-876,244,-459,560,-795
166,1492.7311259998532,8,2826,-1025,238,-427,515,-894
167,1501.7530420000185,9,2924,-983,226,-433,430,-1011
168,1510.5699599998843,8,2988,-870,219,-455,330,-1058
169,1519.4538779996947,8,2979,-754,213,-524,204,-1089
170,1528.2807959997626,8,3043,-658,206,-558,64,-1095
171,1537.0717139999215,8,3034,-485,266,-568,-10,-1070
172,1545.9386319998885,8,2958,-403,343,-588,-76,-1040
173,1554.763549999734,8,2933,-325,280,-564,-144,-953
174,1563.6144679997415,8,2884,-156,93,-561,-199,-872
175,1572.5203849997342,8,2974,-32,-104,-540,-209,-767
176,1581.333303000065,8,3323,-6,-187,-527,-174,-608
177,1590.256219999901,8,3137,-111,-159,-506,-122,-497
178,1599.1181379999944,8,3173,-217,-194,-411,-110,-419
179,1608.003054999699,8,3202,-327,-240,-313,-98,-370
180,1616.6699749996951,8,3194,-395,-229,-223,-94,-344
181,1625.4658929997277,8,3157,-276,-179,-120,-127,-314
182,1634.4208099999378,8,3379,-323,-144,28,-158,-241
183,1643.2607279998592,8,3454,-849,134,95,-225,-186
184,1652.1056450001197,8,3309,-273,-129,420,-115,-126
185,1661.0055629998897,8,3350,-42,-298,377,-114,-145
186,1669.8934799997005,8,3300,-418,-734,30,-107,-11
187,1678.7843970000722,8,3129,-45,-303,-120,-338,-454
188,1687.763313999767,8,3544,-555,-650,-415,-363,-579
189,1696.604232000027,8,3980,-1198,-187,-588,-427,-687
190,1705.484148999858,8,3199,-12,-507,-33,-276,-346
191,1714.3270669998856,8,3284,-68,-142,104,-526,-229
192,1723.2049849999385,8,3402,-70,18,251,-726,-140
193,1732.04490299986,8,3402,-698,-146,1159,-1033,-110
194,1740.924819999691,8,3676,-67,-469,998,-1238,-221
195,1749.8307369996837,8,3841,49,-358,854,-1147,-219
196,1758.7456539999948,8,4070,164,-364,685,-934,-115
197,1767.615572000068,8,4083,569,-414,445,-804,4
198,1776.4524899998833,8,4104,968,-641,249,-650,24
199,1785.3704069998457,8,4231,826,-339,104,-632,20
200,1794.1653249999945,8,4408,633,-455,-22,-214,13
201,1803.1932409999172,9,4559,352,-276,-197,7,-59
202,1812.035159000061,8,4757,195,-279,-358,29,-84
203,1820.9600760001194,8,4974,101,-308,-403,232,-74
204,1829.7979939998186,8,5060,135,-378,-340,502,-36
205,1838.7149109998973,8,4995,106,-451,-251,590,-8
206,1847.5888289999602,8,4987,-111,-475,-90,668,24
207,1856.3557479997144,8,4772,-98,-322,20,709,47
208,1865.192664999995,8,4606,-109,-329,63,606,86
209,1873.992584000007,8,4502,-182,-356,35,499,114
210,1882.7845020000495,8,4325,-104,-375,-41,462,134
211,1891.617419999875,8,4127,45,-422,-92,389,79
212,1900.983333000113,9,4056,50,-367,-120,330,14
213,1909.770250999827,8,3948,165,-328,-155,308,-18
214,1918.708167999739,8,3804,225,-444,-204,2,-5
215,1927.4630869999783,8,3754,268,-422,-206,198,-9
216,1936.2590050000108,8,3772,116,-377,-228,207,-4
217,1945.2029219996803,8,3763,50,-304,-223,203,-5
218,1954.0338399997381,8,3819,-10,-291,-173,146,-28
219,1962.949756999933,8,3748,-29,-5,-190,54,-43
220,1971.8186750001223,8,3665,42,-29,-246,-4,1
221,1980.6215929997961,8,3704,97,-190,-309,-40,22
222,1989.5455099999708,8,3606,503,-173,-307,-52,90
223,1998.3804280000186,8,3563,378,-244,-253,-82,120
224,2007.2933450001074,8,3434,449,-6,-191,-97,158
225,2016.1922629999935,8,3477,356,53,-172,-75,216
226,2025.0821800000267,8,3491,425,132,-165,-70,322
227,2033.94409800012,8,3497,476,213,-178,-120,438
228,2042.7270159998443,8,3499,494,346,-156,-172,579
229,2051.661933000105,8,3477,362,495,-134,-233,641
230,2060.4938510000466,8,3427,316,542,-143,-321,725
231,2069.422768000095,8,3399,367,263,-181,-440,800
232,2078.2996859998093,8,3317,263,469,-238,-538,861
233,2087.260602999777,8,3279,149,374,-282,-605,880
234,2096.0915209998348,8,3226,122,273,-308,-706,898
235,2104.977437999878,8,3218,28,212,-321,-777,933
236,2113.8613559996884,8,3217,-194,138,-349,-837,984
237,2122.720272999686,8,3120,-112,57,-345,-936,1026
238,2131.6711899999063,8,3198,-133,-50,-360,-1275,1095
239,2140.5411079999794,8,3258,-151,-159,-341,-1105,1179
240,2149.536024000099,8,3243,-176,-217,-314,-1133,1276
241,2158.3439420001014,8,3233,-176,-323,-250,-1189,1351
242,2167.2418600001038,8,3185,-292,-418,-149,-1223,1431
243,2176.028777999818,8,3087,-545,-601,-69,-1216,1454
244,2185.7796879999114,9,3077,-693,-705,25,-1188,1443
245,2194.652605000101,8,3095,-1166,-1005,69,-1107,1431
246,2203.461522999987,8,2705,-867,-986,109,-1146,1373
247,2212.2944409998127,8,2938,-952,-913,135,-1072,1388
248,2221.03135999987,8,2931,-1073,-837,128,-1043,1407
249,2229.6712799998204,8,2816,-1271,-788,87,-1112,1435
250,2238.5511980000956,8,2874,-982,-719,-14,-1166,1506
251,2247.344116000022,8,2852,-960,-1017,-149,-1266,1608
252,2256.109034000019,8,2786,-961,-869,-291,-1415,1762
253,2264.8709529998996,8,2684,-1078,-1032,-389,-1488,1879
254,2273.7628699997003,8,2463,-1225,-1334,-344,-1531,1926
255,2283.0067849999978,9,2376,-1703,-1568,-210,-1471,1929
256,2291.8997019996823,8,2248,-1987,-1636,-62,-1352,1885
257,2300.826618999963,8,2221,-1994,-1665,127,-1227,1823
258,2309.6135380001215,8,2235,-2031,-1536,174,-1117,1780
259,2319.3504470000335,9,2223,-1981,-1389,95,-1108,1774
260,2328.5253619997093,9,2188,-1852,-1345,-52,-1206,1830
261,2337.8862750000735,9,1988,-1771,-1582,-206,-1364,1884
262,2347.011190000103,9,1815,-1776,-1830,-320,-1495,1924
263,2356.356103000053,9,1709,-1841,-2042,-319,-1476,1965
264,2365.5970179997894,9,1632,-2296,-2121,-213,-1399,2003
265,2374.8479319997386,9,1654,-2397,-2123,-142,-1329,2015
266,2384.143844999926,9,1649,-2624,-2104,-131,-1280,1994
267,2393.3367599997837,9,1672,-2747,-2098,-197,-1307,1901
268,2402.7356729998246,9,1495,-2872,-2220,-300,-1397,1844
269,2412.0295859997896,9,1431,-2875,-2550,-315,-1426,1745
270,2421.8004959998325,9,1357,-3022,-2562,-220,-1411,1661
271,2430.66341299982,8,1404,-3211,-2645,-25,-1323,1633
272,2439.5653309998124,8,1462,-3249,-2628,157,-1165,1613
273,2448.382249000133,8,1608,-3268,-2440,511,-1046,1625
274,2457.3651649998283,8,1643,-3357,-2328,218,-1006,1648
275,2466.200082999876,8,1575,-3478,-2252,90,-1055,1643
276,2475.167000000056,8,1373,-3457,-2777,-64,-1169,1599
277,2484.0399179997803,8,1215,-3496,-2719,-124,-1232,1466
278,2493.002833999981,8,1157,-3360,-3068,-69,-1241,1383
279,2501.8877520001297,8,1153,-3493,-3149,103,-1215,1360
280,2510.755668999991,8,1223,-3601,-3400,279,-1113,1317
281,2519.6675869997307,8,1504,-3713,-3411,422,-1036,1301
282,2528.559503999986,8,1437,-3883,-3378,496,-920,1278
283,2537.3744220000845,8,1384,-4227,-3288,444,-839,1236
284,2546.139341000071,8,1311,-4311,-3192,366,-859,1162
285,2554.948258999957,8,1275,-4269,-3193,311,-869,1061
286,2563.7881769998785,8,1123,-4344,-3269,395,-903,1035
287,2572.6030949999767,8,1164,-4225,-3307,483,-922,864
288,2581.436012999802,8,1282,-4198,-3388,536,-705,656
289,2590.370930000063,8,1326,-3937,-3317,603,-524,620
290,2599.141848999807,8,1491,-4123,-3220,607,-454,681
291,2607.9867660000673,8,1467,-4153,-3157,554,-478,720
292,2616.7966849998265,8,1397,-3340,-3437,495,-513,660
293,2625.592602999859,8,1325,-4456,-3244,215,-494,613
294,2634.5095199999378,8,1177,-4576,-3266,148,-545,567
295,2643.379438000011,8,1154,-4500,-3411,197,-538,431
296,2652.2933549999834,8,1205,-4440,-3366,258,-424,10
297,2661.1482729999807,8,1250,-4332,-3296,297,-286,163
298,2670.089189999999,8,1368,-4312,-3106,276,-191,132
299,2678.887107999799,8,1392,-4223,-3023,216,-157,90
300,2687.9400239999995,9,1468,-4185,-2860,182,-115,71
301,2696.7669420000675,8,1424,-4189,-2792,137,-91,112
302,2705.6568590001007,8,1455,-4134,-2820,128,-92,111
303,2714.5987760000025,8,1345,-3846,-2872,146,-77,73
304,2723.4626939998634,8,1300,-4071,-2869,144,-37,38
305,2732.2886120000476,8,1027,-4054,-2818,131,-29,-61
306,2741.044530999716,8,1256,-4011,-2753,100,-28,-154
307,2749.8784489998798,8,1256,-3961,-2694,86,1,-246
308,2758.7993659999483,8,1265,-3932,-2665,82,39,-288
309,2767.6502829999663,8,1265,-3817,-2635,84,55,-306
310,2776.535201000115,8,1296,-3775,-2565,114,76,-336
311,2785.403118999966,8,1293,-3860,-2506,118,108,-270
312,2794.2770360000395,8,1265,-3743,-2403,131,85,-331
313,2803.2899519998864,9,1257,-3703,-2392,132,60,-387
314,2812.1968699997524,8,1239,-3666,-2358,133,49,-380
315,2821.0487880000983,8,1196,-3596,-2375,141,54,-396
316,2829.863705999742,8,1191,-3498,-2374,150,75,-397
317,2838.7806229998205,8,1200,-3425,-2359,151,94,-369
318,2847.6145409999845,8,1173,-3375,-2353,123,109,-309
319,2856.428458999744,8,1193,-3384,-2337,108,107,-278
320,2865.267376999782,8,1200,-3403,-2333,101,90,-301
321,2874.1552940000474,8,1192,-3409,-2312,113,77,-312
322,2883.0192119999083,8,1179,-3395,-2310,115,73,-310
323,2891.8461299999763,8,1199,-3405,-2288,132,70,-303
324,2901.0620439999,9,1173,-3379,-2314,127,96,-282
325,2909.862962999796,8,1303,-3419,-2282,120,117,-279
326,2918.7938800000666,8,1154,-3517,-2287,112,99,-266
327,2927.5487979998616,8,1243,-3635,-2390,112,96,-278
328,2936.3307169996915,8,1272,-3657,-2414,128,86,-315
329,2945.218633999957,8,1342,-3692,-2474,140,78,-339
330,2954.052552000121,8,1416,-3722,-2560,149,90,-371
331,2962.9544700001134,8,1515,-4059,-2646,154,143,-399
332,2971.7853879997165,8,1536,-3997,-3060,149,202,-411
333,2980.595305999941,8,1653,-4199,-2890,203,245,-444
334,2989.5642229998884,8,1612,-4489,-3057,316,310,-490
335,2998.3801409998705,8,1688,-4712,-3112,383,439,-567
336,3007.3810569997477,9,1742,-4748,-2819,410,593,-702
337,3016.1969749997297,8,1790,-4723,-2977,394,722,-881
338,3025.102892999712,8,1889,-4614,-2850,313,805,-987
339,3033.892810999987,8,1906,-4486,-2840,197,800,-1084
340,3042.708728999969,8,2062,-4380,-2876,181,805,-1153
341,3051.731645000018,9,2028,-4380,-2814,144,826,-1194
342,3060.5675629999496,8,2075,-4397,-2811,142,853,-1230
343,3069.5064799997454,8,2104,-4430,-2800,162,880,-1276
344,3078.41039799996,8,2099,-4553,-2792,193,943,-1349
345,3087.3433149999983,8,2115,-4451,-2721,227,1020,-1504
346,3096.211232999849,8,2090,-4322,-2566,269,1092,-1610
347,3105.2541489998475,9,2124,-4186,-2385,253,1141,-1677
348,3114.1010659998756,8,2088,-4007,-2062,216,1153,-1715
349,3123.047983000106,8,1795,-3821,-2301,160,1123,-1744
350,3132.4948960000256,9,1999,-3718,-2373,127,1072,-1768
351,3141.7888089999906,9,2036,-3631,-2292,145,1086,-1805
352,3151.119722999738,9,1971,-3655,-2256,161,1143,-2047
353,3160.3656369998134,9,1887,-3451,-2186,203,1179,-1860
354,3169.6775509999497,9,1980,-3110,-2008,214,1231,-1932
355,3178.920464999919,9,1969,-3138,-1834,176,1245,-1969
356,3188.1303790000857,9,1978,-3138,-1710,76,1207,-1942
357,3197.42429300004,9,1885,-2887,-1552,-42,1157,-1956
358,3206.6182079997816,9,1855,-2934,-1584,-61,1120,-1946
359,3215.8881219997966,9,1915,-2510,-1531,-116,1061,-2025
360,3224.9960369999826,9,1896,-2499,-1553,-141,1015,-2116
361,3234.7069469997223,9,2112,-2415,-1380,-115,1027,-2088
362,3243.4008659997744,8,2185,-2587,-1276,-136,1065,-2020
363,3252.2457840000243,8,2217,-2433,-1245,-133,1099,-1944
364,3261.0577020000164,8,2248,-2271,-1376,-193,1107,-1912
365,3269.8136209996846,8,2246,-2198,-1312,-275,1124,-1882
366,3278.95753599978,9,2276,-1971,-1311,-241,1224,-1940
367,3288.8524439999856,9,2283,-2017,-1251,-195,1263,-1972
368,3297.685361999811,8,2311,-1944,-1221,-153,1217,-1976
369,3306.511279999995,8,2354,-1937,-1233,-144,1175,-1939
370,3315.3101990001232,8,2504,-2060,-1196,-170,1155,-1874
371,3324.1291169997567,8,2495,-1978,-1283,-231,1117,-1818
372,3333.0940329997247,8,2530,-1992,-1433,-230,1104,-1809
373,3341.899951999949,8,2559,-1859,-1341,-182,1163,-1804
374,3350.8458689998406,8,2624,-1709,-1247,-148,1214,-1806
375,3359.7037859999546,8,2793,-1607,-1139,-108,1245,-1790
376,3368.6297039998863,8,2783,-1678,-978,-126,1297,-2047
377,3377.5306210000053,8,2688,-1482,-858,-163,1253,-1786
378,3386.380539000129,8,2687,-1317,-692,-202,1188,-1808
379,3395.336455999768,8,2663,-1038,-615,-164,1132,-1824
380,3404.2293729999074,8,2779,-1003,-509,-124,1073,-1806
381,3413.1582899999557,8,2760,-714,-399,-90,1051,-1732
382,3422.0902070001102,8,2807,-554,-228,-78,1017,-1674
383,3430.99812499986,8,2706,-28,-83,-91,976,-1605
384,3439.8610419998477,8,2713,268,43,-131,925,-1522
385,3448.793958999886,8,2748,448,273,-184,858,-1404
386,3458.630868,9,2813,572,401,-235,760,-1042
387,3467.505785999947,8,2772,724,473,-259,660,-1130
388,3476.3807029999043,8,2872,718,622,-240,573,-1008
389,3485.322619999806,8,2898,881,699,-208,474,-895
390,3494.2025380000814,8,3168,815,1018,-162,369,-519
391,3503.164454999933,8,3458,490,677,-79,291,-613
392,3511.9923729998845,8,3119,981,701,-63,146,-550
393,3520.991288999994,8,3501,901,715,-138,175,-448
394,3529.81220699985,8,3472,886,619,-308,98,-351
395,3538.8241239998024,9,3631,552,746,-183,42,-210
396,3547.616041999845,8,3651,635,694,-153,-9,-150
397,3556.424959999731,8,3815,445,565,-147,-52,-95
398,3565.3118780001023,8,3891,321,471,-145,-76,-58
399,3574.1207959999883,8,3924,267,394,-114,-105,-29
400,3582.988713999839,8,4012,195,352,-50,-87,-15
401,3591.825632000109,8,4096,165,273,-4,-45,2
402,3600.6725489996825,8,4078,123,186,11,-41,9
403,3609.558466999715,8,4100,54,87,-2,-37,21
404,3618.350384999758,8,4102,-10,20,250,-28,48
405,3627.0663039999818,8,4130,-104,-12,6,-18,68
406,3635.9882219999236,8,4101,-205,-37,35,-7,72
407,3644.7651399998904,8,4133,-259,-34,71,9,71
408,3653.658058000019,8,3846,-368,-31,80,-1,51
409,3662.5479750000522,8,4063,-414,-21,87,-26,22
410,3671.4728920001107,8,4016,-367,-11,66,-88,-254
411,3680.3148099997998,8,4020,-395,-63,53,-123,-31
412,3689.1747280001255,8,4002,-355,-180,36,-132,-59
413,3698.0656450000424,8,4003,-355,-216,17,-144,-52
414,3706.9205630000397,8,3989,-308,-275,20,-111,-48
415,3715.8654800000477,8,4009,-285,-279,43,-80,-42
416,3724.773396999808,8,3970,-280,-255,79,-65,-29
417,3733.7483139999676,8,4001,-276,-217,112,-29,-11
418,3742.585231999783,8,3952,-311,-182,129,-23,4
419,3751.5421489997607,8,3898,-265,-128,125,-28,-8
420,3760.302066999884,8,3903,-446,-170,105,-43,-10
421,3769.1319860000476,8,3888,-69,-78,91,-62,-20
422,3778.039902999808,8,3902,-268,-193,32,-89,-34
423,3786.865820999992,8,3940,-338,-282,14,-103,-12
424,3795.7347389997267,8,3942,-362,-305,12,-60,-21
425,3804.6516559998054,8,3987,-417,-310,47,-30,-16
426,3813.4495740000602,8,3990,-380,-275,76,-7,-10
427,3822.439490999841,8,3993,-310,-241,89,-2,-9
428,3831.273409000005,8,3992,-251,-110,52,-17,26
429,3840.2723250001145,8,3969,-491,-174,7,-40,-3
430,3849.1112429996974,8,3910,-153,-177,-14,-70,-26
431,3858.0091599997104,8,3985,-238,-505,-16,-80,1
432,3866.8460779999805,8,3957,-209,-239,-28,-73,13
433,3875.650996999866,8,3980,-199,-272,-21,-67,13
434,3884.5329139999194,8,3964,-191,-231,-10,-39,14
435,3893.3328329999313,8,3944,-174,-191,12,-22,22
436,3908.3256929998242,14,3936,-66,-92,48,-2,41
437,3917.336609999893,9,3896,-46,-6,52,-1,52
438,3926.0475289997885,8,3882,60,126,36,-19,83
439,3935.028444999716,8,3857,141,214,6,-63,115
440,3944.032361999689,9,3792,314,294,-7,-123,161
441,3953.4842739999476,9,3740,325,327,-34,-185,186
442,3962.575189999825,9,3703,358,285,-27,-233,223
443,3971.676104999915,9,3688,720,200,-12,-254,275
444,3980.6520219999584,8,3702,527,322,-4,-295,306
445,3989.686937999977,9,3748,614,326,59,-321,406
446,3998.797853999804,9,3764,646,295,40,-333,532
447,4007.8787689999444,9,3657,832,308,41,-399,654
448,4016.8706859999475,8,3569,870,337,45,-443,791
449,4025.853603000087,8,3459,899,314,64,-755,910
450,4034.902518999843,9,3422,913,31,69,-504,1070
451,4043.9834339999834,9,3361,352,602,-154,-353,1368
452,4053.1523489999017,9,3364,476,462,81,-408,1240
453,4062.1452659997885,8,3424,221,419,168,-596,1320
454,4071.1821820000296,9,3375,191,429,206,-564,1369
455,4080.343096999968,9,3266,-233,409,182,-622,1412
456,4089.4800119999672,9,3197,-193,319,174,-716,1443
457,4098.620926999956,9,3167,-463,187,159,-769,1443
458,4107.6448439998785,9,3045,-457,260,201,-899,1476
459,4116.643759999988,8,2992,-506,212,156,-1005,1515
460,4125.700675999724,9,2929,-492,87,149,-1142,1614
461,4134.815591000006,9,2878,-757,36,93,-1254,1716
462,4143.923506999727,9,2859,-709,-64,-34,-1350,1748
463,4153.09642200009,9,2796,-921,-285,-150,-1410,1778
464,4162.12233799979,9,2624,-1098,-508,-267,-1430,1789
465,4171.162253999682,9,2577,-1188,-795,-204,-1432,1796
466,4180.277169999954,9,2635,-1268,-955,-92,-1378,1828
467,4189.403084999867,9,2620,-1505,-608,83,-1345,1882
468,4198.430000999906,9,2554,-1419,-671,90,-1311,1929
469,4207.441917999859,9,2415,-1620,-827,-9,-1372,1947
470,4216.41583399969,8,2216,-1659,-956,-171,-1479,1916
471,4225.511749999896,9,2171,-1850,-1115,-255,-1479,1858
472,4234.612664999986,9,1823,-1852,-1229,-299,-1441,1838
473,4243.602581999767,8,2002,-1896,-1530,-228,-1388,1822
474,4252.597498999876,8,1811,-2039,-2032,-89,-1331,1747
475,4261.662414000057,9,1543,-2329,-1984,145,-1228,1692
476,4270.711329999813,9,1841,-2510,-1969,429,-1072,1692
477,4279.665246999684,8,2015,-2624,-1739,580,-877,1737
478,4288.791163000042,9,2094,-2589,-1409,563,-833,1841
479,4297.774078999737,8,1978,-2825,-1381,414,-946,1916
480,4306.849994999993,9,1773,-3128,-1430,258,-1205,1910
481,4316.282907999721,9,1578,-3341,-1771,210,-1334,1847
482,4326.146815999891,9,1529,-3555,-1999,337,-1315,1707
483,4336.2547219999215,10,1511,-3731,-2143,569,-1178,1611
484,4346.305628999744,10,1533,-3666,-2165,864,-617,1536
485,4369.821410999975,23,1790,-3534,-1344,758,-752,1610
486,4379.01732499995,9,1727,-3529,-1171,293,-867,1714
487,4388.408238000011,9,1242,-3747,-2340,-226,-1571,1611
488,4413.1700079997245,24,1267,-4052,-2614,13,-1446,1558
489,4423.184916000082,10,1393,-4362,-2734,425,-1190,1530
490,4433.41282099982,10,1463,-4592,-2519,711,-902,1517
491,4444.891713999823,11,1599,-4295,-2159,761,-814,1273
492,4455.123619000005,10,1422,-4560,-1873,67,-812,1328
493,4464.90552799969,9,1265,-4508,-2158,-22,-1011,1211
494,4477.649409999685,12,1220,-4390,-2477,-46,-1111,1118
495,4488.325310999699,10,1372,-4573,-2629,437,-978,1193
496,4507.089137000094,18,1493,-4722,-2476,601,-882,1336
497,4520.51301199981,13,1498,-4969,-2218,393,-795,1333
498,4529.449928999838,8,1287,-5142,-2304,88,-791,1207
499,4538.27784799978,8,1161,-5290,-2402,-86,-831,773
500,4547.105765999731,8,999,-5321,-2638,-135,-821,527
501,4555.816685000082,8,1058,-5214,-2819,-55,-750,490
502,4564.609603000008,8,1166,-4997,-2846,64,-612,338
503,4573.488520999945,8,1346,-4913,-2728,199,-482,278
504,4582.335438999962,8,1390,-4861,-2576,252,-381,268
505,4591.129356999772,8,1440,-4738,-2458,224,-323,0
506,4599.9212759998045,8,1377,-4700,-2361,170,-292,249
507,4608.751193999979,8,1324,-4608,-2218,63,-277,208
508,4617.573111999718,8,1241,-4540,-2157,11,-253,163
509,4626.338029999715,8,1161,-4366,-2146,-13,-341,51
510,4635.240948000046,8,1161,-4241,-2199,-54,-349,-91
511,4644.015865999791,8,1208,-4260,-2116,-104,-333,-139
512,4652.948782999829,8,1185,-4111,-2102,-122,-335,-147
513,4661.839700999735,8,1152,-4021,-2159,-131,-346,-115
514,4670.7726179997735,8,1157,-3982,-2101,-133,-330,-71
515,4679.607535999821,8,1138,-3978,-2092,-127,-281,-52
516,4688.565452999683,8,1083,-4041,-2152,-122,-252,-53
517,4697.42037099968,8,1008,-3956,-2102,-132,-207,-70
518,4706.386287999976,8,974,-3951,-2101,-128,-167,-123
519,4715.3042049999385,8,897,-3922,-2108,-129,-132,-145
520,4724.172122999789,8,920,-3919,-2081,-109,-98,-130
521,4733.1870389998585,9,866,-3678,-2097,-107,-96,-147
522,4742.054956999709,8,850,-3659,-2092,-108,-99,-162
523,4751.0058739999295,8,829,-3643,-2079,-76,-82,-183
524,4759.833791999881,8,849,-3631,-2074,-59,-47,-197
525,4768.747708999854,8,853,-3593,-2018,-34,-21,-195
526,4777.432628000042,8,852,-3601,-1991,-22,0,-186
527,4786.27154600008,8,851,-3593,-1950,-26,-254,-173
528,4795.185464000042,8,837,-3534,-1914,-54,-2,-162
529,4804.105380999772,8,803,-3523,-1899,-68,-14,-146
530,4813.003297999785,8,791,-3468,-1881,-90,-19,-143
531,4821.9492150001315,8,784,-3463,-1878,-86,-16,-133
532,4830.845132999912,8,760,-3366,-1860,-87,-21,-125
533,4839.694050999697,8,798,-3331,-1886,-90,-37,-118
534,4848.472968999886,8,799,-3325,-1824,-89,-43,-102
535,4857.371886999772,8,1022,-3342,-1801,-45,-36,-101
536,4866.145805000087,8,786,-3341,-1943,-5,-9,-86
537,4874.944722999771,8,782,-3389,-1998,29,11,-93
538,4883.812641000077,8,786,-3359,-1950,40,25,-100
539,4892.557560000114,8,806,-3361,-1923,41,33,-89
540,4901.353477999692,8,807,-3380,-1879,34,28,-76
541,4910.570392999944,9,838,-3425,-1857,12,8,-63
542,4919.513309999729,8,842,-3419,-1952,-5,-21,-53
543,4928.301227999782,8,853,-3562,-2043,5,-28,-33
544,4937.105146999784,8,886,-3606,-2123,15,-26,-23
545,4945.960063999792,8,911,-3749,-2166,32,-5,-34
546,4954.63698399999,8,948,-3831,-2188,56,19,-73
547,4964.912889000061,10,967,-4000,-2155,86,59,-138
548,4973.920805000034,9,1020,-4138,-2200,101,78,-199
549,4982.821722999688,8,1044,-4236,-2249,101,87,-232
550,4991.697639999984,8,1081,-4431,-2309,93,95,-281
551,5000.552557999981,8,1117,-4535,-2367,82,119,-369
552,5009.517474999939,8,1165,-4694,-2471,59,144,-434
553,5018.451391999861,8,1183,-5093,-2805,40,174,-754
554,5027.9943040000035,9,1203,-5050,-2625,24,202,-609
555,5037.503215000015,9,1207,-5346,-2681,23,238,-699
556,5046.361133000119,8,1248,-5169,-2690,26,316,-859
557,5055.398048999905,9,1282,-5137,-2630,26,388,-1012
558,5064.20696799978,8,1338,-5276,-2508,42,454,-1138
559,5073.241883999799,9,1353,-5201,-2526,25,519,-1295
560,5082.40079899997,9,1384,-4955,-2400,-48,483,-1465
561,5091.246717000104,8,1457,-5063,-2306,-97,444,-1531
562,5100.2636329999405,9,1502,-5356,-2464,-147,479,-1588
563,5109.102550999978,8,1521,-4946,-2986,-194,481,-1659
564,5118.221466999785,9,1452,-4678,-3071,-232,500,-1829
565,5127.041384999757,8,1561,-4982,-3072,-148,650,-1922
566,5136.004301999947,8,1529,-5005,-3267,-15,879,-1984
567,5144.907218999833,8,1563,-4839,-3019,55,1002,-2128
568,5153.846136000084,8,1683,-4565,-2647,95,1107,-2242
569,5162.671053999929,8,1864,-4142,-2330,79,1199,-2324
570,5171.636970999771,8,1908,-4173,-1870,71,1232,-2321
571,5180.441890000111,8,1901,-3888,-2066,73,1234,-2285
572,5189.436805999776,8,1823,-3652,-2233,-11,1155,-2326
573,5198.2267250000405,8,1781,-3607,-2368,-30,1130,-2374
574,5207.062642999972,8,1853,-3448,-2265,1,1211,-2414
575,5216.004559999874,8,1946,-3413,-2070,74,1325,-2410
576,5224.769477999871,8,2290,-3188,-1806,173,1408,-2398
577,5233.669396000096,8,2140,-3117,-1621,194,1466,-2365
578,5242.427314999986,8,2180,-3052,-1284,142,1439,-2322
579,5251.22223299968,8,2147,-3008,-1596,59,1372,-2292
580,5260.085151000112,8,2155,-3024,-1554,-32,1298,-2283
581,5268.902068999978,8,2143,-2939,-1516,-95,1255,-2299
582,5277.656987999762,8,2107,-2574,-1593,-79,1220,-2307
583,5286.359907000133,8,2154,-2475,-1525,-57,1187,-2050
584,5295.2318249999735,8,2212,-2316,-1340,-58,1186,-2223
585,5304.127741999764,8,2253,-1996,-1279,-66,1175,-2129
586,5313.042660000065,8,2263,-1757,-1199,-114,1143,-2030
587,5321.888577999744,8,2304,-1526,-1225,-125,1091,-1904
588,5330.867493999904,8,2413,-1538,-1259,-136,1045,-1687
589,5339.725412000007,8,2360,-1591,-1212,-139,1034,-1575
590,5348.5983299997315,8,2312,-1518,-1147,-142,1055,-1560
591,5357.542246999856,8,2345,-1602,-781,-165,1078,-1566
592,5366.366164999818,8,2050,-1604,-817,-507,1066,-1618
593,5375.287081999886,8,2265,-1362,-803,-344,998,-1682
594,5384.144000000106,8,2490,-1170,-767,-416,928,-1695
595,5393.01691799983,8,2583,-1373,-638,-464,907,-1601
596,5401.946834999762,8,2542,-1075,-567,-499,893,-1559
597,5410.896752000099,8,2694,-855,-261,-423,897,-1541
598,5419.7576699998535,8,2640,-628,-130,-334,991,-1560
599,5428.6625869999625,8,2667,-261,-129,-295,962,-1551
600,5437.5155049997375,8,2746,-204,-62,-294,898,-1494
601,5446.373422999841,8,2762,-78,-11,-351,809,-1431
602,5455.296340000132,8,2854,42,37,-402,719,-1369
603,5464.084258999719,8,3115,54,235,-338,650,-1338
604,5473.020175999864,8,2963,131,171,-380,614,-1222
605,5481.802093999704,8,2995,338,199,-319,547,-1199
606,5490.635011999984,8,2936,438,234,-295,509,-1202
607,5499.521929999901,8,3046,605,494,-282,436,-1144
608,5508.3638480000445,8,3091,633,304,-280,383,-1028
609,5517.339765000088,8,3083,596,387,-254,374,-922
610,5526.130682999792,8,3382,626,399,-216,352,-798
611,5535.009600999729,8,2895,1351,119,-114,373,-740
612,5543.782518999706,8,3361,-10,746,-233,229,-431
613,5552.937434999876,9,3393,794,644,-262,87,-352
614,5561.800351999864,8,3740,545,312,-179,121,-302
615,5570.5972709997695,8,3833,551,219,-160,10,-287
616,5579.42618900006,8,3758,301,244,-174,-51,-206
617,5588.2331069997235,8,3769,255,285,-120,-88,-191
618,5597.528021000016,9,3698,218,74,-185,-173,-235
619,5609.7549080000135,12,3808,191,29,-158,-233,-231
620,5618.400826999732,8,3935,251,-45,-107,-238,-191
621,5627.264745000048,8,3986,122,-62,-47,-251,-129
622,5635.900665000008,8,4009,159,-169,7,-253,-49
623,5644.922580999719,9,4043,103,-344,10,-243,21
624,5653.832498999691,8,4010,-39,-453,5,-218,59
625,5662.666416999855,8,4001,-272,-766,19,-177,61
626,5671.630333999929,8,3946,-383,-527,54,-129,24
627,5680.459251999764,8,3962,-487,-538,78,-78,10
628,5689.407168999878,8,3983,-508,-765,91,-58,-22
629,5698.213087000113,8,3974,-551,-550,76,-58,-43
630,5707.289002999914,9,4008,-522,-569,71,-58,-46
631,5716.167919999862,8,4058,-764,-639,68,-33,-46
632,5725.013837999995,8,4010,-502,-610,83,-18,-36
633,5733.955754999897,8,4251,-655,-555,91,-14,-26
634,5742.902673000117,8,3941,-458,-504,117,-11,-38
635,5751.793590000034,8,3981,-472,-484,101,-13,-44
636,5760.630507999849,8,3971,-430,-449,71,-24,-37
637,5769.5704249999835,8,3932,-419,-480,39,-36,-46
638,5778.389343000072,8,3990,-397,-492,9,-31,-40
639,5787.340259999837,8,3994,-409,-523,-17,-38,-38
640,5795.98618,8,3977,-377,-562,-16,-21,-28
641,5804.86609799982,8,3958,-399,-531,-10,-16,-21
642,5813.846013999864,8,3929,-375,-519,253,-3,-26
643,5822.715931999937,8,3881,-348,-524,18,-6,-26
644,5831.587849999778,8,3898,-314,-478,30,-3,-26
645,5840.446767999765,8,3930,-334,-465,24,-6,-4
646,5849.222685999848,8,3944,-358,-458,23,-14,14
647,5858.008605000123,8,3946,-354,-446,30,-17,23
648,5866.780522999761,8,3975,-362,-443,7,-40,28
649,5875.556441999834,8,3983,-412,-431,-15,-51,30
650,5884.421360000033,8,3923,-390,-468,-39,-60,18
651,5893.188278999787,8,3910,-353,-491,-43,-74,9
652,5901.998197000012,8,3903,-334,-497,-32,-76,4
653,5911.496108999927,9,3901,-231,-462,17,-58,1
654,5923.193999999967,11,3981,-188,-439,39,-52,22
655,5931.985918999999,8,3958,-44,-360,44,-65,74
656,5940.862835999724,8,4048,-112,-343,37,-89,126
657,5949.732753999797,8,3971,-95,-303,-14,-123,158
658,5958.591671999784,8,4011,-131,-278,-108,-187,177
659,5967.430589999822,8,3904,-198,-364,-176,-247,200
660,5976.242507999814,8,3597,-206,-492,-206,-323,193
661,5985.176424999736,8,3799,-220,-546,-184,-330,182
662,5994.078342999728,8,3847,-188,-542,-112,-295,194
663,6003.044260000024,8,3863,-25,-508,-39,-255,240
664,6011.944176999805,8,3902,11,-346,0,-236,278
665,6020.878093999727,8,3968,210,-237,-4,-222,375
666,6029.7110129999965,8,3966,349,-151,-35,-498,475
667,6038.71492899998,9,3953,413,-132,-73,-318,579
668,6047.46884799988,8,3887,406,-69,-75,-382,722
669,6056.324765999761,8,3791,434,-135,-64,-441,805
670,6065.271682999992,8,3637,426,-184,3,-500,841
671,6074.10260100005,8,3574,342,-110,99,-515,869
672,6083.065517999785,8,3503,367,-51,185,-510,910
673,6091.879435999999,8,3521,262,24,211,-535,933
674,6100.799352999729,8,3505,383,131,180,-617,974
675,6109.6652709998125,8,3475,450,110,109,-666,1058
676,6118.598187999851,8,3448,454,151,-235,-774,1096
677,6127.406106999842,8,3443,458,28,-188,-903,1219
678,6136.317023999709,8,3388,353,-33,42,-965,1382
679,6145.229941999787,8,3334,115,-106,205,-1039,1464
680,6153.9698609999505,8,3248,-2,-195,370,-1030,1539
681,6162.784779000049,8,2841,-160,-280,515,-1005,1538
682,6171.702696000011,8,2958,-290,-291,579,-772,1502
683,6181.291606999821,9,2573,-392,-442,574,-971,1430
684,6190.215523999996,8,2767,-413,-541,554,-964,1391
685,6198.9754430001085,8,2760,-751,-599,551,-935,1347
686,6207.825360999777,8,3017,-770,-595,549,-927,1334
687,6216.607280000062,8,2760,-909,-840,571,-965,1370
688,6225.455197999963,8,2769,-1137,-949,589,-978,1429
689,6234.337115000017,8,2671,-1522,-1074,643,-956,1520
690,6243.094034000023,8,2621,-1414,-1181,682,-903,1598
691,6251.914951999879,8,2546,-1612,-1186,732,-809,1648
692,6260.77086999976,8,2425,-1757,-1079,746,-763,1683
693,6269.683787999838,8,2377,-1706,-1008,756,-740,1694
694,6278.55570499969,8,2318,-1901,-924,632,-777,1731
695,6287.49462299993,8,2191,-2051,-958,479,-899,1801
696,6296.361539999907,8,2104,-2061,-1146,388,-1059,1830
697,6305.124459000126,8,2138,-2178,-1205,363,-1122,1867
698,6313.969376999921,8,2143,-2476,-1529,319,-1085,1925
699,6323.003293000056,9,2056,-2629,-1357,358,-1068,1933
700,6331.822212000134,8,1999,-2813,-1370,370,-1045,1895
701,6340.746128999854,8,1973,-2953,-1307,330,-1022,1868
702,6349.583047000124,8,1840,-2932,-1444,305,-1099,1856
703,6358.397964999767,8,1802,-2971,-1574,346,-1149,1882
704,6367.344881999998,8,1870,-2959,-1424,378,-1068,1912
705,6376.169799999843,8,1840,-2842,-1275,400,-984,1929
706,6385.051717999886,8,1806,-2859,-1234,368,-1009,1997
707,6393.88563600005,8,1603,-3013,-1433,317,-1110,2114
708,6402.740554000047,8,1288,-3113,-1560,301,-1157,2154
709,6411.766469999748,9,1422,-3580,-1687,355,-1109,2190
710,6420.618388000094,8,1277,-3782,-1711,416,-1031,2184
711,6429.514305999874,8,1270,-3859,-1537,432,-964,2120
712,6438.451222999902,8,1217,-3697,-1375,355,-948,2077
713,6447.339140999702,8,1127,-4066,-1349,153,-1047,2075
714,6456.263057999877,8,959,-4071,-1575,42,-1245,2010
715,6465.169974999753,8,1004,-4152,-1881,19,-1248,1863
716,6474.04889299969,8,996,-4278,-2153,134,-1200,1839
717,6482.972809999865,8,1010,-4268,-2206,302,-1099,1837
718,6491.812727999786,8,1017,-4432,-2125,441,-878,1829
719,6500.669646000006,8,960,-4538,-2041,542,-775,1854
720,6509.479563999776,8,903,-4368,-1837,276,-718,1874
721,6518.322481999803,8,740,-4553,-1842,335,-725,1822
722,6527.097400999992,8,647,-4838,-1962,284,-837,1696
723,6535.961318999853,8,535,-4947,-2095,283,-876,1527
724,6544.727237999723,8,546,-4917,-2329,307,-898,1388
725,6553.716154000085,8,623,-5031,-2440,399,-820,1281
726,6562.500072999683,8,696,-5624,-2436,472,-656,1212
727,6571.302990999811,8,672,-5447,-2452,450,-599,1133
728,6580.171909000001,8,684,-5556,-2325,386,-571,1046
729,6588.98182699977,8,704,-5407,-2299,322,-468,920
730,6597.897744999955,8,702,-5475,-2324,238,-395,744
731,6606.705662999957,8,724,-5483,-2559,137,-384,595
732,6615.557580999848,8,710,-5418,-2436,148,-338,405
733,6627.756467999916,12,747,-5306,-2440,203,-272,420
734,6636.498386999847,8,949,-5154,-2358,255,-218,281
735,6645.407303999946,8,981,-5130,-2143,270,-170,232
736,6654.084223999689,8,996,-4943,-1804,235,-78,183
737,6663.276139000118,9,973,-4725,-2002,196,-80,147
738,6672.230055999989,8,966,-4616,-2017,140,-79,81
739,6681.090972999755,8,887,-4506,-1898,86,-65,24
740,6690.024891000121,8,954,-4448,-1822,81,-50,-10
741,6698.842808999871,8,939,-4437,-1851,81,-24,-49
742,6707.825725000021,8,880,-4351,-1800,50,-57,-112
743,6716.692642999988,8,878,-4305,-1753,0,-75,-161
744,6725.820559000113,9,862,-4230,-1740,-41,-83,-197
745,6734.712475999913,8,840,-4174,-1741,-68,-100,-200
746,6743.539393999981,8,839,-4126,-1759,-85,-93,-202
747,6752.327313000023,8,823,-4081,-1759,-107,-84,-183
748,6761.728225999832,9,795,-3992,-1744,-134,-98,-149
749,6771.091138999964,9,752,-3939,-1736,-164,-103,-139
750,6780.364053000085,9,721,-3863,-1744,-183,-97,-126
751,6789.656966999701,9,649,-4081,-1749,-158,-109,-146
752,6798.904880999999,9,637,-3851,-1761,-128,-116,-181
753,6808.08679599977,9,641,-3844,-1804,-85,-109,-187
754,6817.252711000037,9,665,-3813,-1831,-63,-64,-183
755,6826.472624999951,9,643,-3838,-1785,-56,-39,-189
756,6835.689539999748,9,617,-3801,-1763,-62,-31,-186
757,6845.006453999758,9,624,-3771,-1762,-54,-12,-186
758,6854.055369999969,9,629,-3748,-1737,-78,14,-179
759,6863.764279999941,9,602,-3815,-1731,-104,6,-154
760,6872.649197000101,8,579,-3784,-1737,-127,-21,-119
761,6881.579115000022,8,589,-3673,-1726,-156,-46,-110
762,6890.513031999944,8,619,-3637,-1712,-175,-53,-106
763,6899.414948999947,8,617,-3604,-1716,-160,-69,-110
764,6908.7058629997955,9,636,-3828,-1738,-120,-64,-122
765,6917.6577799998995,8,653,-3642,-1769,-95,-32,-121
766,6926.474697999765,8,610,-3675,-1747,-87,-31,-125
767,6935.355615999924,8,679,-3697,-1754,240,30,-136
768,6944.157533999714,8,642,-3666,-1816,13,73,-157
769,6953.084451999985,8,660,-3689,-1794,27,97,-173
770,6961.943369999972,8,688,-3588,-1760,27,116,-182
771,6970.839286999762,8,695,-3644,-1709,23,105,-159
772,6979.595205999885,8,711,-3638,-1677,25,77,-133
773,6988.406123999994,8,721,-3672,-1676,42,60,-129
774,6997.242041999925,8,725,-3758,-1731,54,72,-124
775,7006.132959999832,8,742,-3807,-1777,56,74,-127
776,7014.92787799998,8,1014,-3901,-1807,48,86,-135
777,7023.849795999922,8,762,-4012,-1866,31,92,-153
778,7032.724713999869,8,775,-4155,-1914,17,106,-224
779,7043.96960899976,11,814,-4189,-1950,6,137,-275
780,7052.820526999767,8,853,-4296,-1978,-5,167,-332
781,7061.735445000068,8,881,-4399,-2030,8,211,-396
782,7070.591362999949,8,889,-4640,-2101,38,241,-460
783,7079.548279999926,8,845,-4979,-2234,82,291,-541
784,7088.4001979998175,8,855,-5188,-2232,162,367,-653
785,7097.300115000053,8,868,-5335,-2201,204,433,-1021
786,7106.252031999702,8,742,-5682,-2268,374,343,-892
787,7115.175948999877,8,790,-5254,-2105,158,432,-1023
788,7124.088866999955,8,1122,-4885,-2102,1,507,-1110
789,7133.030783999857,8,1113,-5014,-2146,-109,467,-1171
790,7141.872702000001,8,1217,-5029,-2109,-142,491,-1254
791,7150.904617999913,9,1259,-4859,-2064,-123,537,-1337
792,7159.734537000077,8,1345,-4832,-2022,-100,578,-1396
793,7168.756452999787,9,1388,-4633,-1991,-104,590,-1442
794,7177.62637099986,8,1424,-4569,-1958,-134,607,-1505
795,7186.509287999797,8,1464,-4538,-1983,-178,634,-1534
796,7195.2432069997485,8,1414,-4555,-2034,-200,672,-1583
797,7204.205124000055,8,1424,-4617,-2055,-193,712,-1661
798,7213.1200419999,8,1411,-4640,-2051,-221,770,-1771
799,7222.1009589998175,8,1611,-4832,-1995,-234,816,-1914
800,7231.00287599982,8,1450,-4405,-2111,-300,856,-1935
801,7239.931792999869,8,1517,-4324,-2123,-331,887,-2035
802,7248.840710999957,8,1545,-4348,-2184,-332,947,-2067
803,7257.675629000005,8,1580,-4213,-2182,-369,982,-2122
804,7266.499546999967,8,1700,-4060,-2064,-354,1059,-2152
805,7275.286466000125,8,1680,-3868,-2026,-350,1079,-2133
806,7284.100383999885,8,1697,-3686,-1911,-302,1089,-2125
807,7293.01230100009,8,1816,-3533,-1683,-233,1129,-2133
808,7301.822219999849,8,1852,-3348,-1567,-236,1159,-2143
809,7310.619137999765,8,1904,-3504,-1520,-259,1157,-2153
810,7319.4890559998385,8,1914,-3281,-1414,-307,1126,-2152
811,7328.138975999991,8,1983,-3140,-1361,-380,1089,-2119
812,7336.933893999685,8,1981,-2989,-1326,-452,1054,-2109
813,7345.776811999713,8,2020,-2815,-1389,-469,1017,-2112
814,7354.62772999972,8,2108,-2653,-1406,-454,1014,-2091
815,7363.399648999803,8,2191,-2740,-1361,-466,1027,-2034
816,7372.309566999775,8,2177,-2768,-1375,-467,1004,-2016
817,7381.102484999701,8,2338,-2791,-1216,-479,1018,-1999
818,7389.996402999714,8,2315,-2576,-1119,-532,979,-1979
819,7399.085317999834,9,2329,-2261,-1130,-603,872,-1976
820,7408.028235000074,8,2432,-2212,-1015,-663,824,-1960
821,7416.883153000072,8,2390,-1889,-983,-676,794,-1963
822,7425.762071000008,8,2469,-1542,-1070,-641,770,-1969
823,7434.478990000116,8,2570,-1523,-1085,-556,819,-1945
824,7443.417907999901,8,2689,-1473,-1021,-390,869,-1924
825,7452.451824000036,9,2756,-1417,-925,-328,929,-1876
826,7461.2957419999475,8,2838,-1443,-522,-300,956,-1852
827,7470.313658000123,9,2716,-1178,-662,-353,891,-1845
828,7479.149576000054,8,2678,-917,-577,-496,521,-1830
829,7488.07649399987,8,2711,-621,-561,-600,692,-1834
830,7496.907411999928,8,2691,-383,-574,-647,660,-1821
831,7505.855329000042,8,2755,-91,-517,-631,652,-1830
832,7514.701246999721,8,2878,45,-451,-559,679,-1775
833,7523.769162999997,9,2849,202,-432,-538,682,-1657
834,7532.610080999802,8,2969,453,-371,-477,645,-1481
835,7541.605997999795,8,3096,540,-262,-439,638,-1354
836,7550.477915000101,8,3120,534,-137,-443,652,-1233
837,7559.479831999852,9,3118,546,-17,-372,572,-1084
838,7568.848744999741,9,3185,572,56,-285,485,-1004
839,7578.102658999796,9,3256,619,49,-265,384,-909
840,7587.425573000019,9,3308,658,23,-233,293,-834
841,7596.590487999947,9,3344,667,-63,-262,192,-788
842,7605.781403000037,9,2978,1065,-606,-94,194,-616
843,7615.020317000017,9,3323,321,543,-184,130,-355
844,7624.262232000092,9,3532,584,-11,-17,79,-269
845,7633.504145999723,9,3610,416,-149,-11,170,-201
846,7642.671060999874,9,3707,189,-62,-46,17,-103
847,7651.945974999762,9,3698,201,-232,-58,-1,-50
848,7661.7498840000735,9,3741,93,-265,-42,5,5
849,7670.617801999924,8,3714,37,-248,-32,-56,21
850,7679.526719000023,8,3766,-2,-319,-32,-90,34
851,7688.406636999844,8,3753,-3,-318,-9,-139,66
852,7697.275555000033,8,3791,-65,-384,-10,-147,102
853,7706.226471999798,8,3820,-113,-479,-1,-173,131
854,7715.1413890001095,8,3861,-208,-558,15,-181,154
855,7724.054306999733,8,3851,-252,-619,53,-156,155
856,7732.99622400009,8,3871,-284,-689,121,-143,154
857,7741.825141999925,8,3887,-373,-686,170,-131,151
858,7750.777059000029,8,3914,-455,-653,197,-103,124
859,7759.596977000001,8,3937,-526,-659,179,-90,110
860,7768.456894999872,8,3953,-620,-743,134,-118,103
861,7777.354812999874,8,3925,-694,-909,91,-148,127
862,7786.192731000028,8,3969,-570,-904,85,-161,96
863,7795.086648000051,8,3970,-719,-915,88,-157,111
864,7803.9385659999425,8,3932,-786,-1272,104,-159,148
865,7812.750484999924,8,3958,-744,-1123,103,-123,148
866,7821.698402000038,8,3897,-1006,-1100,115,-106,122
867,7830.449320999833,8,3852,-801,-1026,99,-71,62
868,7839.100240999869,8,3845,-848,-999,88,-49,19
869,7848.000158000104,8,3827,-805,-1028,49,-54,-17
870,7856.792076999682,8,4091,-722,-1055,9,-50,-44
871,7865.563994999775,8,3923,-737,-1067,-5,-28,-43
872,7874.428912999974,8,3956,-727,-1009,0,-8,-34
873,7883.189831999971,8,3987,-793,-797,18,23,-16
874,7892.022749999796,8,3953,-770,-970,43,34,-13
875,7900.908667999829,8,3934,-1023,-914,56,59,-19
876,7910.285580999698,9,3884,-751,-814,45,57,-34
877,7919.1174990000945,8,3834,-839,-697,-249,29,-39
878,7928.053415999784,8,3809,-598,-729,-45,-2,-88
879,7936.907333999898,8,3794,-541,-783,-81,-30,-118
880,7945.816251999986,8,3844,-508,-824,-81,-45,-122
881,7954.675169999973,8,3894,-536,-885,-70,-35,-86
882,7963.648085999921,8,3944,-261,-921,-37,-21,-46
883,7972.52500400009,8,3931,-542,-931,-1,10,252
884,7981.411922000007,8,3903,-524,-886,37,34,16
885,7990.259839999908,8,3871,-514,-817,48,43,23
886,7999.068757999794,8,3803,-505,-733,48,37,23
887,8008.0306750001,8,3778,-471,-759,34,17,15
888,8016.861592999703,8,3728,-417,-721,31,-1,-252
889,8025.781510999877,8,3749,-350,-717,19,2,-17
890,8034.652428999834,8,3789,-292,-721,43,255,-11
891,8043.468346999816,8,3812,-225,-700,76,18,10
892,8052.409263999834,8,3805,-153,-679,133,43,43
893,8061.2281819999225,8,3784,-60,-593,194,78,82
894,8070.164100000056,8,3781,53,-496,247,86,129
895,8079.079016999913,8,3751,124,-410,274,63,193
896,8087.987935000001,8,3749,233,-338,303,52,289
897,8096.780852999927,8,3688,334,-225,338,16,358
898,8105.637770999692,8,3611,376,-107,377,-3,414
899,8114.540689000023,8,3522,467,238,383,-52,464
900,8123.4956059997785,8,3456,575,55,369,-119,517
901,8132.385522999812,8,3443,629,100,341,-188,595
902,8141.1924419999195,8,3461,720,111,317,-277,712
903,8150.102358999902,8,3436,770,57,272,-396,860
904,8158.8862779999545,8,3405,765,-248,273,-457,1056
905,8167.851194999912,8,3369,747,4,301,-486,1213
906,8176.601113999823,8,3278,665,32,340,-765,1355
907,8185.390031999759,8,3230,604,55,376,-541,1483
908,8194.227949999913,8,3242,576,118,395,-590,1584
909,8203.108868000072,8,3201,488,119,385,-633,1770
910,8211.873787000059,8,3286,448,285,299,-743,1914
911,8220.739704999687,8,3056,14,161,208,-860,2009
912,8229.509624000002,8,2943,172,90,114,-969,2081
913,8238.346541999817,8,2814,-74,-59,5,-1104,2219
914,8247.117461000016,8,2644,-225,-205,-122,-1187,2346
915,8256.020377999903,8,2477,-510,-363,-192,-1231,2413
916,8264.881296000112,8,2422,-361,-559,-171,-1294,2477
917,8273.821212999792,8,2343,-730,-603,-119,-1317,2705
918,8282.66013099983,8,2239,-851,-688,-84,-1337,2831
919,8291.57504900013,8,2023,-1121,-818,-30,-1376,2960
920,8300.437967000107,8,1983,-1777,-547,-42,-1414,3073
921,8309.420882999802,8,1861,-2051,-693,-173,-1421,3113
922,8318.29980099974,8,1318,-2458,-916,-367,-1511,3024
923,8327.311717999692,9,1240,-2680,-1263,-500,-1653,2889
924,8336.22063499979,8,1104,-2857,-1708,-472,-1806,2682
925,8344.95955400007,8,1105,-3059,-1992,-337,-1799,2420
926,8353.95747099983,8,1024,-3291,-2086,-94,-1671,2344
927,8362.649390000115,8,1223,-3515,-2294,145,-1546,2372
928,8372.459298999729,9,1089,-3557,-2502,269,-1479,2383
929,8381.7522129998,9,974,-3498,-2532,396,-1324,2389
930,8391.008128000067,9,961,-3768,-2302,444,-1132,2329
931,8400.45603999988,9,925,-3977,-2041,501,-888,2172
932,8409.603954999966,9,919,-3969,-1801,258,-825,2050
933,8418.880869000077,9,676,-4068,-1763,435,-909,1991
934,8428.163782999945,9,723,-3922,-1728,358,-1014,1913
935,8437.364697999783,9,609,-3797,-1968,12,-1118,1936
936,8446.577613000045,9,501,-3727,-2550,224,-1296,1964
937,8455.774527999893,9,599,-3646,-2457,333,-1289,1957
938,8464.772444000118,8,516,-3862,-2539,567,-1114,2293
939,8474.588352999945,9,676,-4100,-2490,821,-941,2087
940,8483.428270999866,8,587,-4469,-2315,1266,-647,2056
941,8492.411188000005,8,486,-4744,-2043,1106,-426,1989
942,8501.271105999876,8,519,-4626,-1548,1007,-355,1911
943,8510.176023999975,8,442,-4583,-1561,565,-462,1860
944,8519.068941000114,8,58,-4368,-1770,314,-965,1805
945,8527.977858999748,8,216,-4396,-2046,363,-925,1731
946,8536.885775999963,8,54,-4423,-2527,527,-900,1628
947,8545.718693999788,8,234,-4606,-2382,810,-654,1561
948,8554.643611999836,8,176,-4955,-2305,1076,-480,1583
949,8563.525529999879,8,196,-5234,-2149,1149,-225,1578
950,8572.427446999882,8,73,-5386,-1882,1070,-48,1466
951,8581.217365999692,8,51,-5644,-1838,920,12,1306
952,8590.119282999694,8,61,-5719,-1770,513,32,1177
953,8598.860201999742,8,2,-5588,-1843,740,14,1037
954,8607.693120000022,8,3,-5680,-1986,839,4,885
955,8616.44103899971,8,33,-5798,-2302,996,27,700
956,8625.264958000116,8,88,-5864,-2055,1147,114,550
957,8634.133874999861,8,176,-5972,-1886,1276,496,421
958,8642.99079300008,8,259,-6009,-1785,1303,406,45
959,8651.779712000007,8,-197,-6100,-1538,1273,303,-53
960,8660.546630999761,8,431,-5838,-1386,1108,307,-35
961,8670.003542999893,9,484,-5593,-1353,657,206,-91
962,8681.490436999866,11,762,-5224,-1301,373,102,-134
963,8690.343355000095,8,608,-5052,-1274,161,43,-154
964,8699.282271999891,8,663,-4857,-1192,142,-256,-172
965,8708.236188999763,8,705,-4717,-1137,140,-9,-213
966,8717.09910699974,8,729,-4638,-1086,106,-18,-228
967,8725.983025000005,8,712,-4539,-1013,51,-60,-268
968,8734.828942999684,8,688,-4506,-953,-29,-64,-322
969,8743.745859999763,8,723,-4497,-778,-106,-47,-355
970,8752.590778000013,8,665,-4468,-1023,-176,-31,-372
971,8761.56369499995,8,637,-4370,-1325,-189,-22,-365
972,8770.386613000028,8,527,-4593,-930,-334,-122,-495
973,8779.494528999749,9,413,-4140,-1068,-348,-248,-377
974,8788.447445999736,8,575,-4221,-1207,-290,-135,-445
975,8797.348363999845,8,433,-4272,-1143,-245,-187,-447
976,8806.217281000045,8,529,-4186,-1169,-183,-153,-429
977,8815.201198000068,8,480,-4142,-1174,-155,-121,-389
978,8824.066115999813,8,433,-4074,-1135,-220,-148,-364
979,8833.12903199976,9,407,-4051,-1117,-287,-178,-340
980,8841.983949999758,8,422,-4031,-1149,-343,-187,-312
981,8850.855868000053,8,407,-3976,-1205,-392,-194,-307
982,8859.578786999919,8,380,-3935,-1181,-420,-193,-321
983,8868.429704999926,8,365,-3927,-1262,-380,-187,-347
984,8877.330623000034,8,382,-3851,-1215,-308,-176,-354
985,8886.16754099985,8,441,-3872,-1242,-218,-160,-319
986,8894.970458999978,8,460,-3805,-1166,-105,-156,-242
987,8903.927375999956,8,528,-3719,-1116,66,-98,-134
988,8913.11529099994,9,446,-3520,-1235,17,-118,-158
989,8921.935208999912,8,463,-3695,-1193,-57,-149,-176
990,8930.823126999712,8,428,-3719,-1205,-53,-94,-162
991,8939.865042999827,9,422,-3688,-1289,-39,-66,-165
992,8948.774960999799,8,407,-3684,-1262,32,-40,-176
993,8957.539879999786,8,434,-3768,-1252,81,-42,-180
994,8966.289798999696,8,429,-3811,-1202,80,-78,-178
995,8975.18371599972,8,436,-3794,-1241,71,-84,-150
996,8984.00363499968,8,429,-3726,-1232,61,-91,-136
997,8992.955551999785,8,401,-3686,-1299,32,-114,-146
