,time_ms,delta_ms,aX,aY,aZ,gX,gY,gZ
0,0.0,0,726,-2445,-1821,1576,1417,-79
1,10.373908000019583,10,636,-2474,-1877,1520,1404,26
2,19.507826999870304,9,630,-2542,-1866,1479,1448,125
3,28.87274399972739,9,600,-2737,-1851,1519,1485,179
4,37.98966299973472,9,573,-2787,-1785,1628,1453,220
5,47.48357800008307,9,618,-2937,-1687,1756,1437,247
6,56.66649699969639,9,604,-3058,-1636,1860,1390,263
7,65.91541499983578,9,598,-3175,-1565,2003,1345,280
8,75.17233199996554,9,559,-3294,-1513,2108,1309,325
9,84.44024999971589,9,589,-3312,-1433,2184,1324,387
10,93.67816799976936,9,545,-3366,-1348,2247,1391,423
11,103.22508299987021,9,550,-3422,-1111,2191,1449,434
12,112.0990049998909,8,620,-3393,-838,1973,1488,447
13,120.90592599997763,8,646,-3383,-612,1677,1459,458
14,129.74284799975067,8,711,-3297,-424,1342,1347,430
15,138.63576899984764,8,696,-3242,-324,1019,1234,395
16,147.44869099968128,8,690,-3107,-345,719,1128,402
17,156.31061199974283,8,667,-2987,-433,422,1053,415
18,165.1375339997685,8,600,-2884,-566,304,993,446
19,173.88545599987992,8,561,-2823,-702,260,1002,765
20,184.59036099966397,10,272,-2774,-825,253,1096,559
21,193.49228200007929,8,488,-2746,-808,320,1175,566
22,202.14020499997787,8,486,-2725,-857,468,1259,563
23,211.02512600009504,8,486,-2748,-839,630,1341,542
24,219.74304900004427,8,457,-2872,-863,806,1397,507
25,228.9469669999562,9,358,-3103,-890,1024,1463,472
26,237.84088799993697,8,344,-3290,-824,1273,1577,386
27,247.12280599987935,9,457,-3409,-598,1356,1730,211
28,256.0237269999561,8,400,-3539,-348,1404,1741,197
29,264.97064699969997,8,653,-3826,-62,1316,1667,257
30,273.81856900001367,8,650,-3657,12,1241,1428,333
31,282.6314909998473,8,637,-3652,6,1171,1227,399
32,291.55041199965126,8,618,-3773,-117,1082,1117,353
33,300.46933199992054,8,536,-3808,-256,1008,1071,248
34,309.47925200007376,9,453,-3748,-317,1018,1095,143
35,318.3821729999181,8,480,-3741,-232,1077,1161,13
36,327.2620949996963,8,534,-3661,4,1224,1245,-39
37,336.0890159997325,8,412,-3478,228,1335,1269,48
38,345.0909359999059,9,402,-3411,396,1409,1281,504
39,353.9258579999114,8,340,-3527,592,1367,1317,448
40,362.9297779998524,9,307,-3554,755,1309,1312,551
41,371.75569999999425,8,337,-3543,1262,1304,1253,642
42,380.6826199997886,8,404,-3629,1489,1325,1174,699
43,389.542542000072,8,449,-3716,1502,1356,1046,690
44,398.4824619997198,8,480,-3816,1607,1317,878,654
45,407.3693830000593,8,452,-3869,1660,1176,641,600
46,416.3513039998179,8,325,-3820,1593,771,446,577
47,425.21022499977335,8,163,-3614,1482,982,280,611
48,434.16814500005785,8,13,-3572,1400,1110,149,669
49,442.9930669998612,8,-170,-3727,1334,1299,162,715
50,451.73298999998224,8,-384,-3873,1326,1413,264,762
51,460.6389099999433,8,-409,-3899,1463,1393,359,690
52,469.4128329997511,8,-402,-3942,1590,1285,421,652
53,478.21475399996416,8,-483,-4351,1712,1086,422,648
54,487.066675999813,8,-474,-4163,1812,835,435,636
55,495.87359799988917,8,-481,-4105,1896,508,438,522
56,504.7185189996526,8,-433,-4009,1957,183,413,413
57,513.5914399998001,8,-550,-3742,1954,-93,343,394
58,522.3873619997903,8,-672,-3552,1828,-117,216,454
59,531.103284999972,8,-711,-3621,1664,40,203,465
60,540.2052039999035,9,-710,-3824,1573,318,257,378
61,549.0831249999246,8,-727,-4088,1689,621,335,280
62,557.962046999819,8,-588,-4171,1706,684,448,182
63,566.7629679996935,8,-520,-4261,1848,266,445,37
64,575.6668889998764,8,-413,-4252,1900,8,406,-36
65,584.3858119997094,8,-326,-4028,1888,-86,330,-99
66,593.2397329997912,8,-305,-3696,1827,-269,220,-152
67,602.1316540000043,8,-416,-3666,1721,-264,213,-85
68,611.0565750000205,8,-736,-3541,1635,-167,242,-51
69,619.8494969999047,8,-504,-3607,1746,34,285,-61
70,628.7464179999915,8,-534,-3995,1732,193,407,-72
71,637.5913399997444,8,-458,-4156,1965,243,437,-54
72,646.5292600000794,8,-447,-4362,2044,223,432,6
73,655.3731819999484,8,-380,-4489,2119,101,402,11
74,664.3101019999449,8,-425,-4438,2080,-2,359,15
75,673.1530239999302,8,-452,-4457,1797,-87,338,31
76,682.0209449997492,8,-507,-4463,2033,-145,295,69
77,690.8658669999568,8,-598,-4462,2021,-161,251,145
78,699.6967879999829,8,-592,-4392,2033,-164,214,498
79,708.7077080000199,9,-610,-4380,2042,-196,172,307
80,717.6276289997077,8,-718,-4445,2074,-500,158,316
81,726.5035499999613,8,-708,-4494,2082,-389,140,317
82,735.3724719996535,8,-681,-4411,2174,-541,84,281
83,744.3013919996702,8,-716,-4245,2150,-617,-8,244
84,753.094314000009,8,-718,-4131,2126,-623,-83,274
85,762.0042349999494,8,-678,-3948,2024,-582,-127,272
86,770.6111590000546,8,-649,-3596,1907,-540,-176,264
87,779.6380790000512,9,-666,-3659,1542,-531,-196,293
88,788.4949999997843,8,-656,-3599,1706,-596,-203,330
89,797.3109219997241,8,-677,-3527,1632,-739,-219,368
90,806.1228439996739,8,-752,-3499,1515,-811,-243,429
91,815.6967589998203,9,-751,-3482,1364,-533,-245,456
92,825.0506760000462,9,-683,-3561,1287,-618,-204,436
93,834.3195929996909,9,-673,-3541,1261,-428,-163,343
94,843.5845109997899,9,-597,-3624,1269,-294,-159,251
95,852.916427999844,9,-563,-3634,1285,-334,-183,106
96,862.127345999852,9,-581,-3653,1313,-617,-235,65
97,871.2942649999604,9,-642,-3648,1322,-1013,-320,159
98,880.5381829997714,9,-703,-3702,1302,-1782,-388,315
99,889.7091019998697,9,-765,-3722,1200,-2209,-456,462
100,899.04401900003,9,-857,-3765,1029,-2972,-508,613
101,908.1129379997037,9,-857,-4096,887,-3172,-548,668
102,917.9028509997806,9,-856,-3889,722,-3357,-569,614
103,926.7787720000342,8,-903,-3900,588,-3309,-591,520
104,935.6546939998225,8,-937,-3986,463,-3141,-583,416
105,944.567614999869,8,-1015,-4113,329,-2933,-600,300
106,953.4715350000624,8,-1099,-4139,125,-2727,-625,184
107,962.3244569997951,8,-1141,-4184,10,-2567,-628,128
108,971.1663779999071,8,-1230,-4262,-121,-2546,-610,114
109,980.1202989997364,8,-1317,-4319,-286,-2598,-595,125
110,988.9522210000905,8,-1381,-4391,-426,-2717,-590,147
111,997.9901399997289,9,-1489,-4483,-554,-2895,-588,136
112,1006.7450629999257,8,-1635,-4646,-744,-3010,-664,77
113,1016.6619749998063,9,-1731,-4763,-886,-3045,-744,-20
114,1025.6798939999499,9,-1745,-4759,-973,-3006,-822,-183
115,1035.0188120000894,9,-1771,-4608,-1040,-2920,-924,-292
116,1043.9867319996665,8,-1774,-4131,-1134,-2819,-1052,-366
117,1052.8906529998494,8,-1766,-4123,-1209,-2781,-1189,-377
118,1061.8435729998055,8,-1758,-3989,-1277,-2843,-1236,-313
119,1070.7574939997357,8,-1765,-3815,-1424,-2955,-1249,-280
120,1079.6244159996604,8,-1759,-3718,-1455,-3106,-1271,-303
121,1088.6173359999702,8,-1817,-3557,-1604,-3167,-1269,-304
122,1097.5032569999712,8,-1753,-3329,-1735,-3192,-1218,-308
123,1106.5281769997455,9,-1759,-3220,-1838,-3131,-1208,-292
124,1115.4660970000805,8,-1748,-3179,-1939,-3034,-1119,-331
125,1124.3530189999547,8,-1742,-3041,-2113,-2899,-1042,-395
126,1133.0349419999948,8,-1687,-2900,-2217,-2641,-951,-515
127,1141.9218629998795,8,-1707,-2922,-2323,-2463,-887,-564
128,1150.8057839996582,8,-1742,-2935,-2457,-2310,-819,-580
129,1159.65170499976,8,-1709,-2879,-2512,-2206,-711,-606
130,1168.541625999751,8,-1705,-2777,-2589,-2138,-638,-630
131,1177.410547999898,8,-2038,-2704,-2773,-2111,-621,-568
132,1186.1804699997265,8,-1885,-2906,-2768,-2089,-582,-449
133,1195.042390999788,8,-1859,-2886,-2922,-2062,-513,-442
134,1203.8723129999198,8,-1885,-2963,-3188,-2072,-459,-467
135,1212.7652340000168,8,-1829,-2917,-3234,-2074,-384,-512
136,1221.5221559999918,8,-1793,-2952,-3303,-2054,-379,-555
137,1230.3310779998355,8,-1763,-2990,-3437,-1944,-434,-609
138,1242.0759739998175,11,-1743,-2996,-3531,-1570,-446,-655
139,1251.5508900000896,9,-1771,-2939,-3644,-1659,-465,-709
140,1260.406810999939,8,-1819,-2928,-3747,-1509,-470,-749
141,1269.3207319998692,8,-1583,-2810,-3761,-1433,-397,-730
142,1278.254652999749,8,-1781,-2891,-3715,-1449,-213,-681
143,1287.1645739996893,8,-1826,-2862,-3779,-1497,-161,-685
144,1296.0494949998065,8,-1739,-2800,-3713,-1604,-126,-770
145,1304.9674159997267,8,-1669,-2757,-3633,-1792,-149,-830
146,1313.9053360000617,8,-1805,-2567,-3670,-1954,-333,-872
147,1322.9032569997798,8,-1565,-2607,-3522,-2135,-507,-890
148,1331.755178000094,8,-1282,-2487,-3698,-2024,-473,-946
149,1340.7370979998632,8,-1554,-2266,-3818,-2040,-461,-1046
150,1349.63801899994,8,-1532,-2188,-3795,-1974,-476,-1069
151,1358.6159399997086,8,-1477,-1957,-3863,-1852,-373,-1012
152,1367.4808609998763,8,-1465,-1753,-3972,-1828,-22,-967
153,1376.4377819998117,8,-1323,-1671,-3915,-1844,-166,-933
154,1385.2767029998176,8,-1148,-1632,-3858,-1849,-63,-878
155,1394.3036229998143,9,-1107,-1374,-3772,-1879,-67,-851
156,1403.1595439996636,8,-973,-1531,-3781,-1847,-101,-801
157,1412.0734650000486,8,-854,-1418,-3688,-1745,-54,-782
158,1420.938386999751,8,-861,-1495,-3332,-1629,-97,-796
159,1429.8213080001005,8,-792,-1427,-3499,-1524,-132,-821
160,1438.7482289998843,8,-699,-1339,-3486,-1453,-136,-833
161,1447.5931500001025,8,-676,-1223,-3509,-1460,-127,-828
162,1456.4940709997245,8,-688,-1114,-3465,-1467,-113,-797
163,1465.3889920000438,8,-642,-937,-3440,-1469,-78,-733
164,1474.2969129997618,8,-540,-915,-3446,-1449,-36,-670
165,1483.2018339998285,8,-547,-852,-3453,-1420,-9,-624
166,1492.0097559997885,8,-578,-927,-3480,-1416,4,-581
167,1500.7806779999555,8,-565,-999,-3511,-1484,5,-611
168,1509.6775990000424,8,-613,-1060,-3541,-1580,-23,-666
169,1518.5855199997604,8,-682,-976,-3617,-1579,-87,-705
170,1527.4014419997002,8,-706,-767,-3700,-1648,-157,-749
171,1536.1973639996904,8,-732,-671,-3797,-1635,-170,-738
172,1545.08428500003,8,-800,-698,-3863,-1286,-150,-716
173,1553.8822069997877,8,-994,-239,-4010,-1312,-137,-692
174,1562.7901279999605,8,-918,-235,-4058,-1110,-101,-618
175,1571.3960509997378,8,-1007,-212,-4092,-861,-18,-516
176,1580.534969999917,9,-1080,-350,-4119,-652,-6,-486
177,1589.4078920000538,8,-1138,-759,-4142,-522,-7,-492
178,1598.3348119998482,8,-1166,-605,-4125,-502,0,-537
179,1607.2377329996925,8,-1239,-731,-4142,-768,-22,-609
180,1616.0236549999354,8,-1286,-663,-4214,-576,-66,-691
181,1625.050574999932,9,-1363,-608,-4227,-597,-83,-739
182,1633.858496999892,8,-1458,-403,-4269,-571,-77,-785
183,1642.551420000018,8,-1411,-334,-4209,-258,-64,-780
184,1651.4993410000898,8,-1418,-251,-4213,-417,-53,-760
185,1660.3852620000907,8,-1416,-244,-4221,-255,-55,-1021
186,1669.3541820000064,8,-1370,-238,-4239,-126,-67,-791
187,1678.2411029998912,8,-1427,-265,-4357,-35,-112,-859
188,1687.164023999685,8,-1420,-316,-4387,95,-133,-944
189,1696.1019450000094,8,-1380,-287,-4469,191,-158,-1026
190,1705.010866000066,8,-1377,-214,-4542,279,-171,-1087
191,1713.940786999956,8,-1344,-117,-4616,390,-131,-1091
192,1722.8387079999266,8,-1281,-93,-4611,512,-82,-1072
193,1731.697628999882,8,-1201,-148,-4542,617,-32,-1043
194,1740.5475499999739,8,-1128,-189,-4462,723,-16,-1002
195,1749.3854720000854,8,-1041,-236,-4330,808,-6,-984
196,1758.240393000051,8,-994,-378,-4292,832,-7,-974
197,1767.188313999668,8,-1003,-426,-4219,824,3,-970
198,1776.0612349998155,8,-957,-487,-4158,808,12,-952
199,1785.0291559998368,8,-946,-518,-4090,809,3,-916
200,1793.8970769996558,8,-939,-603,-4132,823,-10,-889
201,1802.7669979996972,8,-934,-676,-4203,865,13,-888
202,1811.7119189996629,8,-877,-694,-4185,965,87,-856
203,1820.6348399999115,8,-792,-776,-4185,1055,114,-802
204,1829.486760999771,8,-712,-949,-4136,1059,116,-723
205,1838.2656829999178,8,-696,-1096,-4089,966,166,-691
206,1847.1576039996762,8,-701,-1157,-4036,828,173,-703
207,1856.0165260000758,8,-611,-1323,-3871,501,220,-734
208,1864.9014469997383,8,-513,-1440,-3667,4,300,-805
209,1873.6583689997133,8,-386,-1468,-3613,-380,273,-872
210,1882.448290999946,8,-341,-1182,-3635,-680,170,-931
211,1891.0272149996672,8,-195,-965,-3780,-831,102,-942
212,1900.7251289999658,9,-173,-842,-3956,-860,52,-892
213,1910.4440430000977,9,-209,-685,-4118,-747,65,-810
214,1919.4349629997305,8,-263,-861,-4148,-859,169,-673
215,1928.3228839999538,8,-239,-941,-4205,-1135,307,-618
216,1937.2208049999244,8,-233,-831,-4243,-1421,304,-671
217,1946.1027259999355,8,-145,-621,-4299,-1637,289,-681
218,1954.9996470000224,8,-12,-275,-4247,-1634,284,-627
219,1963.8575690000835,8,56,-104,-4222,-1435,283,-558
220,1972.841489000075,8,99,72,-4153,-1124,248,-452
221,1981.6764110000804,8,124,216,-4095,-712,208,-351
222,1990.4893319999246,8,133,202,-4116,-465,167,-191
223,1999.395252999875,8,32,155,-3870,-296,165,-38
224,2008.2281749996582,8,22,64,-4057,-174,229,59
225,2017.1770960000686,8,-53,-27,-4044,-98,267,123
226,2026.0570169998573,8,-67,-37,-3918,-114,278,196
227,2034.9519379997218,8,-76,-22,-3818,-145,288,266
228,2043.8848589997178,8,-46,-80,-3618,-140,304,338
229,2052.8007799998704,8,2,-102,-3452,-84,303,374
230,2061.687700999755,8,23,-180,-3080,-38,330,407
231,2070.5466219997106,8,50,-191,-3207,-25,325,446
232,2079.4035429998985,8,46,-237,-3129,-47,269,463
233,2088.308463999965,8,-55,-233,-3106,-39,200,500
234,2097.248385000057,8,-82,-97,-3128,-66,164,575
235,2106.0843069999464,8,-104,-13,-3195,-96,177,678
236,2115.1882260001003,9,-145,56,-3232,-87,183,763
237,2124.13814599995,8,-135,68,-3204,-79,189,851
238,2132.976068000062,8,-127,26,-3209,-48,195,934
239,2141.775990000042,8,-119,-41,-3268,-36,158,1032
240,2150.4599129998496,8,-174,-93,-3324,-52,129,1081
241,2159.321833999911,8,-229,-186,-3374,-113,113,1089
242,2168.0787569998756,8,-244,-248,-3414,-183,106,1061
243,2176.919678000104,8,-193,-145,-3391,-253,98,1022
244,2185.734599999705,8,-225,-178,-3398,-312,40,974
245,2194.5075220000945,8,-167,-106,-3442,-380,16,960
246,2203.256445000079,8,-184,30,-3480,-444,-3,983
247,2212.0243669996853,8,-136,160,-3508,-433,-40,1046
248,2220.818288999908,8,-134,317,-3609,-343,-87,1129
249,2229.703210000025,8,-82,318,-3780,-228,-128,1211
250,2238.5291319997123,8,-123,247,-3915,-115,-153,1228
251,2247.3330539996823,8,-159,187,-4333,-38,-133,1184
252,2256.7389699997875,9,-135,75,-4103,-55,-107,1137
253,2265.669891000016,8,-182,67,-4096,-147,-87,1123
254,2274.5048130000214,8,-104,123,-4091,-265,-66,1112
255,2283.3677339999667,8,-43,235,-4058,-340,-62,1106
256,2292.278654999791,8,238,212,-3921,-377,-42,1145
257,2301.0975769998367,8,84,279,-3788,-416,-15,1169
258,2310.052497000015,8,137,367,-3635,-437,-8,1196
259,2318.8344189998134,8,183,390,-3538,-474,-35,1232
260,2327.9883380000683,9,228,409,-3541,-517,-110,1260
261,2337.2562559998187,9,290,373,-3702,-556,-175,1248
262,2346.5521729999637,9,484,600,-3989,-634,-308,1116
263,2355.8150909998403,9,256,304,-4221,-551,-316,1142
264,2365.0800089999393,9,86,942,-4411,-514,-220,1137
265,2374.0729289997944,8,-31,1079,-4499,-466,-144,1186
266,2383.2528479997563,9,-166,1101,-4482,-388,-88,1282
267,2392.446765999921,9,-510,1122,-4431,-366,-84,1378
268,2401.71568400001,9,-318,965,-4363,-348,-90,1429
269,2411.016602000018,9,-307,771,-4251,-383,-132,1424
270,2420.1785199998085,9,-303,716,-4250,-408,-139,1368
271,2429.5364370000243,9,-289,759,-4232,-432,-154,1308
272,2438.4583579999344,8,-219,804,-4272,-462,-169,1240
273,2447.3192800001016,8,-144,915,-4360,-477,-185,1180
274,2456.168200999855,8,-183,1268,-4433,-450,-212,1139
275,2465.107122000063,8,-242,1146,-4566,-421,-228,1118
276,2473.9480429998366,8,-282,1191,-4644,-372,-195,1139
277,2482.8919639999185,8,-335,1221,-4680,-338,-154,1165
278,2491.7408859996613,8,-264,1452,-4655,-304,-114,1179
279,2500.722805999885,8,-213,1124,-4364,-330,-90,1175
280,2509.5887269999366,8,-181,1119,-4557,-344,-87,1167
281,2518.5156479997204,8,-105,1083,-4532,-412,-78,1126
282,2527.395568999964,8,-37,1087,-4482,-455,-58,1086
283,2536.195490999944,8,16,1134,-4494,-501,-57,1037
284,2545.077411999955,8,60,1163,-4483,-496,-80,1000
285,2553.8613339999756,8,75,1187,-4594,-488,-106,959
286,2562.629257000026,8,69,1153,-4773,-442,-119,923
287,2571.6831760000787,9,41,1172,-5029,-388,-111,858
288,2580.501097999786,8,42,1218,-5229,-341,-82,769
289,2589.3320199998016,8,-254,1290,-5399,-324,-42,702
290,2598.1509419998474,8,-26,1340,-5481,-349,17,634
291,2606.9148639999185,8,-81,1382,-5483,-448,129,559
292,2615.937783999925,9,-95,1417,-5428,-544,218,529
293,2624.8407049997695,8,-136,1591,-5139,-625,267,503
294,2633.639626999866,8,-116,1474,-4975,-675,297,495
295,2642.5005480000436,8,-146,1501,-4615,-610,322,504
296,2651.3724689998526,8,-160,1531,-4804,-494,375,533
297,2660.0373930000387,8,-109,1573,-4610,-337,409,573
298,2668.812314999741,8,-101,1518,-4485,-142,424,598
299,2677.748235999843,8,-123,1478,-4353,-43,430,621
300,2686.5951569998288,8,-110,1405,-4233,-15,450,637
301,2695.552077999764,8,-137,1374,-4107,-31,449,652
302,2704.39899899975,8,-217,1370,-4096,-109,466,644
303,2713.404918999913,9,-206,1261,-3999,-183,559,621
304,2722.275840999828,8,-255,1164,-3902,-252,572,600
305,2731.1547619997327,8,-200,1116,-3814,-324,568,590
306,2740.0546829999257,8,-179,940,-3795,-333,525,615
307,2748.910603999775,8,-209,1115,-3759,-287,480,588
308,2757.8695249999328,8,-110,1147,-3732,-160,472,562
309,2766.7024459997265,8,-152,1218,-3726,6,467,561
310,2775.6713670000863,8,-92,1235,-3692,180,483,576
311,2784.554287999981,8,-99,1254,-3679,277,471,610
312,2793.491208999967,8,-72,1176,-3598,280,460,644
313,2802.2901310000634,8,-24,1116,-3675,260,445,630
314,2811.1360519997106,8,41,1120,-3717,241,421,631
315,2820.0129739998374,8,80,1164,-4084,236,396,627
316,2828.9868940000815,8,62,1204,-3943,276,400,613
317,2837.8508149999107,8,105,1224,-3955,325,440,603
318,2846.605737999653,8,143,1235,-3902,383,462,621
319,2855.3096599998753,8,225,1250,-3867,433,443,642
320,2864.206580999962,8,264,1245,-3910,527,375,664
321,2872.987503999866,8,301,1192,-4070,632,343,682
322,2881.7164259999117,8,302,1138,-4177,722,349,679
323,2890.49434799972,8,314,1073,-4251,753,382,664
324,2899.305269999786,8,318,775,-4215,704,417,640
325,2908.046192999791,8,360,983,-4114,605,409,629
326,2916.79211499968,8,418,938,-4069,496,376,601
327,2925.696035999863,8,435,895,-3986,435,336,577
328,2934.47095800002,8,495,901,-3955,432,302,548
329,2943.4068789996672,8,529,970,-3898,466,230,506
330,2952.122801999849,8,549,928,-3856,559,131,479
331,2960.919723999723,8,510,899,-3933,690,36,430
332,2969.7106459998395,8,467,762,-3966,787,-13,378
333,2978.615566999906,8,443,712,-3990,793,-8,308
334,2987.4314879998565,8,460,643,-3947,716,-16,242
335,2996.3634089999687,8,511,680,-3873,571,-32,222
336,3005.1683309998225,8,557,704,-3787,386,-48,219
337,3014.1782509999757,9,617,718,-3742,294,-77,226
338,3023.0261729998347,8,659,728,-3693,286,-130,239
339,3031.8700939997143,8,711,730,-3640,375,-168,251
340,3040.745015000084,8,792,763,-3524,605,-215,259
341,3049.5589369998015,8,793,522,-3524,815,-276,288
342,3058.5098579999794,8,827,742,-3820,1003,-313,306
343,3067.3277799996868,8,742,711,-3626,1150,-289,367
344,3076.2277009998797,8,753,626,-3607,1184,-232,441
345,3085.062621999896,8,762,466,-3612,1060,-195,505
346,3093.9005440000074,8,743,367,-3693,900,-197,531
347,3102.8514649997305,8,748,326,-3747,735,-192,542
348,3111.683386000095,8,768,293,-3756,622,-187,546
349,3120.4973079998126,8,766,236,-3854,651,-230,542
350,3130.315220999819,9,776,241,-3871,868,-230,510
351,3139.5521389999885,9,814,199,-3902,1135,-273,485
352,3148.872056000073,9,812,148,-3975,1719,-354,451
353,3158.1139739996615,9,713,150,-4080,1921,-419,436
354,3167.2428930000933,9,648,-15,-4156,2224,-417,472
355,3176.5008110000963,9,477,-197,-4333,2394,-370,537
356,3185.721729999841,9,359,-363,-4429,2341,-252,575
357,3195.0056470000163,9,376,-524,-4491,2207,-163,578
358,3204.2335649998677,9,374,-583,-4504,2048,-123,265
359,3213.493483000093,9,355,-637,-4524,2282,-108,453
360,3222.6174019997416,9,425,-797,-4541,2229,-77,342
361,3232.431314999758,9,755,-983,-4328,2585,-73,149
362,3241.2732369998594,8,592,-1102,-4103,3048,-81,32
363,3250.1061590000973,8,561,-1227,-3947,3305,-127,-4
364,3259.6000749999803,9,494,-1349,-3862,3419,-155,-40
365,3268.55399499982,8,463,-1596,-3892,3397,-143,-22
366,3277.3559170000226,8,378,-1644,-3879,3305,-107,11
367,3286.1348389997147,8,393,-1826,-3855,3172,-30,63
368,3295.002760999978,8,335,-1934,-3868,3048,15,121
369,3303.7396830000034,8,318,-2027,-3810,2960,82,102
370,3312.560604999817,8,343,-2523,-3609,2984,141,29
371,3321.4265259998683,8,399,-2455,-3297,3061,177,-44
372,3330.2734479998435,8,443,-2427,-2958,3119,156,-71
373,3339.094369999657,8,403,-2373,-2734,3117,94,-19
374,3347.9172909997033,8,349,-2555,-2564,3088,38,28
375,3356.795212999714,8,358,-2402,-2453,3044,13,110
376,3365.6821340000533,8,268,-2642,-2376,2992,39,214
377,3374.509056000079,8,214,-2775,-2347,2923,97,289
378,3383.3889769998677,8,191,-2861,-2285,2838,124,313
379,3392.217898999661,8,241,-3002,-2165,2782,129,302
380,3401.109819999874,8,324,-3309,-2018,2833,98,248
381,3410.037740000007,8,466,-3437,-1763,2961,1,158
382,3418.8366620001034,8,455,-3402,-1595,3080,-169,109
383,3427.8635820001,9,428,-3313,-1505,3083,-388,119
384,3436.704503999863,8,324,-3285,-1441,3019,-543,199
385,3445.6394250000812,8,314,-3406,-1352,2909,-640,290
386,3454.486346000067,8,138,-3801,-1263,2727,-683,385
387,3463.423267000053,8,16,-3735,-1261,2476,-693,441
388,3472.288187999766,8,-109,-3895,-1291,2163,-662,448
389,3481.164110000009,8,-171,-3964,-1332,1903,-670,413
390,3490.067030999853,8,-140,-4044,-1283,1820,-738,344
391,3498.9449519998743,8,-87,-4101,-1234,1911,-822,2
392,3507.8688730000067,8,-127,-4037,-1209,2065,-915,178
393,3516.7567939997753,8,-113,-3898,-1050,2200,-968,174
394,3525.7217149996904,8,-112,-3714,-932,2289,-999,244
395,3534.5456360000753,8,-129,-3520,-816,2277,-1051,346
396,3543.476556999849,8,-132,-3535,-710,2244,-1084,494
397,3552.2464789996775,8,-171,-3581,-711,2253,-1133,574
398,3561.0644009998396,8,-194,-3709,-730,2284,-1175,615
399,3569.9443230000725,8,-243,-3947,-736,2324,-1185,605
400,3578.753243999927,8,-266,-4068,-654,2319,-1167,536
401,3587.536167000053,8,-231,-4103,-489,2264,-1167,486
402,3596.415087999958,8,-257,-4075,-420,2159,-1234,481
403,3605.1380099997914,8,-324,-4119,-403,2063,-1273,482
404,3613.9819319996604,8,-377,-4219,-396,2030,-1264,486
405,3622.8028539999286,8,-421,-4267,-346,2073,-1225,553
406,3631.6817749998336,8,-456,-4164,-284,2171,-1144,634
407,3640.5526959997587,8,-489,-4230,-204,2257,-777,696
408,3649.209619999965,8,-446,-4363,7,2276,-865,715
409,3658.3005389998107,9,-423,-4451,276,2249,-820,684
410,3667.1644600000946,8,-423,-4473,570,2190,-858,655
411,3675.9333830000287,8,-358,-4483,739,2084,-906,632
412,3684.6023059997606,8,-346,-4524,900,1989,-966,596
413,3693.5282269996605,8,-393,-4524,1276,1883,-1048,272
414,3702.3451479999494,8,-404,-4628,1165,1775,-1120,410
415,3711.2290699997175,8,-419,-4372,1200,1655,-1219,330
416,3720.1329909999004,8,-421,-4512,1236,1525,-1279,310
417,3729.104910999922,8,-452,-4332,1185,1346,-1270,321
418,3737.955832999887,8,-449,-4220,1173,1179,-1271,327
419,3746.799753999767,8,-398,-4142,1297,1042,-1256,324
420,3755.767674999788,8,-371,-3842,1415,994,-1272,316
421,3764.62159599987,8,-367,-4080,1465,999,-1307,306
422,3773.5415170000124,8,-339,-4140,1545,1030,-1316,218
423,3782.3594389997197,8,-312,-4177,1625,1073,-1329,115
424,3791.1813609998717,8,-257,-4149,1713,1069,-1377,34
425,3800.084281999716,8,-247,-4097,1809,1014,-1441,-9
426,3808.9432029996715,8,-221,-4040,1845,866,-1492,-25
427,3817.911123999693,8,-244,-3836,1771,652,-1549,16
428,3826.785044999724,8,-121,-3485,1623,477,-1555,76
429,3835.720965999826,8,-107,-3220,1527,359,-1490,154
430,3844.5758869997917,8,238,-2990,1512,374,-1441,174
431,3853.4578079998028,8,89,-2904,1540,544,-1420,189
432,3862.2657299997627,8,143,-2883,1590,702,-1412,196
433,3871.1326519996874,8,213,-2992,1621,797,-1401,159
434,3880.0295729997742,8,202,-3134,1702,514,-1415,106
435,3888.815495000017,8,219,-3194,1727,664,-1444,72
436,3897.619416999987,8,234,-3171,1638,462,-1464,99
437,3906.4473389998966,8,171,-3062,1479,326,-1489,188
438,3915.232260999801,8,185,-3115,1061,246,-1440,315
439,3923.9541829997506,8,167,-3266,1198,286,-1316,346
440,3932.509106999987,8,180,-3415,1251,455,-1171,315
441,3942.543017999924,10,213,-3489,1404,563,-1079,272
442,3951.811936000013,9,224,-3831,1528,553,-1020,242
443,3961.0998539997126,9,219,-3689,1649,487,-1026,207
444,3970.3317720000086,9,229,-3792,1762,387,-1022,220
445,3979.6306899997944,9,202,-3814,2036,357,-1015,294
446,3988.860607999868,9,161,-3915,1850,388,-975,332
447,3998.1245260000833,9,30,-3983,1921,432,-905,335
448,4007.4744429998646,9,19,-4019,2056,462,-868,298
449,4016.6133620000437,9,0,-4039,2202,487,-845,242
450,4025.8682799999406,9,4,-4016,2315,473,-870,189
451,4035.6621930000074,9,-8,-4016,2411,430,-931,162
452,4044.5351139997,8,-29,-3966,2390,395,-990,165
453,4053.5120340000503,8,244,-3927,2338,373,-1031,194
454,4062.338956000076,8,17,-3935,2279,433,-1027,236
455,4071.110877999672,8,27,-4014,2281,478,-985,247
456,4080.062798999734,8,61,-4107,2306,522,-969,225
457,4088.8597210000626,8,151,-4101,2349,536,-991,200
458,4097.7856419999625,8,186,-4099,2345,431,-1027,170
459,4106.601563999902,8,260,-4110,2363,316,-1064,127
460,4115.438484999686,8,372,-3980,2337,248,-1117,92
461,4124.387406000096,8,525,-3842,2300,228,-1186,102
462,4133.2233279999855,8,653,-3781,2225,261,-1524,113
463,4142.041248999703,8,741,-3799,2152,347,-1351,121
464,4150.815171999966,8,814,-3910,2045,428,-1426,108
465,4159.621093999704,8,802,-4075,1935,766,-1439,46
466,4168.53001499976,8,835,-4142,1850,488,-1487,18
467,4177.3149369996645,8,861,-4088,1826,350,-1519,0
468,4185.990859999947,8,891,-3981,1746,215,-1559,-14
469,4194.699783000033,8,948,-3786,1721,80,-1628,-31
470,4203.504704999887,8,1035,-3568,1662,-30,-1695,-60
471,4212.33762599968,8,1096,-3341,1566,-110,-1784,-63
472,4221.112548999827,8,1136,-3136,1431,-161,-1898,-54
473,4230.019469999661,8,1159,-2985,1025,-154,-2011,-43
474,4238.889390999702,8,1154,-3017,1154,-147,-2034,-11
475,4247.747311999774,8,1095,-3058,1055,-182,-2016,11
476,4256.886230999953,9,1050,-3152,1067,-238,-1983,25
477,4265.785152999797,8,972,-3239,1089,-278,-1985,79
478,4274.574074999691,8,970,-3268,1124,-336,-2012,123
479,4283.514994999678,8,1006,-3323,1171,-356,-2025,132
480,4292.355916999895,8,1034,-3389,1252,-340,-2032,98
481,4301.176838999709,8,1089,-3371,1358,-312,-2045,34
482,4310.220759000003,9,1151,-3203,1442,-302,-2045,-34
483,4319.029680999847,8,1196,-3081,1464,-275,-2027,-60
484,4328.036600999894,9,1200,-3019,1397,-214,-1986,237
485,4336.907521999819,8,1226,-2996,1286,-129,-1846,51
486,4345.82144299975,8,1227,-3154,1230,-44,-1649,183
487,4354.7293639999225,8,1245,-3415,1211,26,-1431,250
488,4363.6222850000195,8,1242,-3599,1236,52,-1195,267
489,4372.486206999838,8,1253,-3789,1315,47,-916,233
490,4381.433127000037,8,1291,-3887,1416,37,-716,185
491,4390.256049000072,8,1370,-3915,1520,68,-269,137
492,4399.153970000043,8,1427,-3595,1662,133,-300,124
493,4407.972892000089,8,1506,-3771,1821,156,-118,170
494,4416.789813999912,8,1561,-3702,2019,187,48,271
495,4425.76073500004,8,1663,-3570,2199,208,205,377
496,4434.613655999783,8,1704,-3421,2382,207,313,756
497,4443.550576999769,8,1717,-3328,2792,212,386,636
498,4452.337498999896,8,1674,-3383,2723,214,376,754
499,4461.170420999679,8,1683,-3627,2804,236,304,796
500,4470.054341999912,8,1683,-3857,2729,251,145,768
501,4478.85626399966,8,1721,-3908,2493,246,-22,703
502,4487.689185999898,8,1774,-3900,2187,225,-116,678
503,4496.471107999696,8,1790,-3846,1948,189,-198,674
504,4505.212029999711,8,1782,-3726,1751,184,-221,672
505,4514.116950999778,8,1783,-3646,1539,199,-159,665
506,4522.908872999778,8,1809,-3381,1471,178,-66,656
507,4531.682796000041,8,1768,-3298,1486,182,-12,668
508,4540.539716999774,8,1745,-3232,1557,213,-8,652
509,4549.37463899978,8,1741,-3268,1568,296,-44,606
510,4558.161560999906,8,1766,-3247,1576,342,-95,586
511,4567.033481999715,8,1716,-3223,1469,330,-128,589
512,4575.830404000044,8,1680,-3232,1394,293,-139,606
513,4584.6803259996705,8,1603,-3240,1286,222,-127,599
514,4593.556246999924,8,1535,-3213,1159,180,-67,592
515,4602.322168999763,8,1428,-3140,1063,130,7,594
516,4611.168090999854,8,1333,-3113,971,75,77,592
517,4620.055011999739,8,1307,-3066,929,33,174,599
518,4628.967932999785,8,1291,-2999,934,5,274,631
519,4637.880853999832,8,1243,-3006,985,-37,322,729
520,4646.730775999913,8,1176,-3149,1064,-141,372,806
521,4655.659696999919,8,1089,-3284,1075,-329,390,829
522,4664.5296179999605,8,1039,-3350,1128,-517,359,835
523,4673.300539999673,8,1044,-3424,1191,-734,330,873
524,4682.162461999724,8,971,-3408,1185,-1269,313,988
525,4690.813384999728,8,882,-3282,1132,-1305,277,1123
526,4699.632306999774,8,862,-3066,974,-1696,235,1289
527,4708.5312280000835,8,767,-2876,817,-2027,220,1739
528,4717.559147999964,9,729,-2788,575,-2373,255,1763
529,4726.497068999834,8,612,-2825,389,-2723,322,1966
530,4735.802985999726,9,422,-3021,189,-3134,431,2094
531,4745.143903000098,9,3,-3275,-132,-3476,514,2149
532,4754.397820999657,9,-44,-3618,-296,-3695,642,2105
533,4763.696738999897,9,-178,-3892,-551,-3765,772,1907
534,4772.971656999744,9,-366,-3953,-723,-3611,936,1713
535,4782.162574999802,9,-303,-3838,-825,-3425,1071,1540
536,4791.409492999719,9,-308,-3696,-933,-3046,1174,1495
537,4800.581411999701,9,-333,-3757,-1048,-2768,1237,1616
538,4809.791329999825,9,-707,-3983,-1291,-2688,1314,1829
539,4819.0072489996965,9,-714,-4185,-1573,-2896,1482,1991
540,4828.23716699977,9,-1240,-4680,-1881,-3214,1631,1986
541,4837.996079999812,9,-1246,-4942,-2049,-3335,1682,1871
542,4846.838001999913,8,-1320,-4978,-2105,-3296,1665,1753
543,4855.686923999656,8,-1263,-4812,-2119,-2838,1617,1679
544,4864.572844999657,8,-1150,-4633,-2064,-2676,1280,1545
545,4873.3997669996825,8,-967,-4517,-1979,-2313,1419,1417
546,4882.167688999743,8,-792,-4269,-1881,-2128,1297,1277
547,4890.955610999754,8,-915,-4095,-1909,-2042,1118,1114
548,4899.716532999719,8,-1124,-3921,-2052,-2025,966,1100
549,4908.589454999856,8,-1268,-3626,-2341,-2249,924,1175
550,4917.37037699977,8,-1439,-3653,-2704,-2449,952,1216
551,4926.089299000068,8,-1469,-3535,-3290,-2544,975,1211
552,4935.17121900004,9,-1473,-3526,-3219,-2392,990,1167
553,4944.007140999929,8,-1293,-3556,-3166,-1896,1045,1098
554,4952.88906199994,8,-1109,-3523,-2966,-1405,1038,945
555,4961.715983999966,8,-889,-3322,-2782,-996,974,801
556,4970.51690599983,8,-750,-3026,-2621,-524,856,689
557,4979.464825999912,8,-829,-2569,-2599,-792,734,607
558,4988.308747999781,8,-1134,-2573,-2672,-893,664,676
559,4997.251668999979,8,-1348,-2490,-2880,-1032,708,839
560,5006.073589999687,8,-1484,-2424,-2963,-1239,777,966
561,5015.017510999769,8,-1282,-2603,-3312,-1327,909,1037
562,5023.893432000023,8,-1522,-2827,-3789,-1221,853,922
563,5032.760353999947,8,-1380,-2964,-3713,-954,766,724
564,5041.639274999852,8,-1323,-2949,-3907,-631,710,614
565,5050.474196999858,8,-1179,-2903,-4022,-380,745,533
566,5059.4151179998335,8,-1317,-2664,-4102,-351,874,514
567,5068.32803899988,8,-1479,-2449,-4063,-739,996,647
568,5077.26995899975,8,-1458,-2295,-3838,-1021,1141,828
569,5086.096880999776,8,-1445,-2352,-3648,-1164,1239,957
570,5095.043801999964,8,-1444,-2372,-3503,-1413,1228,1278
571,5103.864723999777,8,-1475,-2282,-3550,-1565,1155,1078
572,5112.781644999814,8,-1483,-2187,-3726,-1606,1047,1092
573,5121.61256599984,8,-1566,-2138,-3973,-1397,928,1084
574,5130.4894879999665,8,-1629,-2213,-4220,-1109,852,1075
575,5139.516407999963,9,-1695,-2236,-4513,-532,842,1086
576,5148.446327999864,8,-2032,-2302,-4655,-510,849,1131
577,5157.252250000056,8,-1994,-2416,-4745,-337,843,1202
578,5166.058171999794,8,-2062,-2674,-4830,-373,866,1248
579,5174.923093999951,8,-2141,-2782,-4835,-464,884,1208
580,5183.744015999764,8,-2128,-2836,-4763,-547,883,1160
581,5192.523937999795,8,-2056,-2858,-4655,-643,906,1106
582,5201.368860000002,8,-1966,-2728,-4506,-692,906,775
583,5210.038783000073,8,-1905,-2531,-4343,-708,890,963
584,5218.744706000052,8,-1780,-2314,-3842,-718,840,883
585,5227.527627999734,8,-1699,-2092,-3914,-702,812,866
586,5236.46854899971,8,-1617,-1929,-3779,-677,816,858
587,5245.293469999979,8,-1524,-1745,-3625,-650,847,847
588,5254.708386999937,9,-1420,-1624,-3467,-608,860,846
589,5263.601308000034,8,-1326,-1588,-3396,-593,844,860
590,5272.380229999726,8,-1281,-1606,-3380,-637,840,850
591,5281.285150999793,8,-1177,-1654,-3317,-725,860,797
592,5290.179072999763,8,-1125,-1646,-3199,-810,838,754
593,5299.015994000001,8,-992,-1585,-3190,-892,802,717
594,5307.921914999952,8,-924,-1452,-3115,-909,755,686
595,5316.7198369997095,8,-871,-1370,-3143,-880,689,679
596,5325.742756999716,9,-827,-1184,-3292,-825,641,659
597,5334.558678999656,8,-741,-1230,-3310,-786,633,648
598,5343.540599999869,8,-637,-1277,-3403,-716,595,653
599,5352.427520999754,8,-730,-1381,-3690,-666,556,606
600,5361.289441999816,8,-790,-1413,-3938,-637,540,568
601,5370.143363999887,8,-836,-1372,-4122,-621,563,513
602,5379.006284999832,8,-807,-1594,-4230,-630,630,466
603,5387.918206999984,8,-888,-1554,-4260,-601,666,419
604,5396.853126999758,8,-817,-1535,-4215,-272,705,397
605,5405.752048000068,8,-743,-1553,-4116,-396,726,373
606,5414.61296999978,8,-683,-1527,-4007,-284,739,322
607,5424.3968830000995,9,-656,-1585,-3936,-203,728,275
608,5433.210804999817,8,-620,-1654,-3900,-215,739,223
609,5442.125726000086,8,-601,-1649,-3852,-274,731,130
610,5450.962647999859,8,-585,-1647,-3931,-354,713,92
611,5459.7995700000865,8,-608,-1290,-3946,-452,715,56
612,5468.689491000077,8,-617,-1465,-3989,-504,716,52
613,5477.532412000073,8,-613,-1293,-3986,-547,735,67
614,5486.412333999851,8,-612,-1179,-3964,-546,747,59
615,5495.252254999741,8,-578,-1069,-3932,-510,751,58
616,5504.094176999843,8,-532,-773,-3874,-499,736,56
617,5512.962097999662,8,-524,-992,-3800,-540,688,34
618,5521.772019999844,8,-496,-957,-3775,-622,608,13
619,5530.6359419996625,8,-495,-927,-3816,-1005,265,-12
620,5539.433863999875,8,-540,-884,-3935,-929,417,-52
621,5548.787781000101,9,-520,-739,-4095,-1072,365,-75
622,5558.195697999963,9,-468,-577,-4221,-1176,340,-76
623,5567.440615999658,9,-406,-389,-4318,-1155,303,-35
624,5576.650533999782,9,-316,-308,-4348,-1045,286,10
625,5585.925452000083,9,-257,-186,-4272,-920,294,56
626,5595.150369999828,9,-203,-147,-4122,-528,294,113
627,5604.461288000039,9,-133,-105,-3995,-694,292,166
628,5613.683205999678,9,-53,-121,-3854,-659,264,224
629,5622.894123999686,9,3,-125,-3827,-684,246,268
630,5632.170041999871,9,9,-131,-3829,-733,257,296
631,5641.255961999832,9,51,-37,-3860,-753,252,307
632,5650.951875999908,9,88,65,-3966,-694,250,343
633,5659.803796999768,8,146,149,-3989,-295,276,416
634,5668.674718999682,8,170,212,-3912,-323,322,523
635,5677.53963999985,8,190,271,-3855,-146,350,638
636,5686.420560999977,8,222,226,-3734,34,364,752
637,5695.339481999781,8,178,126,-3636,178,385,829
638,5704.215404000024,8,172,-23,-3584,334,390,824
639,5713.07032499999,8,194,-201,-3581,498,343,735
640,5721.676248999756,8,222,-403,-3641,625,275,629
641,5730.317172000014,8,191,-425,-3761,653,197,263
642,5739.13209400007,8,97,-385,-4144,646,90,407
643,5748.0240159998175,8,5,-243,-4492,625,38,352
644,5756.833938,8,-62,-94,-4727,617,51,358
645,5765.824858000087,8,-62,66,-4889,684,69,423
646,5774.640780000027,8,-79,114,-5048,801,83,527
647,5783.482700999684,8,-107,26,-5061,1020,129,589
648,5792.282622999664,8,-94,-132,-4991,1243,155,631
649,5801.0695459997805,8,-62,-416,-4920,1469,104,631
650,5810.027466000065,8,-84,-629,-4818,1683,57,550
651,5818.78038900004,8,-85,-834,-4709,1853,8,458
652,5827.561310999954,8,-108,-995,-4652,2005,-80,365
653,5836.403232000066,8,-235,-1059,-4731,2081,-194,320
654,5845.246154000051,8,-331,-1149,-4808,2109,-183,320
655,5854.105075999996,8,-400,-1133,-4866,2120,-88,352
656,5862.9339969998,8,-459,-1283,-4852,2144,255,406
657,5871.689919999881,8,-399,-1490,-4705,2082,157,439
658,5880.580840999755,8,-311,-1628,-4422,1956,353,448
659,5889.386762999948,8,-186,-1767,-4104,1550,363,440
660,5898.210684999867,8,-101,-1872,-3946,1691,337,387
661,5907.176604999677,8,2,-1963,-3736,1651,287,311
662,5916.003526999702,8,85,-1928,-3531,1690,176,0
663,5924.948447999668,8,133,-1829,-3411,1800,48,234
664,5933.771369999704,8,78,-1805,-3439,1993,-28,219
665,5942.646291000074,8,-48,-1916,-3441,2249,-53,258
666,5951.5872120000495,8,-192,-1970,-3482,2371,17,342
667,5960.432132999813,8,-207,-2099,-3431,2386,134,416
668,5969.337054999869,8,-245,-2212,-3393,2310,500,450
669,5978.266974999769,8,-255,-2326,-3217,2216,289,447
670,5987.155896999866,8,-165,-2396,-3103,2133,323,461
671,5996.030817999781,8,-171,-2468,-2940,2065,293,479
672,6004.924738999762,8,-171,-2446,-2888,2028,265,475
673,6013.780661000055,8,-115,-2411,-2775,2013,254,764
674,6022.646581999652,8,-109,-2372,-2699,2048,165,561
675,6031.572503000007,8,-221,-2433,-2713,2133,63,579
676,6040.395425000042,8,-287,-2704,-2835,2206,51,532
677,6049.218347000078,8,-441,-2996,-2865,2156,128,411
678,6058.12726799968,8,-413,-3208,-2793,2084,238,214
679,6067.659182999705,9,-291,-3276,-2571,1966,236,105
680,6076.532104999842,8,-190,-3338,-2354,1840,188,51
681,6085.324026999842,8,-155,-3359,-2248,1685,71,29
682,6094.2629480000505,8,-158,-3304,-2226,1568,-55,46
683,6103.071868999905,8,-152,-3241,-2260,1503,-201,71
684,6111.956791000011,8,-208,-3240,-2318,1583,-359,74
685,6120.814712000083,8,-223,-3317,-2408,1804,-481,69
686,6129.623633999927,8,-318,-3502,-2490,2111,-559,22
687,6138.533554999867,8,-385,-3707,-2464,2464,-593,-57
688,6147.384476999832,8,-496,-3865,-2390,2805,-589,-166
689,6156.141398999807,8,-512,-3971,-2230,2998,-608,-242
690,6165.0283209996815,8,-477,-3937,-1799,3121,-608,-242
691,6173.788242999763,8,-424,-3932,-1781,3109,-616,-211
692,6182.631164999748,8,-387,-3962,-1521,2997,-666,-155
693,6191.512085999875,8,-430,-3974,-1330,2836,-777,-97
694,6200.301007999769,8,-479,-3987,-1197,2672,-901,-44
695,6209.272928999781,8,-550,-4014,-1087,2530,-1048,-31
696,6218.065850999665,8,-625,-4056,-1069,2446,-1162,-61
697,6226.932772000055,8,-660,-4042,-1068,2446,-1227,-112
698,6235.707694999746,8,-687,-3893,-778,2431,-1263,-186
699,6247.576588999891,11,-654,-3655,-833,2343,-1257,-188
700,6257.010505999915,9,-610,-3376,-635,2199,-1273,-114
701,6265.888426999936,8,-269,-3208,-392,2019,-1287,0
702,6274.698348999664,8,-547,-3066,-280,1794,-1356,117
703,6283.61926999969,8,-547,-3007,-238,1670,-1483,491
704,6292.464191999898,8,-608,-2996,-241,1581,-1540,396
705,6301.421111999844,8,-1018,-3134,-335,1545,-1645,427
706,6310.311033999824,8,-841,-3445,-404,1651,-1643,390
707,6319.252953999694,8,-820,-3588,-364,1729,-1509,350
708,6328.213875000074,8,-804,-3687,-220,1799,-1458,336
709,6337.1127959999285,8,-800,-3757,-149,1830,-1433,360
710,6346.659712000019,9,-835,-3882,-90,1812,-1418,385
711,6355.962628999805,9,-877,-4044,-25,1766,-1388,406
712,6365.174547999686,9,-914,-4155,23,1746,-1355,434
713,6374.421466000058,9,-936,-4289,339,1731,-1349,416
714,6383.616383999652,9,-883,-4344,554,1755,-1357,391
715,6392.904301999806,9,-921,-4394,763,1809,-1383,345
716,6402.051220999965,9,-886,-4466,893,1891,-1404,309
717,6411.27613899971,9,-876,-4496,988,1888,-1404,274
718,6420.541056999809,9,-903,-4428,1111,1825,-1422,270
719,6429.7529759996905,9,-852,-4354,1168,1653,-1443,275
720,6438.921894000032,9,-804,-4268,1201,1408,-1469,291
721,6448.873805999938,9,-742,-4185,1223,1246,-1512,310
722,6457.760727999812,8,-674,-4113,1165,1151,-1563,341
723,6466.552649999812,8,-591,-4134,1109,1141,-1564,351
724,6475.350572000025,8,-518,-4175,1080,1212,-1519,330
725,6484.166493999965,8,-441,-4260,1180,1276,-1434,295
726,6493.04141499988,8,-341,-4250,1291,1273,-1386,277
727,6501.8253369999,8,-269,-4200,1382,1144,-1370,262
728,6510.783257999719,8,-218,-4169,1436,835,-1400,244
729,6519.5831799996995,8,-190,-3975,1422,603,-1485,233
730,6528.531100999771,8,-125,-3875,1332,439,-1536,247
731,6537.441021999712,8,-94,-3733,1233,386,-1553,216
732,6546.432941999683,8,-5,-3658,1176,441,-1518,170
733,6555.262863999815,8,19,-3571,1196,503,-1443,154
734,6564.213784999993,8,8,-3420,1250,474,-1410,122
735,6573.007706999761,8,55,-3382,1270,378,-1402,120
736,6581.91062800006,8,64,-3305,1284,199,-1416,115
737,6590.801548999934,8,102,-3233,1025,64,-1428,111
738,6599.626470999738,8,164,-3155,1250,-40,-1447,88
739,6608.600390999982,8,224,-3146,1239,-76,-1456,38
740,6617.435312999987,8,285,-3289,1267,4,-1401,-33
741,6626.384233999943,8,184,-3338,1244,39,-1411,-59
742,6635.202156000105,8,262,-3292,1190,53,-1434,-17
743,6644.101076999959,8,281,-3284,1137,-15,-1388,27
744,6653.064997999991,8,246,-3581,1103,-119,-1320,112
745,6661.896918999901,8,209,-3454,1159,-188,-1180,191
746,6670.791840999755,8,216,-3615,1316,-505,-1086,229
747,6679.656761999922,8,227,-3717,1434,-275,-1046,211
748,6688.553683000009,8,239,-3879,1603,-310,-1053,165
749,6697.478604000025,8,275,-4105,1730,-377,-1115,54
750,6706.3585259998035,8,267,-4198,1803,-457,-1199,-53
751,6715.191447000052,8,252,-4098,1745,-551,-1283,-58
752,6723.959370000102,8,193,-4040,1664,-617,-1343,20
753,6732.795291000002,8,198,-3966,1509,-590,-1334,112
754,6741.411214999971,8,211,-3991,1398,-483,-1255,171
755,6750.194136999653,8,207,-4098,1354,-321,-1134,200
756,6758.990059000098,8,250,-4240,1432,-161,-779,178
757,6767.745981999724,8,326,-4368,1567,-83,-971,126
758,6776.770901999953,9,381,-4482,1672,-77,-984,63
759,6785.611823999716,8,435,-4548,1793,-130,-1063,6
760,6794.441744999858,8,479,-4568,1818,-214,-1157,-23
761,6803.218667999772,8,502,-4465,1797,-388,-1253,-31
762,6812.039589000051,8,495,-4300,1711,-540,-1375,-12
763,6820.847511000011,8,480,-4191,1601,-670,-1440,20
764,6829.688432999774,8,415,-4047,1384,-726,-1480,38
765,6838.6333539997395,8,404,-3902,1161,-654,-1491,64
766,6847.52327499973,8,434,-3894,992,-514,-1428,95
767,6856.4151959999435,8,448,-3906,894,-342,-1335,80
768,6865.276117999656,8,562,-3969,843,-191,-1248,24
769,6874.1890389997025,8,671,-3933,871,-98,-1213,-33
770,6883.097959999759,8,784,-3872,910,-122,-1239,-90
771,6891.941882000083,8,789,-3840,895,-203,-1281,-114
772,6900.8328029999575,8,527,-3767,881,-336,-1299,-99
773,6909.7187239999585,8,683,-3654,794,-474,-1330,-54
774,6918.617644999813,8,656,-3620,649,-513,-1309,21
775,6927.554565999799,8,678,-3760,529,-547,-1176,116
776,6936.443486999906,8,610,-4000,519,-265,-1018,145
777,6945.308409000063,8,535,-4174,568,-436,-885,99
778,6954.266329999882,8,554,-4413,827,-338,-818,-2
779,6965.744227999949,11,620,-4354,965,-288,-888,-140
780,6974.572149999858,8,698,-4157,1072,-264,-1262,-184
781,6983.491070999662,8,711,-3840,1097,-327,-1139,-136
782,6992.340991999754,8,725,-3656,1002,-419,-1217,6
783,7001.234913999724,8,709,-3549,888,-525,-1225,133
784,7009.997835999911,8,716,-3551,759,-626,-1163,282
785,7018.926756999917,8,723,-3640,671,-660,-1065,414
786,7027.936677000071,9,657,-3861,574,-649,-987,487
787,7036.735598999712,8,634,-4108,492,-597,-901,445
788,7045.737518999886,9,644,-4230,438,-514,-831,358
789,7054.567441000017,8,682,-4270,383,-445,-792,294
790,7063.453362000018,8,739,-4292,286,-418,-749,254
791,7072.211284999867,8,781,-4264,221,-456,-696,246
792,7081.012206999731,8,830,-4203,182,-606,-651,300
793,7089.757128999736,8,836,-4136,106,-801,-601,393
794,7098.694049999722,8,857,-4128,27,-1036,-536,461
795,7107.416972999999,8,820,-4063,7,-1501,-458,493
796,7116.350893999879,8,776,-3940,-64,-1438,-376,500
797,7125.162815999829,8,812,-3771,-118,-1516,-304,496
798,7133.913738000047,8,780,-3592,-180,-1540,-210,537
799,7142.841658999714,8,808,-3550,-253,-1521,-150,606
800,7151.556582000012,8,765,-3593,-332,-1503,-99,671
801,7161.1104979997435,9,756,-3578,-417,-1503,-64,730
802,7170.372415999736,9,773,-3610,-584,-1512,-46,787
803,7179.672332999871,9,704,-3660,-705,-1509,-19,861
804,7188.9362510000865,9,643,-3711,-828,-1528,16,930
805,7198.165168999822,9,622,-3681,-896,-1559,60,953
806,7207.451086999754,9,569,-3572,-930,-1554,101,990
807,7216.624006000075,9,467,-3506,-925,-1530,108,1043
808,7225.902923999911,9,477,-3483,-937,-1473,138,1056
809,7235.128841999995,9,413,-3523,-1039,-1308,178,997
810,7244.371759999922,9,354,-3396,-1183,-1123,179,915
811,7253.878675999658,9,332,-3321,-1305,-857,227,864
812,7263.662588999978,9,324,-3361,-1422,-612,286,864
813,7272.457512000074,8,298,-3391,-1505,-368,332,891
814,7281.461432000015,9,244,-3487,-1499,-182,401,942
815,7290.279353999722,8,184,-3544,-1463,-159,504,1033
816,7299.159274999965,8,116,-3583,-1428,-254,553,1228
817,7307.994196999971,8,118,-3435,-1349,-717,606,1344
818,7316.793119000067,8,187,-3579,-1257,-802,690,1436
819,7325.790038999912,8,-78,-3830,-1346,-974,691,1435
820,7334.585960999902,8,-156,-3693,-1398,-1047,697,1355
821,7343.5078819998125,8,-187,-3739,-1380,-782,754,1224
822,7352.343803999702,8,-253,-3765,-1394,-914,763,1143
823,7361.163726000086,8,-305,-3735,-1426,-790,700,1113
824,7370.10264699984,8,-341,-3768,-1573,-690,560,1112
825,7378.90256899982,8,-409,-3876,-1819,-644,459,1115
826,7387.696491000042,8,-559,-4012,-2013,-649,389,1136
827,7396.484413000053,8,-743,-4067,-2161,-761,395,1187
828,7405.222335999952,8,-859,-4033,-2559,-972,482,1245
829,7414.083257999664,8,-933,-4055,-2375,-1198,543,1292
830,7422.917178999796,8,-1235,-3962,-2415,-1396,568,1279
831,7431.674101999761,8,-1076,-3881,-2436,-1786,576,1234
832,7440.483024000059,8,-1122,-3884,-2563,-1548,590,1143
833,7449.326944999939,8,-1118,-3950,-2650,-1478,639,774
834,7458.143866999762,8,-1121,-3948,-2744,-1350,659,905
835,7467.013788999793,8,-1110,-3818,-2783,-1212,675,847
836,7475.818711000102,8,-1107,-3736,-2878,-1153,734,849
837,7484.589632999814,8,-1204,-3752,-3312,-1235,854,896
838,7493.570553999689,8,-1339,-3712,-3353,-1439,1039,973
839,7502.367476000018,8,-1179,-3553,-3322,-1591,1348,999
840,7511.288397000044,8,-917,-2825,-3420,-2079,1659,957
841,7520.114318999731,8,-1025,-3073,-2886,-2102,1833,970
842,7528.976239999793,8,-1047,-2915,-3010,-2045,1746,1002
843,7537.94716099992,8,-1010,-2787,-3023,-1868,1593,1040
844,7546.814081999855,8,-1030,-2807,-3075,-1491,1440,1102
845,7555.808003000038,8,-909,-2708,-3155,-1146,1385,1157
846,7564.657923999675,8,-930,-2711,-3537,-861,1413,1221
847,7573.645845000101,8,-1122,-2749,-3457,-645,1470,1223
848,7582.543766000072,8,-1167,-2575,-3449,-616,1546,1189
849,7591.477686999951,8,-1256,-2795,-3383,-617,1553,1161
850,7600.318608999714,8,-1203,-2842,-3269,-675,1517,1141
851,7609.289528999852,8,-1226,-2926,-3300,-666,1434,1158
852,7618.117450999762,8,-1214,-2881,-3384,-648,1315,1151
853,7627.1073709999655,8,-1265,-2937,-3503,-583,1256,1091
854,7635.9622929999205,8,-1223,-2978,-3561,-426,1174,1019
855,7644.911213999876,8,-1300,-2976,-3660,-213,1080,930
856,7653.863133999948,8,-1287,-2820,-3748,-53,1046,922
857,7662.784054999975,8,-1372,-2724,-3848,31,1070,1015
858,7671.612976999768,8,-1423,-2667,-3945,28,1094,1118
859,7680.466898999839,8,-1455,-2755,-4063,-67,1134,1193
860,7689.342820000093,8,-1515,-2907,-4035,-137,1204,1234
861,7698.245740999937,8,-1497,-3001,-4006,-173,1233,1206
862,7707.118663000074,8,-1457,-3104,-3887,-163,1240,1134
863,7715.89458499966,8,-1317,-3149,-3781,-78,1230,1035
864,7724.687506999999,8,-1237,-3110,-3706,18,1164,947
865,7733.53342900009,8,-1197,-3042,-3645,72,1055,853
866,7742.378350999843,8,-1115,-3002,-3618,76,992,778
867,7751.13327300005,8,-1072,-3019,-3597,-241,937,737
868,7759.906194999985,8,-1074,-3043,-3622,-137,887,692
869,7768.731116999788,8,-1074,-3087,-3655,-290,844,648
870,7777.5310389997685,8,-1067,-3030,-3617,-471,847,569
871,7786.448959999689,8,-1045,-2934,-3622,-646,844,477
872,7795.28288199981,8,-960,-2833,-3590,-748,795,363
873,7804.117803999816,8,-861,-2764,-3523,-763,755,255
874,7813.0627249997815,8,-731,-2602,-3411,-700,720,147
875,7821.920645999853,8,-679,-2437,-3281,-646,693,95
876,7830.880566999895,8,-618,-2408,-3152,-678,662,76
877,7839.717488999668,8,-638,-2392,-3111,-829,589,35
878,7848.660409999866,8,-552,-2357,-3116,-1030,547,-5
879,7857.620329999918,8,-532,-2231,-3146,-1496,505,-37
880,7866.518250999889,8,-452,-2072,-3231,-1390,461,-32
881,7875.382172999707,8,-373,-1978,-3361,-1379,452,-13
882,7884.292094000102,8,-332,-1994,-3516,-1249,438,-34
883,7893.145015999835,8,-291,-2059,-3586,-806,427,-83
884,7901.9389380000575,8,-262,-2225,-3612,-923,440,-115
885,7910.956857999736,9,-258,-2288,-3696,-959,405,-187
886,7919.7977799999535,8,-302,-2283,-3916,-1078,380,-300
887,7928.763699999763,8,-358,-2092,-4075,-1211,418,-364
888,7937.595621999662,8,-437,-1954,-4121,-1340,753,-393
889,7946.513543000037,8,-427,-1734,-4213,-1356,623,-384
890,7955.996458999834,9,-438,-1781,-4232,-1242,725,-317
891,7965.2403770001,9,-407,-1328,-4426,-1085,821,-304
892,7974.4192959997235,9,-434,-1268,-4406,-904,867,-287
893,7983.603214999675,9,-388,-1255,-4410,-613,882,-255
894,7992.880132999744,9,-383,-1304,-4396,-422,867,-268
895,8002.102050999838,9,-317,-1291,-4309,-165,885,-290
896,8011.322969000048,9,-255,-1267,-4139,-41,885,-262
897,8020.550886999899,9,-249,-1275,-4019,2,871,-232
898,8029.745805999937,9,-253,-1322,-3901,-33,887,-215
899,8038.929724999889,9,-261,-1304,-3801,-114,853,-171
900,8048.234641999898,9,-263,-1527,-3818,-250,790,-122
901,8058.095554999909,9,-510,-1257,-3927,-351,753,-107
902,8067.0304759996725,8,-199,-1229,-3981,-378,691,-103
903,8075.913397000022,8,-141,-1039,-4299,-319,628,-105
904,8084.743318999699,8,-37,-1004,-4012,-238,612,-68
905,8093.6672399998315,8,3,-1045,-3932,-157,567,-16
906,8102.460161999716,8,37,-1068,-3900,-123,487,11
907,8111.399082999924,8,54,-1049,-3864,-149,391,24
908,8120.217005000086,8,81,-1098,-3888,-217,316,65
909,8129.056926999965,8,64,-1079,-3936,-282,268,85
910,8137.942847999966,8,125,-1005,-3985,-371,242,100
911,8146.772770000098,8,138,-878,-4003,-410,233,149
912,8155.650690999664,8,212,-777,-3985,-406,243,244
913,8164.535612999771,8,106,-680,-3986,-364,258,325
914,8173.28153499966,8,291,-680,-3889,-235,279,397
915,8182.074456999999,8,364,-717,-3797,-87,310,485
916,8190.8303800000795,8,403,-656,-3668,53,344,572
917,8199.561302999882,8,429,-697,-3533,150,337,665
918,8208.514222999838,8,456,-791,-3405,192,322,719
919,8217.271145999803,8,475,-871,-3318,184,304,770
920,8226.068067999677,8,498,-925,-3290,152,272,810
921,8234.98798899982,8,493,-1008,-3578,118,259,844
922,8243.804911000097,8,478,-1040,-3401,87,262,863
923,8252.572832999704,8,476,-1049,-3472,105,304,915
924,8276.09662499981,23,462,-1045,-3673,243,302,944
925,8285.19454499974,9,448,-1130,-3719,308,276,974
926,8294.361463999849,9,441,-1220,-3752,431,239,984
927,8303.446382999937,9,426,-1317,-3736,504,154,991
928,8312.511303000065,9,416,-1384,-3749,567,75,1027
929,8321.616222000102,9,386,-1406,-3784,626,-13,1050
930,8330.65414199973,9,409,-1506,-3791,680,-117,1056
931,8339.677061999737,9,480,-1612,-3894,1005,-216,1075
932,8348.799981999946,9,271,-1715,-4034,935,-341,1047
933,8357.933900999797,9,280,-1829,-4326,1165,-435,995
934,8366.972820999763,9,296,-2080,-4178,1443,-513,941
935,8376.006740999856,9,135,-2350,-4171,1793,-623,848
936,8385.100659999807,9,19,-2536,-4138,2092,-715,721
937,8394.253578999724,9,-10,-2712,-4028,2384,-800,565
938,8403.26049999976,9,-83,-2886,-3925,2660,-896,429
939,8412.331418999656,9,-209,-3017,-3915,2765,-995,305
940,8421.348339999895,9,-18,-3049,-3942,2764,-1063,208
941,8430.45125899971,9,-313,-3051,-3925,2650,-1115,157
942,8439.556177999748,9,-396,-3015,-3995,2569,-1154,110
943,8448.699096999917,9,-466,-3062,-4066,2568,-1118,117
944,8457.758016999833,9,-584,-3027,-4038,2616,-984,111
945,8466.765936999764,9,-633,-3079,-3997,2665,-813,85
946,8475.86285699981,9,-673,-3084,-3898,2703,-586,55
947,8484.90677699965,9,-712,-3142,-3705,2672,-356,-5
948,8493.901696999728,8,-665,-3279,-3453,2618,-127,-119
949,8502.946616999907,9,-562,-3271,-3160,2547,2,-242
950,8511.943537999741,8,-531,-3187,-2947,2459,74,-279
951,8520.998456999678,9,-502,-3028,-2736,2392,146,-296
952,8530.094376999841,9,-449,-2854,-2530,2325,199,-283
953,8539.060298000095,8,-423,-2719,-2394,2325,230,-254
954,8548.1672169999,9,-346,-2627,-2273,2344,288,-196
955,8557.234136999796,9,-398,-2541,-2085,2378,345,-148
956,8566.373055999975,9,-391,-2655,-1963,2376,408,-111
957,8575.421975999689,9,-394,-2935,-1781,2237,538,-56
958,8584.473895999963,9,-455,-3108,-1554,1950,641,-39
959,8593.63481499986,9,-516,-3271,-1420,1480,672,-17
960,8602.644735000013,9,-548,-3437,-1365,816,658,-30
961,8611.790653999833,9,-571,-3530,-1396,761,621,-96
962,8620.918572999926,9,-549,-3676,-1461,732,539,-176
963,8630.078491999939,9,-510,-3612,-1456,849,508,-266
964,8639.10241199983,9,-424,-3459,-1414,1083,481,-305
965,8648.169331999725,9,-348,-3385,-1385,1299,430,-319
966,8657.460249999986,9,-345,-3385,-1319,1499,374,-278
967,8667.299161999836,9,-278,-3414,-1231,1643,333,-207
968,8677.16107499973,9,-237,-3476,-1121,1766,317,-152
969,8687.203985999986,10,-174,-3504,-894,1791,302,-92
970,8703.049845999885,15,-218,-3670,-709,1704,52,18
971,8716.801723999652,13,-170,-3911,-758,1590,-429,-126
972,8746.361463000085,29,-125,-4122,-817,1474,-568,-216
973,8762.14032300004,15,-201,-4117,-775,1224,-698,-245
974,8772.174233999976,10,-213,-4018,-720,807,-724,-230
975,8782.02214699968,9,-253,-3863,-727,822,-751,-171
976,8793.027050000092,11,-325,-3812,-772,665,-777,-135
977,8802.900961999967,9,-324,-3772,-845,636,-795,-167
978,8815.140853999765,12,-388,-3747,-907,1006,-693,-222
979,8837.293657999908,22,-405,-3694,-700,1064,-621,-235
980,8849.389551000058,12,-355,-3638,-426,1062,-566,-238
981,8859.74645899978,10,-340,-3643,-228,980,-572,-187
982,8868.630380000013,8,-353,-3691,-87,876,-570,-185
983,8877.4563019997,8,-378,-3759,-2,757,-598,-225
984,8886.384222999823,8,-386,-3761,40,709,-677,-249
985,8895.201145000101,8,-391,-3803,73,691,-775,-268
986,8904.130065999652,8,-383,-3830,72,722,-883,-303
987,8912.977987999966,8,-367,-3866,48,781,-983,-294
988,8921.751909999784,8,-397,-3914,-252,824,-1085,-242
989,8930.703830999846,8,-399,-4035,-51,821,-1162,-154
990,8939.555752999695,8,-429,-4144,-23,519,-1212,-92
991,8948.584672999914,9,-402,-4281,13,637,-1247,-32
992,8957.412594999823,8,-386,-4403,102,479,-1302,15
993,8966.371514999992,8,-361,-4433,178,24,-1346,41
994,8975.266436999846,8,-309,-4403,215,80,-1404,35
995,8984.158358000059,8,-262,-4384,147,-93,-1476,46
996,8993.007278999812,8,-210,-4520,58,-137,-1550,23
