,time_ms,delta_ms,aX,aY,aZ,gX,gY,gZ
0,0.0,0,3360,-2436,2156,-228,712,398
1,10.84790000004432,10,3493,-2581,2143,-259,388,210
2,21.252804000141623,10,3722,-2567,2365,-154,250,18
3,30.81571599977906,9,3781,-2798,2556,-53,30,-86
4,40.02463100005116,9,3930,-2445,2704,20,-165,-206
5,49.5095430001129,9,4076,-2337,2804,26,-424,-248
6,58.734457999889855,9,4142,-2475,2917,-253,-635,-264
7,67.98537199983912,9,4157,-2322,2871,-35,-872,-331
8,77.195286999995,9,4327,-2259,2611,-96,-1089,-429
9,86.38120200021149,9,4343,-2202,2621,-108,-1536,-525
10,95.75511599996389,9,4338,-2176,2398,-107,-1491,-583
11,104.95403100003386,9,4525,-2178,2176,-59,-1634,-639
12,114.1829449998113,9,4302,-2271,2016,101,-1751,-674
13,123.36586099991109,9,4170,-2015,1596,112,-1922,-765
14,132.86877300015476,9,4169,-1944,1521,73,-2292,-887
15,141.77369099979842,8,4041,-1809,1198,-6,-2078,-967
16,150.62560900014432,8,4033,-1744,952,-145,-2074,-1014
17,159.5205270000406,8,3746,-1871,639,-162,-2124,-988
18,168.37544500003787,8,3614,-1636,396,-196,-2197,-1033
19,177.17436300017653,8,3733,-1660,107,-172,-2184,-1094
20,185.9312830001727,8,3612,-1672,-391,-113,-2070,-1185
21,194.88219999993817,8,3515,-1545,-242,-78,-1960,-1298
22,203.53411999985838,8,3255,-1650,-361,-73,-1888,-1424
23,212.23203999988982,8,3315,-1307,-305,-61,-1835,-1527
24,220.9979590002149,8,3165,-1064,-192,-123,-1843,-1582
25,229.96587599982377,8,3131,-911,-412,-310,-1858,-1649
26,238.79679399988163,8,3059,-770,-156,-611,-1919,-1719
27,247.687711999788,8,2956,-636,-551,-586,-2078,-1695
28,256.6146290000688,8,2805,-533,-956,-654,-2160,-1612
29,265.5245470000409,8,2718,-375,-1180,-535,-2136,-1496
30,274.45246500019493,8,2979,48,-1284,-1016,-1967,-1520
31,283.3853819997785,8,2801,-84,-1208,-149,-1908,-1474
32,292.2803000001295,8,2944,-401,-1139,-215,-1966,-1455
33,301.3372159998653,9,2571,306,-1381,-85,-1916,-1338
34,310.2401340001961,8,2654,230,-1571,-178,-1940,-1300
35,319.1590520000318,8,2779,1296,-2211,-841,-1910,-1361
36,328.1019689998175,8,2625,88,-1380,-425,-1690,-1198
37,337.01188699978957,8,2495,296,-1640,-115,-1772,-1058
38,345.75480600005903,8,2538,358,-1755,38,-1945,-950
39,354.5397249999951,8,2643,455,-1964,157,-1883,-926
40,363.46264199983125,8,2588,662,-2145,64,-1846,-909
41,372.33856000011656,8,2730,703,-2158,64,-1762,-785
42,381.2344779998966,8,2878,992,-2443,218,-1707,-636
43,390.11439600017184,8,3022,1029,-2689,178,-1681,-500
44,399.0573129999575,8,3173,1075,-2904,161,-1584,-396
45,407.9022320001968,8,3245,966,-3241,162,-1464,-313
46,416.74114999977974,8,3332,888,-3504,297,-1275,-302
47,425.6550680001965,8,3414,866,-3725,501,-1022,-270
48,434.4629860001987,8,3538,837,-3891,725,-667,-205
49,443.397903999994,8,3668,967,-4144,859,-363,-98
50,452.18182200005685,8,3749,1079,-4292,880,-39,4
51,461.01374099998793,8,4004,1033,-4305,831,292,67
52,469.8186599998735,8,4079,1008,-4403,791,645,118
53,478.58557900008236,8,4150,921,-4324,778,904,164
54,487.3754969999027,8,4179,981,-4266,512,1146,282
55,496.11441700017167,8,4041,922,-4187,670,1372,391
56,504.937334999795,8,4001,822,-4201,529,1631,493
57,513.7082539999938,8,3832,654,-4221,358,1957,591
58,522.4491730000409,8,3779,375,-3977,232,2263,651
59,531.2820919998558,8,3572,296,-3813,73,2596,664
60,540.0630099998125,8,3307,221,-3694,217,2770,711
61,548.8179300000411,8,3330,267,-3334,225,2984,815
62,557.7408469998772,8,3179,438,-3020,269,3253,970
63,566.466766999838,8,3028,377,-2789,231,3359,1178
64,575.2886850000323,8,2886,166,-2497,149,3526,1294
65,584.1446029999133,8,2803,148,-2155,14,3778,1372
66,592.9655220002132,8,2563,-118,-1592,-243,3792,1423
67,601.965439000196,8,2429,-389,-1322,-368,3696,1469
68,610.8223569999609,8,2345,-579,-1131,-364,3650,1475
69,619.7842739998123,8,2408,-723,-694,-303,3685,1462
70,628.6411920000319,8,2536,-848,-188,-12,3894,1450
71,637.422110999978,8,2339,-626,65,308,4043,1200
72,646.2470289998237,8,2336,-865,575,376,3931,1071
73,655.0149479999163,8,2309,-837,1037,330,3778,888
74,664.1838639998241,9,2328,-863,1337,236,3524,745
75,673.1257810001807,8,2355,-852,1873,119,3219,661
76,682.0366990000366,8,2426,-785,2234,78,2627,636
77,690.9396159999233,8,2575,-725,2485,94,2418,706
78,699.9035339999864,8,2589,-720,2667,132,2022,1018
79,708.7424520000241,8,2604,-775,2630,99,1596,775
80,717.5573710001117,8,2610,-815,2399,-32,1242,792
81,726.4172889999827,8,2586,-808,2109,-272,973,806
82,735.2432070001669,8,2590,-724,1917,-432,807,818
83,744.1951249998056,8,2584,-741,1846,-463,728,903
84,752.9800440001964,8,2753,-806,1949,-443,648,990
85,761.9319609998456,8,2945,-1081,2004,-414,568,1113
86,770.63188000011,8,3149,-1361,2189,-478,406,1173
87,780.2757909998945,9,3341,-1600,2463,-564,234,1109
88,789.4707059999746,9,3475,-1969,2588,-628,-67,977
89,798.3576239998911,8,3608,-2190,2706,-629,-297,711
90,807.1915430000445,8,3724,-2443,2764,-658,-485,544
91,815.949461999935,8,3873,-2651,2780,-663,-671,382
92,824.8053799998161,8,3977,-3067,2743,-641,-903,218
93,833.5462989998632,8,4092,-2941,2698,-591,-1098,1
94,842.9132129999743,9,4218,-2973,2696,-521,-1536,-167
95,852.3011259999294,9,4307,-2992,2744,-454,-1519,-359
96,861.608040000192,9,4099,-3048,2869,-380,-1710,-539
97,870.8639550000044,9,4303,-2960,2791,-396,-2015,-701
98,880.185868999888,9,4279,-2725,2394,-406,-2217,-764
99,889.3647840000085,9,4292,-2660,2118,-387,-2315,-848
100,898.5536989998764,9,4230,-2396,1937,-324,-2320,-996
101,907.9126130000077,9,4412,-2384,1917,-265,-2350,-1059
102,917.0525280001129,9,4089,-2268,1876,-300,-2527,-1197
103,926.3284429998748,9,4035,-2291,1594,-421,-3036,-1276
104,935.4053590000149,9,3809,-2001,1085,-552,-3076,-1356
105,945.1232689998506,9,3330,-1853,512,-680,-3209,-1439
106,954.066186000091,8,3458,-1699,63,-713,-3194,-1512
107,962.9341039999417,8,3374,-1441,-497,-697,-3001,-1589
108,971.8510220000098,8,3351,-1320,-490,-704,-2773,-1648
109,980.7089400001132,8,3233,-1081,-521,-689,-2560,-1675
110,989.5538589998978,8,3147,-910,-481,-866,-2421,-1716
111,998.4887760001584,8,3047,-557,-426,-1014,-2426,-1698
112,1007.411693999984,8,2879,-194,-449,-1490,-2557,-1547
113,1016.2496120001379,8,2737,-115,-555,-1427,-2758,-1380
114,1025.1295299999583,8,2486,-198,-884,-1493,-2997,-1263
115,1034.0654480000921,8,2272,-440,-1167,-1383,-3179,-1533
116,1043.0083649998778,8,2180,-511,-1606,-1182,-3146,-1465
117,1051.9642819999717,8,2132,-61,-1989,-803,-3015,-1618
118,1060.8452000001307,8,2168,127,-2325,-603,-2675,-1678
119,1069.784117999916,8,2281,625,-2569,-441,-2302,-1642
120,1078.6390359999132,8,2451,1006,-2537,-325,-1933,-1522
121,1087.6179530000627,8,2595,1184,-2332,-188,-1653,-1370
122,1096.475871000166,8,2693,978,-2149,-51,-1550,-1119
123,1105.3367889999208,8,2614,784,-2156,90,-1662,-808
124,1114.2957070001103,8,2341,698,-2379,294,-1728,-651
125,1123.1186250001883,8,2429,421,-2443,425,-1732,-568
126,1131.9995429998926,8,2470,331,-2617,465,-1720,-544
127,1140.8734609999556,8,2426,367,-2883,415,-1713,-480
128,1149.734379000165,8,2545,477,-3441,338,-1684,-430
129,1158.598297000026,8,2641,630,-3829,305,-1529,-365
130,1167.355217000022,8,2788,739,-4052,371,-1196,-318
131,1176.1371349998626,8,2875,710,-4194,525,-929,-275
132,1184.9660540001423,8,3019,689,-4329,678,-700,-202
133,1193.7589730000582,8,3063,717,-4594,1014,-511,-187
134,1202.7288899998894,8,3206,761,-4732,793,-35,-147
135,1211.5398079999977,8,3280,760,-4993,775,2,-74
136,1220.2377280000292,8,3370,688,-5366,740,287,23
137,1229.0206470001976,8,3402,594,-5196,731,617,83
138,1237.7845659998457,8,3399,274,-5211,707,1212,111
139,1246.5954849999434,8,3510,480,-5095,667,1306,150
140,1255.2894039999956,8,3453,432,-4618,673,1700,190
141,1264.4133200001306,9,3405,508,-4532,674,1954,240
142,1273.3472380000421,8,3363,265,-4267,648,2169,331
143,1282.167156000014,8,3247,509,-4024,566,2352,458
144,1291.0120739998092,8,3189,226,-3836,439,2521,563
145,1299.9229920001198,8,3128,211,-3458,18,2665,661
146,1308.8099100000363,8,2966,217,-3091,78,2753,714
147,1317.7018279998265,8,2917,100,-2703,-30,2835,724
148,1326.5427460000865,8,2973,-174,-2063,-72,2924,727
149,1335.3846650002197,8,2918,-233,-2141,-57,2928,727
150,1344.3305820001115,8,2824,-78,-1980,-58,2948,746
151,1353.1655000001592,8,2849,4,-1772,-82,3010,810
152,1362.0834180001111,8,2816,59,-1458,-70,2988,884
153,1370.9883360002095,8,2802,-98,-1035,253,2924,1004
154,1379.9172529998032,8,2745,-142,-758,44,2569,1076
155,1388.753172000179,8,2745,-136,-491,54,2626,1136
156,1397.6570899999388,8,2931,-435,242,200,2618,1286
157,1406.50900799983,8,2872,-115,7,376,2629,1388
158,1415.3329259997918,8,2796,-285,-2,380,2400,1372
159,1424.248843999976,8,2713,-436,25,291,2308,1326
160,1433.115761999943,8,2776,-409,-252,135,2235,1290
161,1442.029679999905,8,2680,-234,-51,-68,2147,1317
162,1450.8355980001397,8,2686,-352,111,-98,2178,1293
163,1459.7505159999855,8,2716,-608,310,66,2208,1275
164,1468.4984350001287,8,2732,-806,496,234,2148,1237
165,1477.2863540001708,8,2755,-914,467,354,2005,1269
166,1486.0942730001625,8,2776,-965,546,401,1873,1325
167,1494.7551929999463,8,2851,-1150,734,398,1740,1317
168,1503.7951089998387,9,2974,-1364,980,371,1633,1276
169,1512.667027000134,8,3093,-1587,1207,388,1560,1173
170,1521.4009470000747,8,3173,-1588,1538,297,1479,1044
171,1530.1868659998945,8,3394,-1899,1718,183,1348,936
172,1539.0017839999928,8,3511,-2073,1887,17,1201,839
173,1547.8057029999945,8,3574,-2262,2295,-85,996,742
174,1556.6116209997745,8,3665,-2431,2215,-98,820,626
175,1565.4565400000138,8,3731,-2654,2386,-87,642,510
176,1574.2744580002181,8,3995,-2846,2698,-11,446,362
177,1583.0453769999622,8,4050,-2797,2917,30,145,224
178,1591.9282949998887,8,4188,-2751,3142,8,-101,98
179,1600.7862139999816,8,4280,-2730,3190,-45,-410,48
180,1609.7731310001109,8,4271,-2667,2988,-123,-990,26
181,1618.5660490000373,8,4294,-2659,2745,-203,-1018,-32
182,1627.402967999842,8,4232,-2787,2484,-233,-1176,-462
183,1636.196886000107,8,4379,-3141,2331,-218,-1294,-441
184,1645.9737959999075,9,4185,-2834,2550,-189,-1430,-659
185,1655.2477109999018,9,3853,-2673,2225,-278,-1708,-1021
186,1665.3326169998763,10,4034,-2464,1912,-425,-2103,-904
187,1677.8665020001426,12,3634,-2464,1453,-754,-2316,-1023
188,1687.07141699997,9,3741,-2448,1104,-564,-2450,-1195
189,1696.281332000126,9,3664,-2298,820,-558,-2506,-1405
190,1705.5052460000297,9,3535,-2123,714,-535,-2529,-1537
191,1714.690161999897,9,3468,-1949,690,-577,-2586,-1638
192,1723.9190760001293,9,3289,-1691,678,-637,-2718,-1659
193,1732.9619930001172,9,3001,-1398,409,-802,-2998,-1582
194,1742.8769009998177,9,2566,-1262,147,-932,-3197,-1568
195,1751.6778200001681,8,2611,-1063,-209,-1006,-3300,-1656
196,1760.570737999842,8,2712,-1230,-270,-963,-3307,-1799
197,1769.3496570000207,8,2635,-810,-444,-1035,-3276,-1861
198,1778.136576000179,8,2383,-342,-563,-1189,-3328,-1793
199,1787.0444939999288,8,2271,12,-694,-1380,-3436,-1704
200,1795.8344130001933,8,2244,269,-920,-1768,-3528,-1523
201,1804.6363309999833,8,2082,534,-1484,-1955,-3742,-1046
202,1813.536249000208,8,2025,629,-1618,-2088,-3894,-1047
203,1822.3121679998258,8,1860,452,-2202,-1804,-3941,-908
204,1831.22808600001,8,1912,235,-2576,-1740,-3598,-904
205,1840.0740040001438,8,2048,102,-2735,-1509,-3525,-978
206,1848.9769220000198,8,2083,104,-2868,-1285,-3249,-1055
207,1857.9488390000733,8,2137,325,-3193,-1113,-3060,-1045
208,1866.7557580001812,8,2094,736,-3539,-954,-2873,-981
209,1875.7036749998406,8,2195,681,-3915,-779,-2525,-963
210,1884.5655929999339,8,2267,848,-4126,-500,-2138,-1007
211,1893.5045110001738,8,2447,1071,-3994,-189,-1707,-1034
212,1902.4214289997872,8,2535,939,-4129,138,-1353,-957
213,1911.4073460000327,8,2453,839,-4350,258,-1091,-857
214,1920.2492640001765,8,2500,964,-4254,300,-917,-785
215,1929.196180999952,8,2457,1192,-4411,253,-825,-671
216,1938.0231000000094,8,2569,1296,-4571,170,-734,-277
217,1947.0100170001388,8,2538,1436,-5113,211,-521,-424
218,1955.83393600009,8,2598,1573,-5158,353,-228,-283
219,1964.6678539997993,8,2685,1615,-5402,510,68,-135
220,1973.5977720001756,8,2673,1629,-5487,613,465,14
221,1982.4046899998393,8,2707,1363,-5602,649,804,115
222,1991.3316080001096,8,2643,1106,-5574,653,1131,184
223,2000.2175260001422,8,2681,1113,-5359,708,1443,219
224,2009.1974430001756,8,2777,1106,-5056,729,1806,271
225,2018.0353609998747,8,2772,1033,-4787,728,2026,369
226,2026.9242790000135,8,2562,976,-4504,701,2211,526
227,2035.7251979999091,8,2572,994,-4163,594,2402,666
228,2044.6041159998458,8,2729,739,-4036,518,2797,785
229,2053.4510339998633,8,2729,545,-3762,493,2746,853
230,2062.2449530001177,8,2622,618,-3591,526,2835,943
231,2071.014871999978,8,2458,589,-3471,567,2904,988
232,2079.878789999839,8,2377,550,-3193,647,3291,1003
233,2088.6567090001336,8,2472,480,-2750,659,3218,1032
234,2097.40962900014,8,2540,366,-2414,616,3292,1073
235,2106.173547999788,8,2483,172,-2119,543,3294,1087
236,2115.0454660000833,8,2478,44,-1934,430,3279,1087
237,2123.8453840001057,8,2452,-102,-1932,270,3269,1081
238,2132.7213029999257,8,2561,-217,-1574,174,3327,1063
239,2141.5382209997915,8,2682,-407,-1433,121,3465,993
240,2150.3771399998186,8,2704,-626,-1073,140,3539,998
241,2159.28805700014,8,2808,-659,-727,162,3490,990
242,2168.072976000076,8,2774,-746,-493,214,3355,975
243,2177.0448930001294,8,2778,-623,-251,301,3254,923
244,2185.8658119999745,8,3056,-600,-86,357,3159,922
245,2194.7907300000224,8,2897,-582,-1,423,3109,971
246,2203.626647999954,8,2885,-500,318,452,3023,985
247,2212.625565000053,8,2862,-596,763,444,2913,974
248,2221.421484000075,8,2886,-803,999,423,2723,969
249,2230.344400999911,8,2926,-810,1254,297,2508,941
250,2239.169320000201,8,2939,-904,1387,184,2179,915
251,2247.8882390000763,8,3005,-1054,1549,97,1950,912
252,2256.732157999977,8,3311,-1211,1632,50,1753,885
253,2265.628076000212,8,3228,-1378,1729,60,1312,860
254,2274.561993000134,8,3278,-1468,2031,122,1371,824
255,2283.450910999818,8,3380,-1551,1864,187,1229,780
256,2292.1768309997788,8,3461,-1647,1964,257,1095,724
257,2300.938750000114,8,3542,-1693,2095,326,962,665
258,2309.905666999839,8,3654,-1865,2215,371,823,593
259,2318.746585000099,8,3734,-2028,2367,327,620,506
260,2327.654502999849,8,3753,-2176,2557,16,419,354
261,2336.4544219998606,8,3822,-2266,2656,158,170,243
262,2345.360339999843,8,3875,-2323,2725,92,-68,130
263,2354.2312579997997,8,3951,-2342,2729,45,-398,29
264,2363.06417600008,8,4031,-2279,2771,30,-651,-54
265,2371.945093999784,8,4063,-2218,2653,19,-934,-104
266,2380.723013000079,8,4080,-2195,2547,3,-1172,-166
267,2389.54693200003,8,4101,-2259,2476,-5,-1430,-295
268,2398.3988499999214,8,4241,-2414,2435,-6,-1646,-456
269,2407.1947689999433,8,3850,-2163,2417,-25,-1860,-592
270,2416.0796870000922,8,4012,-2313,2242,-66,-2134,-700
271,2424.9346050000895,8,3963,-2280,1795,-70,-2491,-871
272,2433.721523999793,8,3803,-2156,1991,-123,-2728,-1085
273,2442.574442000023,8,3653,-1989,1771,-213,-2938,-1243
274,2452.004355000099,9,3569,-1848,1356,-361,-3218,-1400
275,2461.65126599999,9,3414,-1736,1209,-560,-3506,-1503
276,2471.8761720000657,10,3228,-1347,794,-724,-3671,-1567
277,2481.517083000199,9,2959,-1233,436,-835,-3838,-1613
278,2490.779997000118,9,2914,-1090,90,-963,-3896,-1647
279,2500.0249119998443,9,2635,-749,-299,-1146,-3970,-1641
280,2509.3518260000565,9,2431,-551,-843,-1306,-3996,-1622
281,2518.57973999995,9,2235,-391,-1287,-1432,-4011,-1585
282,2527.7876549998837,9,2210,-145,-1694,-1442,-3910,-1516
283,2537.013569999999,9,2181,-93,-1941,-1321,-3738,-1502
284,2546.1004859998866,9,2264,-97,-1901,-1130,-3493,-1547
285,2555.7393969997975,9,2310,-6,-1855,-953,-3355,-1598
286,2564.5003169997835,8,2353,91,-1957,-798,-3273,-1639
287,2573.4552339999937,8,2460,300,-2050,-709,-3214,-1628
288,2582.1821529998488,8,2559,454,-2171,-649,-3135,-1564
289,2590.9530720000475,8,2535,457,-2518,-582,-3076,-1472
290,2599.847989999944,8,2577,573,-2900,-448,-2971,-1332
291,2608.6269090001224,8,2440,603,-3264,-393,-2798,-1191
292,2617.431828000008,8,2349,763,-3588,-354,-2515,-1102
293,2626.209746999848,8,2060,919,-3858,-319,-2266,-1019
294,2634.9486660001276,8,2051,1154,-4061,-3,-2019,-976
295,2643.8235840000743,8,2243,1235,-4269,-168,-1762,-898
296,2652.660502999879,8,2257,1282,-4458,-66,-1418,-792
297,2662.1494149999307,9,2215,1291,-4719,58,-1143,-704
298,2671.0413330001757,8,2176,1387,-4873,177,-884,-616
299,2679.9372509999557,8,2117,1527,-5006,265,-580,-536
300,2688.835168999958,8,2146,1657,-5156,369,-319,-414
301,2697.7360870000666,8,2151,1805,-5225,740,-53,-258
302,2706.583005000084,8,2197,1911,-5345,608,274,-53
303,2715.622921999966,9,2276,1888,-5124,647,546,153
304,2724.499840000135,8,2339,1816,-5379,686,786,392
305,2733.4257570000773,8,2292,1686,-5476,659,1255,510
306,2742.2746759998518,8,2278,1387,-5469,571,1192,611
307,2751.074593999874,8,2186,1139,-5428,529,1481,681
308,2759.9575119998008,8,2163,1120,-5452,543,1772,723
309,2768.758431000151,8,2232,1180,-5301,602,2128,790
310,2777.6493490000576,8,2282,1263,-4958,782,2774,881
311,2786.4992680001706,8,2323,1194,-4504,922,2902,984
312,2795.3231860001324,8,2353,1139,-3973,1004,3134,1148
313,2804.2591039998115,8,2341,1062,-3554,1055,3282,1274
314,2813.119022000137,8,2352,999,-3244,1039,3357,1362
315,2822.00494000017,8,2336,823,-2948,958,3381,1439
316,2830.818858999919,8,2320,678,-2332,883,3389,1585
317,2839.702777000184,8,2066,509,-2533,684,3375,1712
318,2848.577695000131,8,2385,179,-2068,688,3455,1783
319,2857.3646139998345,8,2377,47,-1964,849,3639,1750
320,2866.1425330001293,8,2366,-290,-1742,966,3716,1675
321,2874.9504510001316,8,2448,-433,-1307,1042,3861,1489
322,2883.685370999956,8,2495,-734,-981,1087,3932,1411
323,2892.4682900001244,8,2443,-786,-575,1029,3813,1388
324,2901.3422080001874,8,2613,-987,-148,965,3566,1325
325,2910.097126999972,8,2766,-1069,474,977,3360,1255
326,2918.8610460000746,8,2857,-1016,564,975,3136,1185
327,2927.7059639998697,8,2960,-945,681,949,2883,1180
328,2936.421884000083,8,2937,-907,768,774,2673,1203
329,2945.2128029997766,8,2947,-1024,846,570,2501,1247
330,2954.044721000173,8,2900,-1084,931,403,2366,1261
331,2962.89164000018,8,2895,-1254,1067,233,2236,1212
332,2971.658558999934,8,2977,-1427,1225,97,1811,1102
333,2980.4784779998954,8,3020,-1617,1371,65,1906,1014
334,2989.263395999842,8,3060,-1667,1400,44,1651,978
335,2998.028315999818,8,3162,-1651,1446,43,1429,954
336,3006.8052349997743,8,3274,-1604,1419,54,1266,900
337,3015.7781520001663,8,3341,-1595,1457,66,1137,847
338,3024.609070000224,8,3412,-1644,1598,75,968,758
339,3033.4899879999284,8,3454,-1757,1779,60,805,669
340,3042.312906999996,8,3837,-1905,1899,29,670,639
341,3051.200824999796,8,3557,-2251,2017,-116,283,611
342,3060.0977429999148,8,3747,-2274,2126,-203,328,564
343,3068.98166100018,8,3811,-2316,2170,-253,148,478
344,3077.7985790000457,8,3895,-2436,2244,-229,-9,408
345,3086.581498000214,8,3948,-2632,2394,-108,-462,318
346,3095.503416000156,8,3938,-2882,2586,5,-458,196
347,3104.3863340000826,8,4015,-3032,3050,77,-694,27
348,3113.234251999984,8,3970,-3159,2976,124,-1060,-108
349,3122.110170999804,8,3922,-3292,2956,82,-1728,-312
350,3130.9770890002255,8,3869,-3134,2835,46,-1958,-540
351,3139.917005999905,8,3832,-3327,2679,-19,-2302,-804
352,3148.762925000028,8,3731,-3311,2289,-120,-2659,-1028
353,3157.715842000016,8,3597,-3166,1961,-249,-2963,-1256
354,3166.522761000124,8,3496,-2888,1656,-347,-3271,-1458
355,3175.392679000197,8,3314,-2689,1191,-441,-3523,-1672
356,3184.3095969998103,8,3152,-2466,552,-537,-3721,-1761
357,3193.159514999934,8,2980,-2192,12,-572,-4092,-1819
358,3202.035433000219,8,2879,-1906,-720,-586,-3856,-1857
359,3210.8633520001604,8,2797,-1615,-1187,-575,-3750,-1882
360,3219.7942689999763,8,2718,-1244,-1332,-612,-3575,-1874
361,3228.591187999882,8,2680,-849,-1493,-850,-3375,-1818
362,3237.336106999919,8,2589,-289,-1506,-1115,-3216,-1735
363,3246.139026000037,8,2528,-246,-1508,-1454,-3136,-1674
364,3254.7159470000224,8,2361,-134,-1832,-2003,-3190,-1643
365,3264.3538580000495,9,2285,-93,-2077,-1894,-3199,-1612
366,3273.6567719998675,9,2358,8,-2131,-1770,-3059,-1523
367,3282.8916869998466,9,2442,72,-2127,-1506,-2933,-1453
368,3292.2795999998016,9,2425,271,-2121,-1247,-2848,-1327
369,3301.538515000175,9,2339,306,-2240,-1014,-2861,-1205
370,3310.8274289998008,9,2377,212,-2449,-1015,-2888,-1045
371,3320.1113430000078,9,2362,272,-2824,-1104,-2857,-1016
372,3329.282259000138,9,2472,349,-3057,-1145,-2692,-1007
373,3338.7221719999616,9,2486,536,-3325,-1106,-2494,-967
374,3347.8890870001123,9,2517,556,-3519,-994,-2270,-893
375,3357.383999999911,9,2522,655,-3839,-851,-1983,-880
376,3366.564914999799,9,2378,709,-4054,-680,-1762,-883
377,3375.373834000129,8,2554,817,-4134,-562,-1464,-850
378,3384.2987510001876,8,2600,945,-4224,-437,-1241,-781
379,3393.096669999977,8,2717,1063,-4313,-317,-1022,-686
380,3401.9415879997723,8,2864,1508,-4411,-188,-544,-587
381,3410.770507000052,8,2972,1399,-4480,-98,-596,-456
382,3419.5994249998876,8,3008,1442,-4626,-37,-361,-10
383,3428.4933429999,8,3001,1616,-4947,15,-143,-31
384,3437.2662619998664,8,3024,1651,-5159,70,117,102
385,3446.063180999772,8,3030,1624,-5258,215,765,264
386,3454.9181000002136,8,2945,1488,-5292,382,1024,457
387,3463.7210179998874,8,2848,1335,-5109,570,1400,686
388,3472.6849359999505,8,2743,1156,-4978,739,1736,827
389,3481.4978539998265,8,2661,964,-4707,855,2270,912
390,3490.358772000036,8,2589,809,-4160,899,2285,961
391,3499.201691000053,8,2619,754,-4035,948,2443,1065
392,3508.0386089998683,8,2641,882,-3530,964,2555,1169
393,3516.9525269998303,8,2679,819,-3273,1051,2604,1290
394,3525.8764449999944,8,2679,817,-3096,1060,2675,1462
395,3534.7723629997745,8,2858,633,-3093,1077,2693,1724
396,3543.6502809998274,8,2525,382,-2907,1016,2801,1794
397,3552.4611989999357,8,2393,-1,-2665,930,3316,1768
398,3561.3951169998472,8,2761,-270,-2441,1016,3195,1678
399,3570.1900359999854,8,2092,-508,-2062,1006,3289,1504
400,3579.040953999993,8,2530,-929,-1843,978,3474,1373
401,3587.921872000152,8,2511,-824,-1345,889,3528,1242
402,3596.749791000093,8,2636,-972,-974,764,3343,1108
403,3605.6297089999134,8,2804,-924,-615,618,3196,1081
404,3614.464626999961,8,2910,-759,-543,463,3067,1105
405,3623.4365440000147,8,2945,-656,-542,312,2963,1123
406,3632.264462999956,8,2920,-761,-263,250,2924,1125
407,3641.2793800000145,9,2936,-1122,-374,198,2864,1095
408,3650.0762989999203,8,2742,-1128,-278,202,2705,975
409,3658.900216999882,8,2809,-1245,-245,190,2534,907
410,3668.0111330001637,9,2983,-1205,-85,114,2453,923
411,3676.7900519998875,8,2940,-1295,45,55,2383,984
412,3685.693970000102,8,2850,-1122,676,-215,2344,1067
413,3694.493889000114,8,3051,-1079,556,-27,2175,1107
414,3703.335806999803,8,3145,-1452,801,-32,2017,1103
415,3712.1227259999614,8,3360,-1458,1310,16,1854,1007
416,3720.926644999963,8,3263,-1664,1375,36,1573,872
417,3729.8315630000616,8,3390,-1748,1382,101,1051,796
418,3738.5884820000683,8,3430,-1584,1340,75,1140,696
419,3747.3364010002115,8,3504,-1667,1731,27,1073,671
420,3756.167319999804,8,3565,-1848,1702,43,985,604
421,3764.926239000033,8,3533,-1981,1965,59,844,493
422,3773.678158000166,8,3659,-2252,2085,69,694,368
423,3782.392078000157,8,3780,-2371,2336,75,509,0
424,3791.3189959999727,8,3836,-2488,2582,32,161,134
425,3800.179914000182,8,3893,-2522,2653,-27,-164,-5
426,3809.12883100018,8,3899,-2563,2538,-59,-550,-90
427,3817.9777499999545,8,3906,-2572,2412,-54,-890,-193
428,3826.9326670001647,8,4142,-2885,2270,-14,-1277,-289
429,3835.7515859997875,8,3762,-2669,2064,41,-1546,-484
430,3844.6885029998157,8,3806,-2648,1815,83,-1804,-610
431,3853.5144219999893,8,3746,-2548,1569,60,-2295,-999
432,3862.3803400000725,8,3641,-2479,1041,-30,-2270,-865
433,3871.3652569999795,8,3593,-2418,855,-115,-2391,-1009
434,3880.228175999946,8,3682,-2403,743,-191,-2496,-1111
435,3889.2100930002016,8,3554,-2276,480,-249,-2614,-1239
436,3898.032010999941,8,3505,-2161,181,-306,-2711,-1331
437,3906.9369290000395,8,3423,-2001,-137,-341,-2789,-1449
438,3915.7768479999504,8,3301,-1854,-395,-401,-2850,-1523
439,3924.704765000115,8,3223,-1669,-695,-459,-2864,-1597
440,3933.5426839998036,8,3191,-1360,-941,-486,-2803,-1634
441,3942.425602000185,8,3139,-1104,-1223,-537,-2728,-1609
442,3951.343520000137,8,3012,-1001,-1380,-654,-2652,-1606
443,3960.2824369999325,8,3045,-933,-1404,-716,-2514,-1616
444,3969.1703550001876,8,3038,-795,-1534,-781,-2469,-1615
445,3978.016273999856,8,2983,-655,-1410,-846,-2458,-1648
446,3986.8031930000143,8,2940,-479,-1496,-887,-2422,-1691
447,3995.689111000047,8,2784,-265,-1574,-873,-2434,-1669
448,4004.4580300000234,8,2794,-334,-1701,-871,-2468,-1640
449,4013.421947000097,8,2744,-261,-1851,-795,-2456,-1669
450,4022.2488660001545,8,2646,242,-2014,-719,-2441,-1689
451,4031.167783000001,8,2598,116,-2256,-651,-2376,-1697
452,4039.955702000043,8,2626,311,-2357,-682,-2221,-1619
453,4048.717621999913,8,2529,507,-2555,-714,-2136,-1465
454,4058.2285340001363,9,2556,977,-2732,-638,-2021,-1415
455,4067.4604490000092,9,2692,617,-2876,-268,-1871,-1342
456,4076.748363000206,9,2715,590,-2908,-331,-1716,-1243
457,4086.0032780001347,9,2763,582,-2918,-223,-1535,-1156
458,4095.290191999993,9,2819,617,-3033,-164,-1432,-1100
459,4104.5741060002,9,2903,712,-3516,-184,-1313,-982
460,4113.826021000023,9,2948,950,-3657,-217,-1177,-885
461,4123.142935000033,9,3014,1079,-4066,-154,-907,-527
462,4132.319849999931,9,3103,1108,-3813,-49,-684,-656
463,4141.599765000137,9,3112,1073,-3900,83,-442,-270
464,4150.85167899997,9,3098,1070,-4016,136,-27,-367
465,4160.713588999897,9,3122,1150,-4165,161,-79,-244
466,4169.571507000001,8,3178,1237,-4226,180,89,-102
467,4178.484425000079,8,3244,1312,-4231,218,318,-15
468,4187.313342999914,8,3192,1386,-4286,268,522,64
469,4196.202261000053,8,3206,1415,-4308,291,805,473
470,4205.023179999898,8,3162,1437,-4212,317,1026,405
471,4213.841098000103,8,3153,1352,-3967,329,1228,612
472,4222.856015000161,9,3095,1105,-3772,367,1422,746
473,4231.682934000219,8,3034,924,-3520,433,1608,806
474,4240.677850999873,8,2987,653,-3249,464,1738,842
475,4249.482770000213,8,2990,346,-2942,504,1779,818
476,4258.399686999837,8,3024,144,-2778,438,1775,781
477,4267.210605999935,8,3065,202,-2614,356,1773,797
478,4276.015524999821,8,3105,394,-2391,261,1807,840
479,4284.759443999974,8,3063,335,-2376,186,1839,937
480,4293.592362999789,8,3114,393,-2492,122,1910,1060
481,4302.350282000134,8,3036,395,-2575,81,2056,1195
482,4311.297199999899,8,3001,219,-2568,105,2271,1253
483,4320.054118999906,8,2882,200,-2505,205,2467,1347
484,4328.879037000206,8,2901,162,-2291,351,2636,1418
485,4337.718956000117,8,2770,-231,-2181,536,2771,1356
486,4346.4808749999975,8,2726,-344,-2028,609,2919,1334
487,4355.302794000181,8,2691,-292,-1747,655,3023,1353
488,4364.149712000199,8,2659,-280,-1439,648,3025,1294
489,4372.80063199978,8,2755,-477,-1188,594,3047,1216
490,4381.6135510001,8,2805,-536,-844,580,3093,1134
491,4390.473468999971,8,2821,-570,-537,609,2821,1070
492,4399.23638800019,8,2847,-557,-419,553,2926,1059
493,4408.04230699996,8,2868,-556,-375,471,2820,1066
494,4416.7752270000165,8,2943,-661,-222,456,2774,1051
495,4425.801143000172,9,3083,-806,153,504,2744,1051
496,4434.602062000067,8,3135,-907,646,581,2604,1042
497,4443.5039800000595,8,3203,-900,1121,569,2396,1036
498,4452.362898000047,8,3192,-1050,1279,464,2130,1022
499,4461.264816000039,8,3343,-1220,1470,304,1856,971
500,4470.093734999864,8,3501,-1444,1710,178,1570,890
501,4478.972652999801,8,3584,-1531,1849,69,1299,781
502,4487.751571999979,8,3643,-1633,1843,-21,1041,691
503,4496.625490000042,8,3773,-2004,1868,-87,841,586
504,4505.489407999903,8,3883,-1960,2247,-108,592,489
505,4514.2723270000715,8,3964,-2024,2154,-137,373,399
506,4523.151245000008,8,4103,-2094,2276,-153,146,357
507,4532.051162999778,8,4153,-2172,2328,-194,-103,288
508,4540.970081000069,8,4193,-2316,2392,-242,-423,189
509,4549.845998999899,8,4235,-2349,2351,-298,-666,26
510,4558.664917999977,8,4244,-2512,2288,-326,-914,-108
511,4567.558835999989,8,4295,-2396,2334,-354,-1139,-246
512,4576.381754000067,8,4278,-2373,2294,-395,-1385,-412
513,4585.206672999902,8,4247,-2322,2286,-434,-1724,-559
514,4594.145591000142,8,4178,-2226,2216,-753,-2048,-727
515,4602.925510000205,8,4041,-2187,1939,-575,-2419,-886
516,4611.8154279997725,8,3830,-2129,1560,-632,-3021,-1062
517,4620.675346000098,8,3698,-2009,1163,-650,-3071,-1510
518,4629.529264000212,8,3530,-1877,720,-653,-3239,-1506
519,4638.402181999936,8,3320,-1764,346,-656,-3391,-1681
520,4647.152101999836,8,3208,-1362,29,-697,-3487,-1836
521,4655.944020999868,8,2980,-1245,-344,-805,-3558,-1917
522,4665.158935999898,9,2785,-1001,-751,-962,-3560,-1993
523,4674.049853999804,8,2624,-723,-1058,-1137,-3522,-2031
524,4682.818772999781,8,2495,-257,-1355,-1252,-3480,-2077
525,4691.6536909998285,8,2447,-275,-1636,-1303,-3366,-2122
526,4700.516609999795,8,2362,-129,-1802,-1305,-3270,-2169
527,4709.353528000065,8,2277,7,-1843,-1322,-3195,-2182
528,4718.124446999809,8,2273,141,-1934,-1285,-3120,-2158
529,4727.072364999913,8,2202,356,-2163,-1272,-2989,-2179
530,4735.8502840002075,8,2221,501,-2459,-1115,-2859,-2136
531,4744.684201999917,8,2236,638,-2834,-913,-2648,-2053
532,4753.521121000176,8,2303,668,-2997,-656,-2404,-1948
533,4762.347038999906,8,2363,992,-3123,-414,-2099,-1561
534,4771.3229569999385,8,2393,849,-3202,-248,-1908,-1639
535,4780.182874999809,8,2450,931,-3248,-110,-1723,-1490
536,4789.047793000009,8,2439,1081,-3268,27,-1287,-1336
537,4797.781712999949,8,2471,1517,-3286,95,-1378,-1181
538,4806.583632000184,8,2400,1410,-3411,152,-1179,-1015
539,4815.461549999782,8,2390,1454,-3625,221,-1023,-804
540,4824.372468000092,8,2390,1440,-3749,307,-849,-661
541,4833.188386000074,8,2473,1397,-3810,375,-673,-546
542,4842.128304000198,8,2534,1462,-3909,419,-479,-431
543,4850.956223000139,8,2583,1585,-4157,434,-322,-286
544,4859.855140000036,8,2687,1666,-4278,441,-108,-184
545,4869.151055000202,9,2780,1673,-4417,461,186,-65
546,4878.462968999884,9,2932,1709,-4524,434,733,32
547,4887.76288300005,9,2997,1777,-4557,447,794,137
548,4896.9797979998475,9,3082,1915,-4596,451,1043,238
549,4906.119713999942,9,3284,1754,-4430,550,1382,352
550,4915.3126289998,9,3174,1600,-4278,568,1639,494
551,4924.62554299982,9,3215,1564,-4081,617,1827,642
552,4933.814459000132,9,3235,1562,-3971,598,2021,888
553,4943.076373000167,9,3254,1550,-3884,559,2164,1108
554,4952.277288000005,9,3171,1430,-3937,539,2411,1329
555,4961.454203999892,9,3108,1178,-3670,547,2688,1499
556,4970.736117999877,9,2695,936,-3245,633,2970,1487
557,4979.577037000126,8,2885,271,-2879,617,3151,1519
558,4988.421954999922,8,2801,187,-2521,585,3205,1451
559,4997.197873999994,8,2746,11,-2014,566,3211,1274
560,5005.957793000107,8,3062,-74,-1780,455,3112,1138
561,5014.846710999791,8,2904,-127,-1585,390,3039,1042
562,5023.756629000218,8,2912,16,-1630,345,3046,1013
563,5032.690547000129,8,2886,153,-1538,345,3060,1049
564,5041.5424650000205,8,2876,125,-1392,337,3102,1104
565,5050.417382999967,8,2862,-252,-1252,346,3144,1164
566,5059.261301999868,8,2733,102,-1185,367,3163,1161
567,5068.055221000122,8,2773,-2,-907,354,3226,1175
568,5077.03213800005,8,2761,34,-571,336,3266,1179
569,5085.817056999986,8,2661,-241,-217,377,3222,1191
570,5094.714974999988,8,2700,-246,-152,360,3089,1190
571,5103.51089400001,8,2830,-490,-95,330,3044,1192
572,5112.3268129999815,8,2799,-321,83,336,2995,1211
573,5121.275729999979,8,2715,-449,292,295,2953,1302
574,5130.16364799978,8,2881,-689,662,303,2919,1407
575,5139.129566000065,8,2952,-877,1150,372,2865,1413
576,5147.944484000163,8,3028,-901,1547,439,2753,1330
577,5156.761403000019,8,3088,-966,1887,439,2532,1275
578,5165.663321000011,8,3179,-1181,2145,382,2168,1216
579,5174.495239999942,8,3276,-1437,2442,243,1824,1087
580,5183.600156000011,9,3345,-1635,2685,119,1472,987
581,5192.582072999812,8,3394,-1644,2778,24,1161,906
582,5201.366992000203,8,3443,-1808,2788,-75,790,822
583,5210.22991000018,8,3526,-2052,2856,-129,546,684
584,5219.099827999798,8,3666,-2234,3058,-146,58,563
585,5227.949746999911,8,3820,-2459,3448,-159,-215,442
586,5236.787665000065,8,3897,-2583,3719,-189,-434,311
587,5245.650583000042,8,3936,-2633,3874,-229,-921,151
588,5254.392502999963,8,3904,-2684,3879,-257,-1414,14
589,5263.213421999808,8,3863,-2770,3782,-326,-1901,-157
590,5272.032339999896,8,3797,-2691,3551,-419,-2493,-342
591,5280.816258999948,8,3704,-2546,2885,-571,-2891,-515
592,5289.6961770002235,8,3645,-2569,2595,-1007,-3218,-743
593,5298.437096999805,8,3328,-2413,2255,-927,-3470,-940
594,5307.135016999837,8,3477,-2288,1958,-1148,-3701,-1091
595,5315.922935999879,8,3193,-2062,1347,-1293,-4011,-1233
596,5324.9238530002,9,3201,-2062,1171,-1385,-4264,-1375
597,5333.783771000071,8,3000,-1861,739,-1443,-4520,-1533
598,5342.705689000013,8,2763,-1736,291,-1448,-4734,-1698
599,5351.557606999904,8,2637,-1451,-336,-1443,-4905,-1874
600,5360.5235240002,8,2480,-1131,-1093,-1381,-4855,-2100
601,5369.348443000035,8,2438,-736,-1509,-1316,-4654,-2275
602,5378.364359999978,9,2346,-454,-1610,-1253,-4148,-2373
603,5387.186279000161,8,2217,-22,-1668,-1274,-4152,-2432
604,5396.061197000108,8,1819,144,-1642,-1428,-4085,-2337
605,5404.964114999984,8,1619,342,-1824,-1665,-4142,-2207
606,5413.673034000112,8,1422,203,-2505,-1978,-4354,-2187
607,5422.514952999791,8,1317,296,-3302,-1755,-4334,-2234
608,5431.405871000152,8,1526,440,-3358,-1238,-3910,-2208
609,5440.262788999917,8,2021,391,-3765,-752,-3390,-2237
610,5449.171707000005,8,1808,913,-4112,-208,-2626,-2259
611,5458.050624999942,8,2017,1509,-4081,-112,-2329,-2040
612,5466.992542999833,8,2060,2127,-3708,-200,-2120,-1515
613,5475.853461000042,8,2242,2431,-3541,-405,-2033,-1038
614,5484.6803800001,8,2179,2120,-3834,-501,-1964,-655
615,5493.626296999992,8,2135,1744,-4338,-374,-1696,-455
616,5502.428216000226,8,2209,1189,-4134,-151,-1347,-440
617,5511.43913299984,9,2282,962,-4050,42,-1087,-463
618,5520.245052000064,8,2234,945,-4009,145,-911,-505
619,5529.216969000117,8,2276,908,-4069,159,-749,-768
620,5538.032888000089,8,2352,1059,-4162,209,-559,-489
621,5546.910806000142,8,2319,1294,-4275,231,-391,-427
622,5555.694725000194,8,2335,1478,-4449,295,-205,-312
623,5564.533642999777,8,2405,1551,-4506,366,11,-146
624,5573.392562000208,8,2501,1495,-4453,417,140,12
625,5582.138481000129,8,2544,1300,-4483,428,255,172
626,5590.920399999959,8,2807,1176,-4680,387,361,255
627,5599.749318999784,8,2581,1149,-4844,350,526,313
628,5608.59723700014,8,2622,1089,-4884,332,783,386
629,5617.36315600001,8,2623,989,-4944,304,991,435
630,5626.188074999845,8,2658,936,-4954,330,1265,446
631,5634.988994000196,8,2723,805,-4872,378,1570,463
632,5643.803912999829,8,2670,808,-4715,423,1939,758
633,5652.564831999825,8,2809,804,-4433,401,2197,613
634,5661.561749000157,8,2817,669,-4281,524,2426,711
635,5671.551656999782,9,2903,715,-4093,521,2582,888
636,5680.8035710000695,9,2843,737,-3940,599,3039,965
637,5690.061486000104,9,2751,605,-3984,572,2986,1032
638,5699.310400999821,9,2747,496,-3918,462,3213,1087
639,5708.547316000022,9,2664,478,-3398,403,3565,1119
640,5717.85422999983,9,2600,351,-3063,416,3769,1113
641,5727.083145000051,9,2527,156,-2592,397,3870,786
642,5736.253059999854,9,2477,3,-2262,373,3887,910
643,5745.535975000166,9,2392,-74,-1952,342,3805,814
644,5754.666890999943,9,2392,-2,-1643,300,3655,761
645,5763.830805999987,9,2807,168,-1401,213,3576,815
646,5773.632716000066,9,2612,277,-1285,166,3542,900
647,5782.448635000037,8,2685,223,-1151,94,3550,1030
648,5791.384552000181,8,2709,95,-955,35,3567,1111
649,5800.178470999981,8,2685,98,-714,7,3536,1134
650,5809.049388999938,8,2624,-81,-459,62,3409,1118
651,5817.94330799994,8,2636,-166,-364,137,3262,1082
652,5826.774225999998,8,2625,-139,-258,185,3186,1096
653,5835.811142999773,9,2636,-146,-28,260,3156,1136
654,5844.683061000069,8,2664,-93,179,229,3013,1217
655,5853.51098000001,8,2748,-167,586,148,2943,1262
656,5862.359897999795,8,2699,-227,772,64,2876,1369
657,5871.25581600003,8,2794,-314,929,-83,2758,1361
658,5880.098735000047,8,2952,-543,1481,-145,2698,1326
659,5889.063652000004,8,3006,-756,1656,-61,2598,1296
660,5897.869570999774,8,3103,-930,2063,37,2421,1287
661,5906.70948900015,8,3225,-1055,2438,179,2176,1273
662,5915.580408000096,8,3309,-1155,2716,214,1819,1251
663,5924.394325999856,8,3334,-1229,2875,200,1504,1232
664,5933.229244999893,8,3554,-1332,2996,159,1202,1211
665,5942.098163000082,8,3392,-1766,3020,106,930,1175
666,5950.942081999983,8,3409,-1821,3051,137,634,809
667,5959.821999999804,8,3545,-2097,3186,185,397,911
668,5968.5749189998205,8,3629,-2218,3351,154,92,723
669,5977.355838000221,8,3678,-2368,3449,102,-239,539
670,5986.085758000172,8,3734,-2581,3530,43,-576,359
671,5994.947675999811,8,3727,-2704,3598,9,-991,157
672,6003.773594999984,8,3782,-2847,3927,74,-1346,-120
673,6012.636512999961,8,3783,-2930,4039,143,-1776,-376
674,6021.394432999841,8,3729,-2901,3905,143,-2542,-579
675,6030.182351999883,8,3596,-2589,3370,130,-3068,-993
676,6039.085269000225,8,3495,-2560,2754,16,-3339,-858
677,6047.944188000201,8,3463,-2362,2134,-87,-3572,-959
678,6056.784106000123,8,3315,-2414,1576,-170,-3744,-985
679,6065.682024000125,8,3229,-2246,997,-225,-3894,-1054
680,6074.559943000168,8,3422,-2223,273,-165,-3919,-1128
681,6083.463860999927,8,3014,-1785,-7,-108,-3987,-1161
682,6092.414778000148,8,3075,-1480,-282,-403,-3899,-1232
683,6101.314695999918,8,3041,-1367,-535,-614,-3679,-1295
684,6110.161613999935,8,2924,-1012,-867,-716,-3578,-1317
685,6119.084532000215,8,2589,-598,-1133,-868,-3449,-1290
686,6127.943451000192,8,2812,-373,-1242,-1063,-3267,-1318
687,6136.946367999826,9,2756,-389,-1348,-1112,-3097,-1310
688,6145.806286000152,8,2665,-213,-1487,-1112,-3016,-1254
689,6154.630205000103,8,2591,-84,-1653,-1124,-2963,-1214
690,6163.568122000015,8,2496,-40,-1794,-1139,-2946,-1202
691,6172.415041000022,8,2438,-2,-1906,-1068,-2907,-1184
692,6181.3159590001305,8,2450,84,-2056,-974,-2850,-1133
693,6190.249876000053,8,2477,139,-2333,-897,-2764,-1080
694,6199.151794000045,8,2543,242,-2388,-737,-2635,-1037
695,6208.021713000107,8,2605,264,-2360,-640,-2493,-981
696,6216.887631000191,8,2699,238,-2319,-605,-2428,-913
697,6225.746549000178,8,2641,309,-2395,-591,-2397,-839
698,6234.673466999993,8,2633,763,-2563,-612,-2382,-720
699,6243.6083849997885,8,2612,690,-2818,-624,-2331,-576
700,6252.47530300021,8,2581,780,-3200,-572,-2249,-423
701,6261.381221000192,8,2611,804,-3437,-424,-2082,-310
702,6270.15713999981,8,2632,757,-3625,-192,-1863,-218
703,6279.060058000141,8,2688,719,-3663,-6,-1563,-144
704,6287.815976999809,8,2779,710,-3644,125,-1387,-112
705,6296.584895999786,8,2890,639,-3670,165,-1262,-51
706,6305.417815000055,8,2980,676,-3779,128,-1168,-8
707,6314.237734000017,8,3044,636,-3961,82,-1067,31
708,6322.97365300019,8,2988,492,-4288,100,-902,51
709,6331.622573000004,8,3062,415,-4500,209,-641,4
710,6340.54149099984,8,3103,258,-4697,330,-368,-17
711,6349.377410000216,8,3080,697,-4807,404,-115,-23
712,6358.239327999854,8,3005,329,-4722,533,70,-148
713,6367.045247000078,8,3061,354,-5325,419,318,-147
714,6375.867165999807,8,3174,688,-5500,315,556,-69
715,6384.747084000082,8,3352,993,-5592,264,1210,89
716,6393.587002000004,8,3429,966,-5534,382,1389,286
717,6402.382921000026,8,3439,925,-5359,553,1932,741
718,6411.319839000043,8,3369,884,-5072,661,2327,778
719,6420.207756999844,8,3202,784,-4846,775,2674,1000
720,6429.121674999806,8,2903,629,-4602,857,2942,1144
721,6437.975592999919,8,2770,258,-4217,856,3264,1161
722,6446.781512000143,8,2636,-7,-3663,823,3496,1086
723,6455.461431999993,8,2515,-154,-3211,752,3608,1017
724,6464.553348000209,9,2462,-174,-2793,594,3605,957
725,6473.359266999978,8,2560,-265,-2398,432,3554,986
726,6482.925179000176,9,2573,-298,-2037,306,3594,1007
727,6492.222092999782,9,2671,-385,-1709,294,3643,975
728,6501.452007999887,9,2666,-540,-1329,330,3611,949
729,6510.74292300018,9,2664,-674,-1092,388,3490,916
730,6519.95383800022,9,2720,-769,-836,389,3360,896
731,6529.300751999926,9,2745,-1017,-625,391,3221,862
732,6538.567665999835,9,2758,-812,-281,438,3146,801
733,6547.759581999799,9,2773,-818,-4,527,3060,733
734,6557.070496000051,9,2818,-852,504,583,2950,649
735,6566.171412000131,9,2882,-901,697,615,2844,577
736,6575.182329000199,9,2941,-911,1045,566,2591,533
737,6584.873239999979,9,3060,-785,1439,400,2324,505
738,6593.675158000224,8,2968,-1012,1547,279,1947,428
739,6602.429078000114,8,3057,-917,1615,180,1284,426
740,6611.269995999919,8,3084,-856,1591,110,1172,456
741,6620.064915000057,8,3074,-851,1502,90,928,522
742,6628.8108349999675,8,3083,-870,1280,75,732,568
743,6637.651752999773,8,3151,-946,1171,-5,649,613
744,6646.489671999916,8,3298,-1127,1053,83,617,634
745,6655.20559100014,8,3355,-1066,1087,125,573,657
746,6664.005510000152,8,3458,-1163,1118,197,554,709
747,6673.318424000172,9,3564,-1261,1307,307,534,1018
748,6684.815317999892,11,3648,-1414,1513,314,492,778
749,6693.665237000005,8,3747,-1665,1780,303,413,752
750,6702.526155000214,8,3841,-1876,2030,275,26,624
751,6711.357073999807,8,3943,-2158,2533,235,18,487
752,6720.2189919999,8,4040,-2273,2493,261,-207,356
753,6729.14591000017,8,4100,-2306,2787,268,-483,266
754,6738.0028289999245,8,4180,-2360,2935,258,-839,196
755,6746.942746000059,8,4174,-2435,2875,209,-1336,138
756,6755.741665000187,8,4149,-2529,2715,157,-1700,31
757,6764.620583000124,8,4109,-2631,2385,91,-2036,-96
758,6773.5455010001715,8,4057,-2637,2064,9,-2327,-252
759,6782.352419999825,8,3988,-2820,1580,-59,-2624,-370
760,6791.321337000227,8,3825,-2570,1442,-131,-2842,-566
761,6800.135255999976,8,3645,-2378,981,-292,-3046,-726
762,6809.092173999943,8,3545,-2239,557,-487,-3265,-830
763,6817.916091999905,8,3354,-2060,-194,-745,-3490,-886
764,6826.774010999998,8,3341,-1865,-333,-942,-3582,-920
765,6835.572930000126,8,3105,-1471,-814,-1031,-3562,-1011
766,6844.456847999936,8,2976,-1429,-1089,-1098,-3488,-1103
767,6853.457764999803,9,2941,-1372,-1293,-1099,-3357,-1145
768,6862.333683000088,8,2827,-1165,-1470,-1098,-3282,-1153
769,6871.266601000116,8,2729,-979,-1746,-1177,-3226,-1143
770,6880.1415190000625,8,2726,-861,-1877,-1311,-3136,-1148
771,6889.063437000004,8,2653,-803,-2011,-1375,-3007,-1190
772,6897.871355999996,8,2638,-781,-2041,-1416,-2893,-1231
773,6906.775274000211,8,2590,-594,-2108,-1345,-2775,-1236
774,6915.643192000061,8,2578,-315,-2172,-1267,-2686,-1223
775,6924.478111000099,8,2477,-502,-2558,-1204,-2587,-1215
776,6933.354028999929,8,2421,-383,-2460,-1135,-2486,-1275
777,6942.2119470000325,8,2554,-143,-2705,-1106,-2390,-1314
778,6951.171865000106,8,2384,-8,-2838,-992,-2207,-1261
779,6962.605758999871,11,2461,49,-2887,-894,-2060,-1173
780,6971.368679000079,8,2505,134,-3168,-754,-1943,-1096
781,6980.2675969999655,8,2488,246,-3433,-537,-1550,-1052
782,6989.115514999867,8,2514,238,-3533,-368,-1565,-1071
783,6997.902434000025,8,2507,355,-3461,-191,-1374,-1082
784,7006.693353000173,8,2413,330,-3513,-28,-1298,-1104
785,7015.55227200015,8,2072,477,-3536,33,-1253,-1081
786,7024.46418999989,8,2215,753,-3738,63,-1223,-1058
787,7033.329108000089,8,2221,648,-4309,54,-1135,-1001
788,7042.228025999975,8,2330,770,-4277,43,-1013,-924
789,7051.151944000139,8,2461,1039,-4448,127,-535,-904
790,7060.034862000066,8,2601,1082,-4688,254,-478,-808
791,7069.024778999847,8,2712,1355,-4818,347,-229,-648
792,7077.889697000046,8,2772,1646,-5086,414,18,-485
793,7086.678615999972,8,2890,1799,-5189,475,331,-268
794,7095.7115330002125,9,2948,1798,-5173,504,752,224
795,7104.541451999921,8,2893,1659,-5105,534,1052,170
796,7113.506368999879,8,2831,1452,-4927,590,1382,254
797,7122.337287999926,8,2703,1233,-4742,635,1686,279
798,7131.248205999782,8,2678,925,-4138,690,2010,293
799,7140.223122999942,8,2653,731,-4081,722,2185,330
800,7149.118040999838,8,2665,650,-3836,739,2297,387
801,7157.966960000067,8,2784,622,-3597,763,2423,478
802,7166.758879000099,8,2889,663,-3091,769,2569,611
803,7175.685796999915,8,2954,640,-2939,765,2655,845
804,7184.5777150001595,8,2943,399,-2498,883,2695,1046
805,7193.512631999965,8,3124,440,-2144,964,2708,1187
806,7202.321550999841,8,3005,244,-1902,904,2678,1220
807,7211.267469000177,8,2850,-37,-1650,554,2588,1196
808,7220.07838799982,8,2650,-297,-1562,311,2386,1037
809,7228.997305000121,8,2488,-622,-1643,196,2119,789
810,7237.765225000203,8,2418,-540,-1910,16,1831,571
811,7246.599142999912,8,2459,-363,-2198,-84,1780,419
812,7255.530061000172,8,2599,-98,-2241,-58,1919,390
813,7264.30597999979,8,2705,116,-2132,141,2137,459
814,7273.089898999842,8,2763,164,-1979,379,2406,606
815,7282.033816999956,8,2761,166,-1857,557,2559,809
816,7290.834735999852,8,2681,237,-1829,687,2634,1081
817,7299.738654000066,8,2650,360,-1695,859,2694,1287
818,7308.528572999876,8,2761,37,-1375,973,2783,1436
819,7317.294492000201,8,2748,102,-782,1095,2855,1562
820,7326.1434109999755,8,2826,-192,-551,1068,2911,1661
821,7334.893329999886,8,2769,-372,-269,1166,2846,1664
822,7343.608250000216,8,2877,-712,-60,1066,2728,1627
823,7352.433168000061,8,2883,-805,227,968,2568,1622
824,7361.339086000044,8,2946,-1017,726,848,2440,1571
825,7370.211004999874,8,2981,-1174,807,755,2334,1510
826,7379.133922000165,8,3133,-1298,1110,655,2257,1470
827,7387.947840999914,8,3200,-1353,1517,598,2178,1461
828,7396.790759999931,8,3212,-1492,1826,540,2022,1428
829,7405.660678000004,8,3282,-1709,2057,426,1834,1384
830,7414.542596000047,8,3362,-1889,2262,274,1640,1372
831,7423.472513999968,8,3436,-2111,2428,127,1398,1044
832,7432.2964329999195,8,3493,-2443,2805,39,1019,1188
833,7441.372349000176,9,3836,-2679,2723,20,724,1025
834,7450.207268000213,8,3525,-2564,2774,0,447,781
835,7459.126185000059,8,3869,-3203,2927,49,169,630
836,7467.948103999788,8,3709,-3256,2917,47,-71,403
837,7476.790022999921,8,3813,-3184,2768,-79,-396,67
838,7485.775940000167,8,3574,-3478,2825,-154,-1002,-161
839,7494.497860000138,8,3798,-3322,2633,-215,-1105,-328
840,7503.601775999869,9,3544,-3080,2345,-189,-1369,-469
841,7512.462694000078,8,3650,-2974,2383,-213,-1646,-550
842,7521.332612000151,8,3735,-2962,2160,-227,-1872,-592
843,7530.176531000052,8,3738,-2730,1847,-293,-2092,-606
844,7539.072448999832,8,3810,-2697,1628,-463,-2219,-735
845,7547.914367999965,8,3822,-2649,1328,-593,-2327,-855
846,7556.794285999786,8,3731,-2482,960,-723,-2444,-912
847,7565.665204000197,8,3668,-2361,624,-780,-2540,-967
848,7574.47212299985,8,3601,-2338,333,-796,-2582,-1279
849,7583.322040999974,8,3482,-2273,57,-778,-2618,-1099
850,7592.109960000016,8,3075,-2115,-20,-514,-2652,-1168
851,7600.938878999841,8,3240,-1930,-274,-795,-2709,-1196
852,7609.790798000176,8,3371,-1405,-460,-923,-2705,-1137
853,7618.536717000097,8,3535,-1239,-607,-1087,-2628,-1009
854,7627.321636000033,8,3608,-1153,-789,-1512,-2569,-914
855,7636.0645559998375,8,3523,-783,-1051,-1402,-2552,-745
856,7644.968473000063,8,3604,-806,-1337,-1449,-2501,-652
857,7653.81139200008,8,3463,-710,-1656,-1535,-2413,-498
858,7662.673310000173,8,3120,-529,-2026,-1624,-2291,-340
859,7671.994225000162,9,3230,-351,-2361,-1687,-2126,-233
860,7680.82514300022,8,3224,-313,-2313,-1959,-1677,-209
861,7689.751061000152,8,2975,-552,-2339,-1517,-1550,-242
862,7698.597980000159,8,2955,-471,-2201,-1342,-1439,-280
863,7707.439897999848,8,3130,-442,-2071,-1115,-1265,-332
864,7716.332815999976,8,3169,-95,-2137,-1284,-1073,-446
865,7725.217734000125,8,2977,-442,-1852,-770,-1002,-336
866,7733.975654000005,8,2781,-371,-1941,-909,-1153,-229
867,7743.193569000141,9,2646,125,-2435,-944,-1370,-464
868,7752.11748699985,8,2831,-280,-1713,-1904,-1257,-78
869,7760.983404999934,8,2553,65,-2223,-1217,-1294,-39
870,7769.894322999789,8,2222,-328,-2365,-1117,-1625,-50
871,7778.744241999902,8,2344,-352,-2465,-1000,-1637,-112
872,7787.732158999916,8,2276,141,-3124,-1337,-1612,-176
873,7796.597077000115,8,2228,-343,-2921,-1308,-1648,-134
874,7805.528994999804,8,2267,-153,-2960,-956,-1610,-90
875,7814.4589130001805,8,2400,-83,-3111,-811,-1671,-84
876,7823.397829999976,8,2789,-182,-3325,-679,-1634,-148
877,7832.247749000089,8,2691,-196,-3347,-769,-1589,-183
878,7841.190665999875,8,2712,-134,-3415,-929,-1586,-161
879,7850.022584999806,8,2702,44,-3675,-843,-1495,-138
880,7858.8125040000705,8,2551,156,-4405,-608,-1405,-185
881,7867.684422999901,8,2690,266,-4994,-51,-1109,-273
882,7876.488340999913,8,2825,767,-5304,186,-326,-355
883,7885.346260000006,8,2897,667,-5515,634,53,-349
884,7894.241177999902,8,3027,788,-5429,995,530,-272
885,7903.007096999772,8,3112,832,-5049,1509,980,-157
886,7911.858016000224,8,3249,789,-4830,1411,1385,16
887,7920.602934999806,8,3266,725,-4643,1459,1696,176
888,7929.419854000116,8,3176,376,-4523,1418,1969,299
889,7938.128773999779,8,3152,-20,-4276,1408,2158,330
890,7946.991692000211,8,3033,-222,-3963,1408,2316,299
891,7955.7356119998985,8,3014,-263,-3750,1314,2418,225
892,7964.471531000072,8,3071,-378,-3458,1290,2540,179
893,7973.354449999988,8,3019,-495,-2871,1253,2635,148
894,7982.035370000176,8,3108,-604,-2742,1209,2692,180
895,7991.4872829999695,9,3153,-597,-2335,1162,2690,507
896,8000.725197000065,9,3233,-662,-1965,1070,2648,373
897,8010.000111999943,9,3156,-803,-1985,877,2522,409
898,8019.27602700016,9,3132,-792,-1918,728,2357,427
899,8028.518942000119,9,3101,-698,-1832,648,2292,459
900,8037.731856999926,9,3027,-647,-1755,666,2313,481
901,8047.026771000219,9,3043,-641,-1546,1023,2311,555
902,8056.1606870001015,9,3082,-693,-1318,895,2382,579
903,8065.349601999969,9,2950,-782,-887,888,2392,631
904,8074.591517000044,9,3033,-907,-500,1002,2278,650
905,8083.674433999931,9,2921,-997,-402,781,2074,694
906,8093.523343000015,9,3002,-1056,-374,1022,1944,653
907,8102.277261999916,8,3072,-1244,-519,951,1557,589
908,8111.229180000009,8,2984,-1201,-544,1044,1724,675
909,8119.976098999814,8,3195,-571,-537,916,1559,546
910,8128.731019000043,8,2927,-1090,-389,863,1459,548
911,8137.8049350000765,9,3085,-1095,-157,909,1538,540
912,8146.64685400021,8,2998,-1055,182,874,1549,767
913,8155.52677200003,8,3122,-1129,208,1008,1686,539
914,8164.336690999789,8,3171,-1282,377,929,1805,579
915,8173.172610000165,8,3347,-1786,537,864,1737,658
916,8182.149527000092,8,3377,-1654,671,689,1584,700
917,8190.987445999781,8,3440,-1843,974,493,1438,612
918,8199.918363000052,8,3495,-2023,1218,343,1035,514
919,8208.74028199978,8,3571,-2274,1367,205,1129,456
920,8217.350203000024,8,3579,-2560,1552,215,944,43
921,8226.195120999819,8,3610,-2615,1993,178,815,150
922,8234.978039999987,8,4078,-2613,2129,81,603,8
923,8243.806958999812,8,3793,-2492,2402,-42,59,-106
924,8252.780877000077,8,3891,-2449,2659,-172,-223,-187
925,8261.640794999948,8,3936,-2406,2659,-277,-358,-216
926,8270.561713000006,8,3933,-2454,2625,-359,-657,-286
927,8279.43163100008,8,3921,-2464,2465,-445,-917,-408
928,8288.333549000072,8,3833,-2420,2220,-583,-1256,-763
929,8297.247467000034,8,3695,-2377,1650,-717,-1472,-608
930,8306.069386000217,8,3734,-2368,1613,-861,-1676,-662
931,8314.976304000083,8,3615,-1828,1480,-1065,-1902,-703
932,8323.880221999843,8,3616,-1991,1240,-1161,-2121,-773
933,8332.793139999922,8,3555,-1870,1017,-1174,-2219,-903
934,8341.707057999884,8,3531,-1863,612,-1214,-2328,-927
935,8350.646975000018,8,3674,-1665,321,-1262,-2398,-1017
936,8359.421895000196,8,3353,-1469,55,-1216,-2432,-1014
937,8368.073815000116,8,3184,-1282,-201,-1228,-2466,-1025
938,8376.959733000149,8,3121,-1141,-325,-1170,-2464,-1015
939,8385.748652000075,8,3047,-962,-439,-1083,-2469,-1027
940,8394.572571000026,8,2764,-938,-720,-946,-2500,-989
941,8403.415489000054,8,2985,-747,-1198,-933,-2511,-927
942,8412.292408000212,8,2842,-594,-1293,-944,-2505,-831
943,8421.140326000113,8,2843,-544,-1568,-1006,-2480,-768
944,8429.93724500002,8,2855,-638,-1645,-1070,-2414,-754
945,8438.729164000051,8,2791,-617,-1701,-1043,-2340,-727
946,8447.616081999968,8,2746,-458,-1820,-1037,-2289,-685
947,8456.513001000076,8,2621,-400,-1956,-998,-2257,-622
948,8465.273920000072,8,2691,-396,-2043,-965,-2253,-558
949,8474.179838000055,8,2632,-361,-2095,-947,-2235,-511
950,8483.07875599994,8,2669,-441,-2235,-949,-2246,-473
951,8492.01767400018,8,2679,-345,-2440,-1263,-2278,-428
952,8500.854591999996,8,2646,-13,-2635,-1057,-2269,-403
953,8509.822510000049,8,2698,-209,-3064,-1008,-2182,-373
954,8518.648427999779,8,2665,-73,-3280,-926,-2070,-286
955,8527.681345000019,9,2697,-10,-3309,-528,-1937,-240
956,8536.279265999838,8,2745,4,-3540,-550,-1791,-194
957,8545.302182999876,9,2769,152,-3846,-375,-1619,-193
958,8554.268100000172,8,3106,255,-4009,-837,-1401,-278
959,8563.133018999906,8,2868,-514,-4189,232,-951,-143
960,8572.081935999904,8,3020,466,-4408,139,-728,-141
961,8580.891855000118,8,3372,328,-4439,384,-369,-103
962,8589.80577300008,8,3463,411,-4519,503,-8,-74
963,8598.621692000052,8,3530,442,-4538,536,186,-2
964,8607.43661100014,8,3647,557,-4530,655,719,60
965,8616.21852999997,8,3697,566,-4670,759,806,177
966,8625.125447999835,8,3637,641,-4631,772,1061,332
967,8634.015365999858,8,3547,280,-4349,892,1346,475
968,8642.855285000223,8,3429,-229,-4154,908,1541,510
969,8651.688203000049,8,3206,-279,-4011,904,1708,527
970,8660.580120999839,8,2993,-505,-3851,941,1850,468
971,8669.771036999919,9,3021,-491,-3560,996,1918,456
972,8678.641954999875,8,2973,-412,-3449,1003,2008,473
973,8687.437873999897,8,3024,-357,-3299,1077,2160,499
974,8696.260792999965,8,3051,-297,-3234,1135,2295,537
975,8705.046711999785,8,3084,-247,-3094,1192,2442,614
976,8713.9106300001,8,3078,-3,-2903,1254,2664,687
977,8722.762548999981,8,3060,-303,-2671,1304,2849,753
978,8731.506468000134,8,3024,-454,-2060,1325,2992,830
979,8740.330387000085,8,2987,-563,-2017,1301,3077,892
980,8749.165306000123,8,2583,-811,-1782,1264,3093,911
981,8757.986224999968,8,2829,-878,-1470,1346,3015,958
982,8766.71214399994,8,2797,-1132,-1254,1309,2969,940
983,8775.612063000153,8,2745,-1067,-1165,1405,2902,885
984,8784.451981000075,8,2632,-1285,-856,1768,2722,814
985,8793.682896000064,9,2834,-1482,-659,1423,2630,701
986,8803.052809999826,9,2848,-1591,-270,1511,2706,578
987,8812.32272499983,9,2891,-1469,-7,1537,2736,507
988,8821.552639999936,9,2853,-1355,274,1493,2623,514
989,8830.802554999991,9,2858,-1031,514,1290,2454,556
990,8840.039470000193,9,2940,-1304,701,1082,2176,585
991,8849.349384000107,9,2927,-1353,781,838,1939,649
992,8858.58929899996,9,2885,-1286,1016,571,1631,734
993,8867.77621400006,9,2917,-1207,779,382,1388,880
994,8876.95513000017,9,2972,-1197,963,218,1209,948
995,8886.068046000219,9,3003,-1336,1146,493,985,970
996,8895.847956000125,9,3157,-1349,1236,207,861,969
997,8904.654874999778,8,3135,-1638,1542,341,928,898
998,8913.55279299978,8,3096,-2014,1726,424,911,755
999,8922.467711000081,8,3166,-2362,1928,400,777,628
1000,8931.359628999871,8,3300,-2585,2155,341,608,481
1001,8940.217546999975,8,3303,-2861,2376,208,374,340
1002,8949.12846499983,8,3349,-3027,2671,88,119,138
1003,8958.022383999833,8,3394,-3070,2741,20,-156,6
1004,8966.962300999967,8,3520,-3094,2798,-30,-413,-148
1005,8975.857218999863,8,3601,-3002,2763,-55,-694,-313
1006,8984.779136999805,8,3613,-3016,2588,-133,-964,-473
1007,8993.739054999878,8,3641,-2995,2438,-283,-1486,-582
