,time_ms,delta_ms,aX,aY,aZ,gX,gY,gZ
0,0.0,0,3243,-786,174,-240,161,-190
1,10.261902999900485,10,3227,-801,158,-233,130,-137
2,19.58381599979475,9,3244,-826,136,-232,76,-84
3,28.72772899991105,9,3239,-836,134,-249,33,-35
4,38.294639000014286,9,3251,-906,103,-272,-13,-4
5,47.724550000111776,9,3271,-937,76,-284,-56,8
6,57.069462000072235,9,3289,-915,57,-327,-92,11
7,66.35137500006749,9,3295,-884,37,-358,-139,18
8,75.6552869997904,9,3314,-827,41,-389,-170,40
9,84.91319999984626,9,3312,-779,26,-409,-201,89
10,94.15311300017493,9,3289,-725,29,-422,-229,139
11,103.20102700006828,9,3306,-741,5,-403,-247,189
12,112.85593599995991,9,3307,-732,-12,-373,-252,224
13,121.77785199992286,8,3329,-729,6,-320,-244,255
14,130.72476800016375,8,3337,-788,0,-271,-244,304
15,139.62768400006098,8,3371,-834,17,-244,-250,351
16,148.4246009999879,8,3404,-934,43,-215,-258,379
17,158.51950600017517,10,3412,-1026,70,-218,-304,396
18,168.29441400022915,9,3450,-1091,63,-225,-332,402
19,177.18032999982825,8,3472,-1160,41,-231,-373,419
20,185.9812470001998,8,3482,-1201,7,-218,-398,442
21,195.01916199988045,9,3501,-1260,-39,-198,-421,472
22,203.85607900016112,8,3512,-1386,-109,-165,-431,501
23,213.17399100007606,9,3527,-1515,-130,-129,-414,519
24,222.17290600019624,8,3580,-1668,-103,-78,-394,522
25,231.03382299996156,8,3625,-1785,-52,-52,-389,507
26,239.94573900017713,8,3656,-1890,-1,-25,-404,474
27,248.88265400022647,8,3705,-1930,14,-18,-420,435
28,257.8015700000833,8,3781,-1956,2,-25,-443,403
29,266.6384869999092,8,3836,-1955,12,-32,-499,383
30,275.5734030001804,8,3912,-1937,-23,-24,-529,372
31,284.3813200001932,8,3990,-1924,-106,-12,-533,374
32,293.25823599992873,8,4074,-1949,-210,23,-525,380
33,302.1081530000629,8,4116,-2024,-278,85,-483,388
34,310.9370689999196,8,4197,-2093,-323,137,-439,390
35,319.82898600017506,8,4228,-2188,-370,185,-423,379
36,328.66590200001156,8,4248,-2330,-388,225,-394,342
37,337.465820000034,8,4237,-2463,-407,228,-374,16
38,346.2617370000771,8,4217,-2446,-406,232,-370,197
39,355.1216529999692,8,4237,-2338,-445,216,-375,133
40,364.0875689998211,8,4209,-2244,-491,182,-381,109
41,372.88848600019264,8,4142,-2146,-530,174,-361,90
42,381.72040300014487,8,4093,-2035,-572,169,-351,85
43,390.651317999982,8,4028,-1959,-616,164,-335,87
44,399.4522359998882,8,3933,-1905,-660,178,-315,95
45,408.4831499999382,9,3830,-1883,-666,172,-270,69
46,417.3300669999662,8,3833,-1804,-689,206,-222,27
47,426.3199820002228,8,3785,-1689,-660,504,-193,20
48,435.17189900012454,8,3701,-1619,-662,293,-162,20
49,444.1288150001128,8,3652,-1553,-653,330,-121,22
50,452.84573199978695,8,3592,-1498,-635,376,-96,31
51,461.74164900003234,8,3527,-1426,-603,407,-84,46
52,470.62856499996997,8,3472,-1667,-200,597,-84,65
53,479.5104810000339,8,3447,-1394,-525,535,-111,87
54,488.46839699990596,8,3392,-1376,-600,485,-78,146
55,497.41631300003064,8,3325,-1379,-562,495,-88,153
56,506.2902290001148,8,3292,-1423,-594,532,-98,184
57,514.9501470000359,8,3267,-1455,-553,531,-104,218
58,523.875063000105,8,3237,-1487,-544,546,-144,260
59,532.7839790002145,8,3240,-1540,-552,272,-175,310
60,541.683895999995,8,3158,-1549,-521,469,-217,315
61,550.618810999822,8,3106,-1584,-540,427,-288,315
62,559.5377270001336,8,3071,-1567,-509,355,-330,306
63,568.4646429999702,8,2989,-1544,-514,310,-400,302
64,577.3325599998316,8,2900,-1503,-545,263,-485,299
65,586.2364760000673,8,2880,-1411,-594,220,-580,311
66,595.1693920001162,8,2881,-1318,-686,164,-679,390
67,604.0223079999123,8,2890,-1286,-759,59,-1014,503
68,612.8762250000364,8,2868,-1302,-872,-40,-833,623
69,621.6911420001452,8,2847,-1313,-1276,-179,-871,695
70,630.6000579997999,8,2836,-1321,-1065,-296,-890,745
71,639.4539739999345,8,2828,-1344,-1191,-375,-924,786
72,648.3438909999677,8,2817,-1495,-1309,-421,-954,816
73,657.220807000158,8,2847,-1680,-1421,-430,-954,811
74,666.1197230000653,8,2957,-1792,-1521,-436,-947,785
75,674.9596399999973,8,3206,-1866,-1523,-483,-922,792
76,683.7975570001618,8,3694,-1975,-1512,-640,-915,850
77,692.7424720001909,8,3982,-2212,-1476,-813,-932,912
78,701.5623890001734,8,4233,-2457,-1441,-948,-912,914
79,710.5703040001572,9,4773,-2994,-1426,-1040,-837,836
80,719.4012210002256,8,5022,-3080,-1391,-1061,-677,711
81,728.3751370000573,8,5512,-3492,-1030,-1061,-560,556
82,737.2190529999898,8,5969,-3766,-1173,-1065,-498,339
83,746.1859690001802,8,6503,-4111,-1105,-1120,-476,175
84,755.1398850000623,8,6716,-4107,-1397,-1235,-469,-58
85,764.1198000001168,8,6839,-4138,-1588,-1383,-431,-398
86,772.9557170000589,8,6748,-3966,-1898,-1456,-315,-642
87,781.8956320002144,8,6531,-3355,-2190,-1361,-169,-827
88,790.7695489998332,8,6240,-3223,-2437,-1154,94,-957
89,799.6304650000639,8,5936,-2852,-2595,-591,389,-1107
90,808.4193830000004,8,5576,-2487,-2575,-260,699,-1186
91,817.1683000000485,8,5168,-1864,-2411,-172,1265,-1235
92,826.2012149998554,9,4861,-1606,-1870,10,1343,-1248
93,835.0521319998734,8,4580,-1151,-1547,79,1543,-1171
94,843.9070479998918,8,4293,-846,-1186,138,1648,-1094
95,852.9249630000777,9,3890,-262,-814,185,1677,-1001
96,861.8298790001973,8,3510,-198,-454,135,1687,-919
97,870.7057960000384,8,3208,42,-4,83,1638,-879
98,879.5697119999204,8,2897,280,219,58,1297,-873
99,888.4686279998277,8,2549,539,469,37,1448,-844
100,897.3885440000231,8,2374,932,628,104,1296,-525
101,906.2704610000765,8,2058,1144,751,211,1205,-607
102,915.0923779998266,8,2163,1322,842,326,1086,-415
103,923.9342939999915,8,2108,1344,888,462,942,-179
104,932.7912110002217,8,2078,1222,861,524,728,69
105,941.6681269999572,8,1954,1020,711,266,537,382
106,950.5110439999953,8,1551,687,557,468,409,553
107,959.2279620001136,8,1655,424,440,397,353,653
108,967.9238799999439,8,1535,223,379,360,311,724
109,976.705796999795,8,1406,49,371,369,223,796
110,985.5337140002121,8,1315,-54,284,414,133,884
111,994.3226310001592,8,1227,-190,225,484,27,983
112,1003.0625489998783,8,1207,-271,97,546,-81,1102
113,1011.9684649998817,8,1139,-455,23,569,-213,1228
114,1020.7293819998995,8,1093,-675,-38,518,-391,1378
115,1029.634298000019,8,775,-935,-199,392,-543,1580
116,1038.51421499985,8,872,-1131,-344,135,-695,1711
117,1047.3551320001206,8,722,-1396,-557,-100,-807,1827
118,1056.2790469998617,8,585,-1825,-1010,-322,-883,1897
119,1065.0949639998544,8,452,-2089,-1006,-477,-933,1904
120,1073.928881000029,8,391,-2283,-1244,-475,-989,1874
121,1082.8787969999212,8,416,-2400,-1477,-328,-1042,1837
122,1091.7297129999497,8,444,-2707,-1601,-9,-1087,1822
123,1100.70062900013,8,587,-2709,-1997,192,-1112,1871
124,1109.5765449999817,8,558,-2934,-2122,284,-1079,1987
125,1118.4854610000912,8,543,-3333,-2507,307,-1084,2103
126,1127.400376999958,8,580,-3879,-2472,206,-1092,2176
127,1136.3322930001232,8,1016,-4371,-2727,-247,-1045,2082
128,1145.217209999828,8,971,-4887,-3097,-192,-970,1919
129,1153.8451279998299,8,842,-5336,-3195,-144,-872,1785
130,1163.1150409998554,9,1271,-5670,-3520,229,-736,1608
131,1172.0309570000609,8,1212,-6116,-3692,258,-577,1509
132,1180.884874000185,8,1420,-6634,-3614,661,-428,1335
133,1189.7767899999963,8,1565,-6687,-3099,906,-209,1175
134,1198.6977060000754,8,1806,-6827,-2757,862,-42,971
135,1207.635621999998,8,2094,-6784,-2205,493,-31,855
136,1216.9575339999028,9,2424,-6497,-1779,42,-184,524
137,1225.8124499999212,8,2566,-6252,-1554,-626,-423,680
138,1237.7203380001447,11,2661,-5866,-1702,-889,-624,587
139,1246.5902550002284,8,2708,-5497,-1920,-904,-707,405
140,1255.4851710001458,8,2752,-5100,-2314,-703,-712,286
141,1264.4240859999627,8,2908,-4610,-2507,-315,-612,187
142,1273.1820039998638,8,2878,-4554,-2600,-37,-431,104
143,1282.0309210001142,8,3036,-4529,-2488,223,-143,133
144,1290.8478379999906,8,3324,-4409,-2029,197,126,186
145,1299.6767539998473,8,3336,-4555,-1647,179,219,211
146,1308.4966709998298,8,3584,-4842,-1372,30,164,221
147,1317.3345879999943,8,3665,-4662,-1174,-244,17,212
148,1326.2055049999617,8,3719,-4682,-1165,-765,-153,113
149,1335.0124220000907,8,4065,-4658,-1362,-677,-265,-21
150,1343.8293389999671,8,3906,-4580,-1469,-707,-249,-174
151,1352.715255000021,8,4227,-4258,-1487,-615,-120,-235
152,1361.6751710001154,8,4462,-4235,-1464,-271,-52,-152
153,1370.5720869998004,8,4665,-4508,-1417,-506,253,-82
154,1379.4120030001977,8,4918,-5091,-1505,-598,18,-108
155,1388.3469190000142,8,4938,-5201,-1582,-743,7,-488
156,1397.201836000022,8,5357,-5263,-1801,-901,17,-497
157,1406.1867509999502,8,5104,-5046,-2019,-921,14,-754
158,1415.0326680000944,8,5183,-4475,-2209,-785,95,-1236
159,1423.8585849998344,8,5037,-4153,-2236,-563,348,-1140
160,1432.8405000001112,8,4677,-3971,-2123,-24,615,-1261
161,1441.7184170001747,8,4841,-3520,-1827,6,902,-1365
162,1450.6403330001376,8,4695,-3218,-1503,124,1168,-1440
163,1459.5472490000247,8,4516,-3087,-1224,139,1251,-1527
164,1468.3711659999972,8,4261,-2957,-952,42,1347,-1654
165,1477.2040829998332,8,3976,-2719,-750,-151,1436,-1802
166,1486.1089989999527,8,3675,-2137,-430,-298,1551,-1940
167,1494.971914999951,8,3487,-1820,-157,-435,1635,-2052
168,1503.862831999868,8,3268,-1367,175,-503,1665,-2095
169,1512.7557480000178,8,3153,-894,407,-493,1640,-2043
170,1522.3716569998942,9,3019,-439,622,-451,1551,-1906
171,1531.6345699998237,9,2890,-202,740,-353,1464,-1771
172,1540.9844820001126,9,2755,-13,824,-7,1370,-1624
173,1550.1693950000117,9,2652,94,891,-155,1293,-1517
174,1559.5443070001238,9,2551,176,941,-65,1227,-1392
175,1568.72722099979,9,2418,232,1094,253,1208,-1327
176,1577.9211340000074,9,2350,361,1388,60,1186,-1280
177,1587.1570469998915,9,2296,613,1648,99,1049,-1183
178,1596.4249600001494,9,2273,825,1768,122,862,-803
179,1605.64787300018,9,2244,958,1783,111,595,-840
180,1615.4757809999865,9,1929,1045,1818,64,363,-677
181,1624.4226959997832,8,2232,1045,1321,92,146,-431
182,1632.9976160000115,8,1998,1011,1440,87,-43,-13
183,1641.8705320002118,8,1903,855,1105,-244,-232,240
184,1650.7044489999316,8,1610,369,859,-44,-408,338
185,1659.6233649997885,8,1389,184,650,-20,-540,345
186,1668.5362809998878,8,1213,-6,413,30,-659,426
187,1677.3931970001286,8,1039,-299,21,142,-792,528
188,1686.3401129999147,8,818,-379,-134,322,-889,584
189,1695.1730300002055,8,634,-537,-420,481,-972,645
190,1704.032947000087,8,695,-758,-735,624,-1074,889
191,1712.957863000156,8,263,-1121,-942,651,-1171,1124
192,1721.785779000129,8,331,-1553,-1343,498,-1187,1269
193,1730.7496950002133,8,336,-2275,-1639,387,-1234,1289
194,1739.529611999842,8,184,-2599,-1847,321,-1242,1235
195,1748.3695290002288,8,258,-2886,-2272,311,-1219,1179
196,1757.1894460002113,8,295,-3125,-2646,464,-1213,1125
197,1766.0783619999165,8,417,-3560,-2893,668,-1115,1061
198,1774.942278999788,8,657,-3545,-3076,870,-999,1058
199,1783.6721970002145,8,1251,-3927,-3158,929,-958,1225
200,1792.4791139998888,8,1088,-4392,-3128,682,-955,1354
201,1801.3920299999882,8,1291,-5118,-3110,277,-902,1360
202,1810.2249469998242,8,1430,-5137,-3161,-160,-899,1241
203,1819.1158630002064,8,1574,-5095,-3179,-745,-922,1042
204,1827.9677800001082,8,1731,-4915,-3193,-663,-896,882
205,1836.850696000056,8,2021,-4430,-3224,-573,-835,530
206,1845.7696119999127,8,2424,-4304,-3312,-320,-753,718
207,1854.6595279999565,8,2807,-4283,-3252,73,-553,757
208,1863.5484440001164,8,3029,-4320,-3002,545,-29,809
209,1872.390360999816,8,3097,-4480,-2737,744,238,876
210,1881.3132770001175,8,3278,-4859,-2919,960,92,797
211,1890.2281929999845,8,3472,-5111,-2296,846,42,728
212,1899.1401090002,8,3591,-5181,-1874,644,43,642
213,1907.9930259999855,8,3628,-5270,-1674,448,-212,280
214,1916.9369420001203,8,3793,-5222,-1710,257,-362,392
215,1925.8038580001084,8,3983,-4998,-1727,137,-373,229
216,1934.7117739998794,8,4076,-4755,-1904,52,-391,157
217,1943.592691000049,8,4127,-4719,-1975,47,-337,87
218,1952.425607999885,8,4199,-4614,-2011,150,-232,16
219,1961.4695219997884,9,4481,-4427,-1943,279,-104,-58
220,1970.3344389999984,8,4229,-4477,-1859,461,27,-79
221,1979.1673559998344,8,4298,-4100,-1713,578,188,-147
222,1987.9742729999634,8,4268,-4269,-1471,604,279,-208
223,1996.9201889998658,8,4245,-4231,-1256,555,285,-264
224,2005.808105000142,8,4294,-4209,-1117,413,276,-325
225,2014.7420210000746,8,4298,-4155,-1083,290,276,-424
226,2023.5429379999914,8,4255,-4174,-1048,206,336,-581
227,2032.403854000222,8,4230,-4017,-963,203,420,-717
228,2041.3307700000587,8,4283,-3729,-873,337,491,-814
229,2050.147686999935,8,4290,-3434,-524,480,584,-833
230,2059.130603000085,8,4323,-3494,-729,560,657,-864
231,2067.9505200000676,8,4238,-3498,-578,609,690,-874
232,2076.9464350000817,8,4205,-3559,-453,540,721,-929
233,2085.7223520001753,8,4290,-3595,-351,415,733,-993
234,2094.52126899987,8,4270,-3473,-339,294,694,-1079
235,2103.304187000049,8,4224,-3059,58,186,670,-1090
236,2112.096104000102,8,3879,-3420,-289,195,608,-1190
237,2120.8720210001957,8,3811,-3238,-209,96,542,-1510
238,2129.7939370001586,8,3765,-3170,-239,210,634,-1659
239,2138.565854999797,8,3416,-2738,-111,324,654,-1764
240,2147.4677709998105,8,3437,-2377,-3,335,658,-1824
241,2156.321686999945,8,3629,-1834,-1,366,624,-1776
242,2165.1666040002056,8,3533,-1738,61,264,543,-1710
243,2174.0635199998906,8,3394,-1674,14,133,519,-1642
244,2182.859437999923,8,3404,-1257,4,-4,521,-1672
245,2191.6213549998247,8,3261,-985,55,-126,553,-1666
246,2200.7532689999607,9,3155,-577,91,-175,609,-1636
247,2209.5831860001454,8,3032,-299,207,-232,652,-1571
248,2219.224094999845,9,2944,-128,207,-257,685,-1281
249,2228.103010999803,8,2878,7,362,-232,670,-1494
250,2237.0129279997855,8,2581,91,567,-180,653,-1464
251,2245.8978439999555,8,2748,278,822,-111,635,-1457
252,2254.795759999979,8,2855,613,1083,-106,592,-1452
253,2263.7516760000835,8,2858,998,1500,-106,467,-1376
254,2272.4985929999093,8,2976,1500,1376,-102,278,-1102
255,2283.3764910001264,10,2993,1447,1295,-63,83,-857
256,2292.3454070000844,8,2915,1408,830,35,-144,-590
257,2301.2623230001736,8,2715,1195,605,132,-283,-287
258,2310.1622389999648,8,2522,898,555,189,-367,-99
259,2318.96815600021,8,2083,627,382,228,-450,32
260,2328.5800650000965,9,2048,322,219,260,-517,168
261,2337.8779780000514,9,1874,108,58,237,-600,278
262,2347.1838899999966,9,1753,-174,-71,216,-723,454
263,2356.471803000204,9,1676,-708,-366,122,-809,603
264,2365.6737159999466,9,1582,-860,-629,22,-929,780
265,2374.903629000073,9,1427,-1189,-920,-110,-964,941
266,2384.172542000215,9,1335,-1741,-1174,-256,-950,999
267,2393.3754559998306,9,1302,-1865,-1447,-297,-928,1051
268,2402.6083690000632,9,1189,-2050,-1550,-244,-851,1072
269,2411.865280999791,9,1189,-2171,-1591,-158,-745,1058
270,2420.9221959999923,9,1253,-2257,-1686,61,-728,1089
271,2430.6681050002226,9,1297,-2403,-1721,189,-723,1146
272,2439.513021000039,8,1405,-2644,-1891,510,-718,1257
273,2448.448937000194,8,1765,-3580,-2056,273,-735,1365
274,2457.314853999833,8,1437,-3729,-2166,202,-725,1392
275,2466.239769999902,8,1561,-3883,-2287,112,-597,1037
276,2475.1866850001534,8,1688,-4030,-2149,-15,-562,1183
277,2484.046602000035,8,1855,-4106,-1989,-42,-489,1200
278,2492.6775210001324,8,1975,-4038,-1948,-33,-378,1200
279,2501.4414379998016,8,2208,-3916,-1847,25,-342,1132
280,2510.2103559997886,8,2343,-3938,-1719,110,-350,1113
281,2519.045272999847,8,2430,-4051,-1598,150,-401,1131
282,2527.8261899998142,8,2542,-4137,-1495,166,-429,1108
283,2536.567107999872,8,2691,-4103,-1388,125,-466,1061
284,2545.4610239999056,8,2860,-4092,-1297,52,-582,1016
285,2554.2019419999633,8,2991,-4048,-1409,-92,-728,966
286,2563.021858999946,8,3105,-4057,-1640,-498,-837,888
287,2571.9217750001917,8,3407,-4055,-1941,-325,-820,797
288,2580.7446919998256,8,3687,-4064,-2134,-274,-750,759
289,2589.532608999889,8,3987,-4191,-2839,-124,-650,752
290,2598.4175260000484,8,4128,-4346,-2638,239,-530,729
291,2607.258441999875,8,4520,-4859,-2470,203,-302,641
292,2616.218357999969,8,4691,-4805,-2362,336,-182,258
293,2625.0452750000477,8,4871,-4985,-2259,364,-139,371
294,2633.834191999995,8,4998,-4924,-2110,321,-77,168
295,2642.7651079998213,8,5218,-4857,-1921,262,22,20
296,2651.551025000117,8,5300,-4590,-1693,202,168,-100
297,2660.4869409998173,8,5404,-4412,-1495,209,288,-195
298,2669.3438580000475,8,5411,-4229,-1274,301,413,-337
299,2678.1807749998734,8,5438,-3847,-1166,476,528,-466
300,2687.078690999897,8,5291,-3976,-1039,585,620,-590
301,2695.9266079998088,8,4630,-3744,-959,744,675,-991
302,2704.8705239999435,8,4932,-3820,-640,761,849,-935
303,2713.6844410001686,8,5017,-3571,-424,515,940,-1056
304,2722.486357999969,8,4811,-3393,-286,714,940,-1122
305,2731.3982740001848,8,4608,-3235,-167,640,942,-1212
306,2740.216190999945,8,4110,-3097,-7,567,966,-1369
307,2749.137107000024,8,4188,-2865,46,505,972,-1486
308,2758.3560200000647,9,3953,-2734,84,500,921,-1785
309,2767.209937000189,8,3821,-2459,119,486,871,-1608
310,2776.263851999829,9,3675,-2254,77,459,815,-1685
311,2785.0877689998015,8,3512,-2039,10,401,749,-1750
312,2793.920685000103,8,3381,-1751,-37,308,707,-1789
313,2802.884601000187,8,3237,-1493,-95,234,708,-1803
314,2811.731518000215,8,3130,-1290,-130,197,714,-1784
315,2820.5834340001275,8,2972,-1130,-104,180,739,-1744
316,2829.3893519999074,8,2850,-920,-37,189,799,-1714
317,2838.162268999895,8,2723,-741,91,197,847,-1686
318,2847.033184999873,8,2661,-555,338,189,881,-1660
319,2855.7741029999306,8,2650,-66,630,153,891,-1612
320,2864.5500210000137,8,2589,252,879,58,825,-1559
321,2873.345938000057,8,2623,260,982,-9,675,-1455
322,2882.1048549998523,8,2688,436,997,-67,547,-1264
323,2890.9447719997843,8,2650,489,946,-105,413,-1081
324,2899.7896890000447,8,2584,759,877,-135,305,-933
325,2908.6016060000475,8,2591,506,788,-137,205,-835
326,2917.5375220002024,8,2587,610,762,-125,139,-722
327,2926.3854390001143,8,2652,708,708,-115,89,-603
328,2935.213355000087,8,2728,727,639,-23,24,-434
329,2944.130272000166,8,2700,721,612,57,-28,-25
330,2952.9571879998,8,2744,551,542,128,-80,-115
331,2961.894103999839,8,2713,423,394,206,-163,20
332,2970.7610209998165,8,2704,295,241,273,-267,178
333,2979.6389369998906,8,2595,-239,78,284,-356,335
334,2988.54385300001,8,2514,-357,-31,289,-397,480
335,2997.3557710000023,8,2455,-604,-196,10,-437,576
336,3006.2296870000864,8,2327,-825,-284,188,-482,652
337,3015.0556039998264,8,2259,-1260,-382,86,-520,717
338,3023.9095209999505,8,2200,-1218,-528,9,-593,815
339,3032.9014359999746,8,2121,-1396,-703,-62,-643,897
340,3041.793351999786,8,2013,-1551,-827,-138,-659,964
341,3050.735268000153,8,1962,-1808,-894,-208,-645,1013
342,3059.598185000141,8,1939,-1972,-970,-296,-626,1039
343,3068.5401010000533,8,1968,-2089,-959,-380,-608,1060
344,3077.4580170000263,8,2058,-2075,-952,-495,-620,1078
345,3086.3199330001407,8,2124,-2106,-968,-555,-676,1129
346,3095.2038499999617,8,2187,-2126,-999,-605,-703,1186
347,3104.1537649998645,8,2219,-2147,-1033,-625,-729,1223
348,3113.0126819998623,8,2315,-2156,-1088,-605,-736,1282
349,3121.9435980001435,8,2331,-2165,-1152,-577,-735,1387
350,3131.602507000025,9,2410,-2527,-1268,-541,-753,1403
351,3140.988419000223,9,2612,-2717,-1218,-268,-792,1416
352,3150.2013320000515,9,2597,-2925,-1212,-420,-767,1457
353,3159.41424499988,9,2657,-3343,-1384,-296,-686,1282
354,3168.6881579998953,9,2656,-3507,-1467,-210,-665,1424
355,3177.9660709999007,9,2731,-3721,-1480,-116,-592,1043
356,3187.238983000043,9,2784,-3826,-1419,-70,-572,1223
357,3196.5468960002,9,2956,-3855,-1273,-4,-574,1211
358,3205.716809000023,9,3054,-3905,-1413,0,-573,1163
359,3215.783714999816,10,3100,-3935,-1412,-74,-581,1119
360,3225.6136219998552,9,3120,-3896,-1491,-205,-597,1057
361,3234.440538999934,8,3068,-3752,-1489,-491,-706,1006
362,3243.3564550001392,8,3185,-3700,-1645,-597,-684,944
363,3252.165372000036,8,3197,-3677,-1670,-603,-643,853
364,3261.093288000211,8,3283,-3605,-1734,-530,-586,805
365,3270.0182039998253,8,3410,-3523,-1695,-422,-460,817
366,3278.9061200001015,8,3569,-3419,-1703,-340,-366,834
367,3287.8360360000443,8,3634,-3562,-1635,-19,-272,838
368,3296.702953000022,8,3803,-3729,-1539,-164,-173,828
369,3305.6658690002223,8,3920,-3950,-1446,-70,-78,805
370,3314.5257850001144,8,4032,-4116,-1393,3,-51,741
371,3323.342701999991,8,4117,-4300,-1389,27,-43,654
372,3332.175618999827,8,4228,-4441,-1450,-7,-48,535
373,3341.024536000077,8,4290,-4533,-1494,-42,-26,387
374,3349.9234519999845,8,4303,-4571,-1505,-42,22,204
375,3358.8133690000177,8,4395,-4571,-1430,-22,125,59
376,3367.705284999829,8,4485,-4579,-1370,39,507,-43
377,3376.7022000001816,8,4535,-4494,-1193,113,393,-143
378,3385.6111159998363,8,4554,-4426,-941,158,488,-289
379,3394.4610329999705,8,4559,-4281,-780,186,565,-441
380,3403.2859499998267,8,4610,-4152,-680,207,605,-586
381,3412.149867000153,8,4553,-3956,-579,183,628,-720
382,3420.985784000095,8,4503,-3806,-580,160,657,-873
383,3429.9656990001495,8,4404,-3656,-548,138,711,-1017
384,3438.803615999859,8,4255,-3360,-485,79,803,-1123
385,3447.7315320000343,8,4193,-3147,-449,77,878,-1191
386,3456.5534489997845,8,4147,-3000,-398,56,926,-1245
387,3465.440365000177,8,4036,-2893,-341,68,973,-1283
388,3474.376280999877,8,3927,-2746,-356,71,990,-1336
389,3483.1281990000207,8,3785,-2588,-344,69,999,-1392
390,3492.027114999928,8,3660,-2422,-375,38,1021,-1440
391,3500.792032999925,8,3348,-2196,-368,15,1023,-1460
392,3509.4469509999726,8,3438,-2114,-385,-24,1025,-1485
393,3518.1408700000247,8,3131,-1681,-404,-50,1035,-1536
394,3527.0227860000887,8,3330,-1824,-313,-41,1072,-1786
395,3535.795703000076,8,3094,-1526,-74,-27,1102,-1555
396,3544.746618999852,8,3112,-1421,-222,-14,1135,-1524
397,3553.5185369999454,8,3028,-1252,-89,30,1139,-1474
398,3562.337454000044,8,3037,-1187,10,69,1113,-1388
399,3571.220369999992,8,2914,-1015,80,61,1050,-1351
400,3580.06328700003,8,2866,-999,163,44,1000,-1317
401,3589.0042030000586,8,2749,-929,269,-18,962,-1318
402,3597.843120000107,8,2658,-526,470,-80,919,-1325
403,3606.6600369999833,8,2681,-589,653,-159,856,-1303
404,3615.5709529998603,8,2652,-419,845,-227,756,-1226
405,3624.4288699999743,8,2591,-329,903,-312,635,-1139
406,3633.322786000008,8,2559,-196,978,-356,264,-775
407,3642.192702000102,8,2585,-82,990,-372,356,-914
408,3651.018618999842,8,2616,-41,891,-365,186,-730
409,3659.9935350000123,8,2524,-70,756,-307,-248,-578
410,3668.8474520001364,8,2424,-173,591,-269,-124,-473
411,3677.8393670001606,8,2296,-378,461,-247,-181,-425
412,3686.674284000219,8,2180,-445,417,-220,-238,-391
413,3695.6191999997827,8,2052,-374,513,-250,-310,-368
414,3704.507116000059,8,2091,-221,529,-275,-430,-300
415,3713.3630329999505,8,2058,-68,457,-265,-597,-176
416,3722.183949999817,8,2128,-8,201,-203,-758,11
417,3731.072865999977,8,2165,-60,-88,-8,-916,217
418,3739.993782000056,8,2142,-473,-313,141,-997,433
419,3748.84369900019,8,2142,-718,-542,246,-1002,675
420,3757.7706150000267,8,2099,-1097,-762,308,-994,864
421,3766.594531999999,8,2086,-1455,-862,245,-933,1009
422,3775.6364470001245,9,2172,-1862,-967,141,-891,1103
423,3784.455364000223,8,2198,-2147,-982,16,-912,1173
424,3793.3232810000845,8,2191,-2315,-1060,-92,-951,1163
425,3802.1651969997947,8,2284,-2374,-1291,-100,-1004,1154
426,3810.9951139999794,8,2276,-2396,-1753,5,-1018,1172
427,3819.9280300000282,8,2322,-2550,-1681,171,-930,1228
428,3828.7419469997985,8,2379,-2867,-1909,398,-842,1309
429,3837.6098640001146,8,2285,-2868,-1884,607,-740,1372
430,3846.4397809998445,8,2741,-3386,-1965,587,-595,1343
431,3855.2136980001706,8,2618,-4029,-2021,544,-525,1337
432,3864.0836149997995,8,2657,-4259,-1574,378,-440,1363
433,3872.878531999959,8,3022,-4200,-1553,146,-390,1316
434,3881.7044490001535,8,2833,-3845,-1427,-130,-452,1187
435,3890.624364999894,8,2842,-3899,-1431,-279,-589,786
436,3899.4342820001293,8,2875,-3692,-1573,-306,-642,958
437,3908.379198000148,8,2923,-3499,-1768,-214,-568,948
438,3917.289114000141,8,2951,-3436,-1857,15,-409,936
439,3926.2160299999778,8,2940,-3411,-1609,113,-274,936
440,3935.500943000079,9,2823,-3572,-1558,379,-83,897
441,3944.858854999893,9,3087,-3653,-1076,554,34,858
442,3954.1827670000202,9,3169,-3716,-1042,603,84,799
443,3963.4286800001064,9,3186,-3722,-845,552,101,750
444,3972.612594000111,9,3243,-3650,-705,399,2,688
445,3981.948506000208,9,3241,-3599,-696,140,-202,630
446,3991.17441899989,9,3215,-3565,-884,-58,-344,533
447,4000.356333000127,9,3167,-3537,-1185,-213,-404,445
448,4009.674245000042,9,3165,-3431,-1385,-234,-312,373
449,4018.7691589999304,9,3178,-3341,-1465,-147,-177,319
450,4027.9380729998593,9,3303,-3307,-1362,86,45,311
451,4037.724980999883,9,3394,-3406,-1123,273,204,354
452,4046.574898000017,8,3514,-3497,-866,478,301,361
453,4055.5248139999094,8,3717,-3620,-598,524,372,326
454,4064.350731000104,8,3980,-3779,-331,433,326,318
455,4073.1686479998643,8,4178,-3992,-29,172,205,312
456,4082.122563000212,8,4445,-4032,-111,-197,-242,221
457,4090.9754799999973,8,4492,-4005,-387,-382,-293,117
458,4099.916396000026,8,4634,-3988,-809,-427,-362,-78
459,4108.78631300011,8,4781,-3942,-1186,-311,-229,-178
460,4117.6652290000675,8,4918,-3796,-1306,-42,-47,-199
461,4126.610145000086,8,4942,-3843,-1259,184,218,-203
462,4135.531061000165,8,5028,-3938,-996,369,459,-262
463,4144.418976999987,8,5090,-4052,-707,493,614,-319
464,4153.243893999843,8,4866,-3857,-284,515,622,-397
465,4162.182810000104,8,5076,-4138,-231,408,679,-523
466,4171.044727000208,8,4674,-4108,-11,210,689,-731
467,4180.032641999787,8,4709,-3940,89,-226,619,-945
468,4188.914558999841,8,4465,-3648,34,-128,535,-1148
469,4197.787475000041,8,4255,-3236,-4,-173,460,-1307
470,4206.623391999983,8,4324,-2976,-135,-171,481,-1471
471,4216.262300999915,9,4152,-2975,-63,-73,588,-1439
472,4225.099218000196,8,3656,-2047,-453,69,707,-1540
473,4233.887135999794,8,3344,-1950,-221,47,765,-1641
474,4242.827050999949,8,3474,-1552,-55,167,832,-1646
475,4251.606969000022,8,3071,-1374,41,144,830,-1674
476,4260.772882999845,9,3093,-1305,162,90,855,-1632
477,4269.462800999918,8,2882,-1201,319,69,789,-1516
478,4278.2527180002035,8,2923,-579,289,-55,717,-1447
479,4287.109634999979,8,2835,-587,354,-219,641,-1374
480,4295.920552000098,8,2802,-441,334,-342,497,-1265
481,4304.771469000116,8,2828,-381,268,-452,380,-1098
482,4313.568386000043,8,2805,-349,181,-765,333,-951
483,4322.346302999904,8,2798,-354,151,-468,311,-813
484,4331.284218999826,8,2794,-309,83,-366,270,-715
485,4340.090137000061,8,2714,-422,119,-254,311,-619
486,4348.876053999902,8,2661,-470,220,-175,386,-589
487,4357.793969999875,8,2565,-669,425,-94,470,-608
488,4366.5958870001305,8,2520,-642,722,-63,540,-690
489,4375.544803000139,8,2629,-561,1057,-76,520,-760
490,4384.417719999874,8,2676,-392,1282,-119,331,-735
491,4393.250637000165,8,2626,-329,1358,-184,-216,-639
492,4402.24155199985,8,2626,-325,1254,-269,-268,-537
493,4411.187468000207,8,2512,-366,917,-339,-492,-468
494,4420.032385000013,8,2535,-371,664,-354,-623,-432
495,4428.93530099991,8,2513,-319,386,-316,-704,-364
496,4437.7782179999485,8,2586,-313,187,-256,-767,-15
497,4446.7471339999065,8,2657,-336,-234,-167,-791,-160
498,4455.631050000193,8,2715,-362,-87,-97,-838,-62
499,4464.492966999842,8,2752,-434,-145,-64,-859,25
500,4473.398882999845,8,2845,-591,-478,-94,-926,147
501,4482.267800000045,8,2846,-738,-403,-150,-1030,321
502,4491.23971500012,8,2795,-887,-604,-197,-1137,428
503,4500.093631999789,8,2695,-1041,-834,-195,-1201,513
504,4508.92254900009,8,2576,-1273,-1088,-133,-1220,562
505,4518.004463000125,9,2531,-1477,-1383,226,-1210,641
506,4526.904379999905,8,2420,-1690,-1539,84,-1193,737
507,4535.639298000206,8,2414,-1928,-1729,182,-1161,832
508,4544.505213999855,8,2393,-2199,-1914,222,-1110,934
509,4553.28713200015,8,2350,-2432,-2022,217,-1054,1040
510,4562.13704799984,8,2289,-2619,-2041,166,-944,1076
511,4570.9579650001615,8,2355,-2747,-2052,91,-546,1093
512,4579.919881000023,8,2329,-2932,-1945,49,-631,1120
513,4588.808798000173,8,2406,-3072,-1665,-4,-515,1159
514,4597.977711000112,9,2345,-2821,-1476,-156,-545,1183
515,4606.904626999949,8,2621,-3221,-1478,-310,-518,1127
516,4615.652545000103,8,2595,-3195,-1389,-421,-547,1076
517,4624.42546300008,8,2654,-3108,-1475,-467,-697,1060
518,4633.238379999966,8,2708,-3065,-1624,-764,-816,1066
519,4642.099296000197,8,2682,-3095,-1856,-529,-856,1064
520,4650.8332140001585,8,2685,-3205,-2280,-546,-823,1015
521,4659.726130999843,8,2652,-3218,-2131,-536,-777,896
522,4668.484048000209,8,2703,-3219,-2164,-509,-693,817
523,4677.355965000061,8,2896,-3169,-2211,-397,-604,767
524,4686.265881000054,8,2938,-3106,-2216,-262,-512,753
525,4695.088798000143,8,3023,-3077,-2152,-68,-414,756
526,4703.866715999993,8,3198,-3235,-2033,81,-278,716
527,4712.798632000158,8,3296,-3203,-1933,200,-205,734
528,4721.594549000201,8,3341,-3544,-1540,217,-173,706
529,4730.587464000109,8,3427,-3448,-1732,150,-181,606
530,4740.119375000177,9,3440,-3450,-1709,5,-260,284
531,4749.436287000208,9,3590,-3439,-1924,-102,-284,346
532,4758.711200000107,9,3659,-3543,-1942,-112,-246,231
533,4767.930113000148,9,3861,-3527,-2178,-1,-109,138
534,4777.210025999921,9,4314,-3617,-2154,487,28,102
535,4786.406938999789,9,4261,-4057,-1806,541,195,61
536,4795.665852000184,9,4479,-4021,-1876,686,319,3
537,4804.895765999845,9,4711,-4101,-1664,663,381,-79
538,4814.131679000184,9,4933,-4143,-1525,489,414,-168
539,4823.349591999886,9,5059,-4161,-1365,184,423,-248
540,4832.476506000148,9,5078,-4078,-1315,-88,397,-400
541,4842.20941500007,9,4985,-3919,-1365,-300,363,-549
542,4850.9873319999315,8,4928,-3787,-1419,-359,431,-673
543,4859.876249000081,8,4872,-3576,-1460,-346,603,-745
544,4868.677165999998,8,4677,-3416,-1287,-194,728,-827
545,4877.5490819998595,8,4383,-3379,-1162,-48,891,-891
546,4886.439998999776,8,4348,-3284,-956,86,996,-976
547,4895.198916000027,8,4198,-3056,-670,86,1108,-1107
548,4904.041833000065,8,4043,-2820,-433,2,1162,-1267
549,4912.917749999906,8,3885,-2484,-154,-108,1149,-1364
550,4921.688667000126,8,3706,-1852,-18,-234,1114,-1417
551,4930.603582999993,8,3535,-1749,17,-301,1051,-1442
552,4939.4225000000915,8,3373,-1378,32,-315,1006,-1450
553,4948.328417000084,8,3216,-1070,-9,-5,979,-1445
554,4957.240332999845,8,3098,-829,-58,-97,982,-1414
555,4966.110248999939,8,3047,-662,-37,94,1023,-1340
556,4974.958165999851,8,2951,-484,27,238,1070,-1276
557,4983.813082999859,8,2909,-453,143,362,1097,-1159
558,4992.774999000176,8,2809,-467,320,400,1056,-1055
559,5001.680915000179,8,2773,-437,447,355,978,-998
560,5010.642831000041,8,2738,-449,545,306,936,-957
561,5019.481748000089,8,2674,-394,682,252,879,-926
562,5028.423663000012,8,2646,-312,752,230,798,-877
563,5037.16858100006,8,2634,-9,793,230,705,-813
564,5045.86049999989,8,2627,-210,795,267,582,-731
565,5054.796415000055,8,2674,-236,769,276,462,-586
566,5063.645331999851,8,2658,-263,697,307,30,-450
567,5072.323250999943,8,2675,-391,591,337,99,-316
568,5082.355156000176,10,2632,-580,383,340,-1,-251
569,5091.338071999871,8,2619,-687,335,348,-45,-215
570,5100.185988999783,8,2701,-726,387,324,-77,-185
571,5109.134903999802,8,2749,-658,510,285,-165,-121
572,5118.0278209999415,8,2840,-627,512,218,-287,-46
573,5126.97273699996,8,2916,-673,508,129,-422,28
574,5135.781653999857,8,2976,-720,444,49,-561,113
575,5144.737569999961,8,3006,-744,269,21,-752,242
576,5153.531486999782,8,2941,-803,-3,3,-948,375
577,5162.419403000058,8,2849,-1049,-315,-7,-1121,761
578,5171.298320000005,8,2696,-1300,-628,-9,-1185,605
579,5180.1242370002,8,2604,-1515,-863,2,-1196,661
580,5189.082153000072,8,2426,-1700,-1011,-20,-1199,671
581,5197.879069999999,8,2360,-1843,-1147,-35,-1186,658
582,5206.657987000199,8,2353,-1966,-1513,-55,-1182,686
583,5216.177897999842,9,2326,-2290,-1441,-105,-1212,752
584,5225.007815000026,8,2273,-2107,-1586,-141,-1236,822
585,5233.801731999847,8,2232,-2258,-2031,-149,-1220,867
586,5242.726647999916,8,2198,-2350,-2012,-126,-1175,881
587,5251.500565999777,8,2159,-2428,-2145,-48,-1087,890
588,5260.325483000088,8,2192,-2510,-2161,61,-947,893
589,5269.184399000096,8,2193,-2570,-2109,137,-768,891
590,5278.024316000028,8,2261,-2555,-1926,200,-656,895
591,5287.042231000214,9,2547,-2590,-1737,207,-638,962
592,5295.87914800004,8,2438,-2574,-1667,170,-644,1007
593,5304.789065000023,8,2446,-2732,-1631,102,-683,1045
594,5313.449982999828,8,2427,-2772,-1691,37,-765,1024
595,5322.401898999942,8,2402,-2793,-1848,-46,-798,984
596,5331.4148139998,9,2364,-2735,-1930,-98,-802,949
597,5340.24773100009,8,2416,-2683,-1988,-96,-770,923
598,5349.1656470000635,8,2448,-2696,-1954,243,-695,916
599,5358.06456399996,8,2518,-2708,-1886,78,-607,910
600,5366.998479999893,8,2631,-2757,-1776,233,-533,920
601,5375.9393959999215,8,2765,-2814,-1615,333,-508,949
602,5384.88831199993,8,2843,-2927,-1454,357,-504,982
603,5393.755227999918,8,2945,-3158,-1358,322,-527,989
604,5402.761144000124,9,2992,-3290,-1438,226,-622,946
605,5411.653059999935,8,3033,-3379,-1565,134,-709,853
606,5420.599976000176,8,3281,-3536,-1852,55,-745,741
607,5429.474893000133,8,3140,-3509,-2104,62,-754,645
608,5438.411809000172,8,3275,-3662,-2311,155,-674,633
609,5447.365724000065,8,3464,-3764,-2453,302,-512,628
610,5456.270641000174,8,3650,-4021,-2433,463,-333,616
611,5465.100557999904,8,3866,-4232,-2282,589,-206,570
612,5474.040474000049,8,4100,-4518,-2134,586,-93,478
613,5482.8513910001675,8,4270,-4685,-1997,499,-61,303
614,5491.814306999913,8,4520,-4763,-1906,369,-81,156
615,5500.624224000148,8,4649,-4719,-1932,188,-134,12
616,5509.449141000005,8,4815,-4588,-2001,75,-121,-143
617,5518.378057000064,8,4872,-4526,-2107,53,-33,-308
618,5527.1889740001825,8,5033,-4418,-2160,146,86,-378
619,5535.948891999851,8,4966,-4454,-2108,324,494,-430
620,5544.573811000191,8,4974,-4476,-1905,438,492,-534
621,5553.650724999898,9,4879,-4364,-1545,505,637,-699
622,5562.904637999964,9,4770,-4186,-1242,440,742,-833
623,5572.101551999822,9,4628,-3977,-777,353,797,-980
624,5581.277465999847,9,4450,-3758,-810,247,809,-1115
625,5590.515378999953,9,4292,-3541,-521,160,806,-1507
626,5599.677292999786,9,4073,-3201,-751,122,811,-1400
627,5608.916205999776,9,3875,-2909,-720,101,865,-1488
628,5618.0971200001295,9,3676,-2501,-590,94,937,-1590
629,5627.31203300018,9,3340,-2127,-480,97,984,-1630
630,5636.510945999817,9,3397,-1610,-377,101,998,-1623
631,5646.3438539999515,9,3289,-1526,-181,71,1027,-1629
632,5655.207770999823,8,3214,-1043,-82,9,775,-1621
633,5664.077686999917,8,3175,-976,-11,-44,972,-1594
634,5672.847604999788,8,3086,-855,21,-76,939,-1508
635,5681.668522000109,8,3006,-668,13,-67,927,-1432
636,5690.633438000077,8,2968,-263,56,-59,912,-1361
637,5699.522353999782,8,2947,-415,25,9,881,-1273
638,5708.442269999978,8,2899,-323,55,88,861,-1177
639,5717.2681870001725,8,2905,-256,69,482,876,-1097
640,5726.207102999979,8,2982,-191,143,454,902,-978
641,5735.045020000143,8,2980,-145,266,665,922,-863
642,5744.046935999904,9,3003,-141,408,867,908,-703
643,5752.9098519999025,8,3011,-267,528,1067,862,-582
644,5761.774769000112,8,2957,-426,685,1119,792,-496
645,5770.728684999995,8,2896,-577,820,1102,657,-459
646,5779.588601999876,8,2864,-661,933,999,498,-444
647,5788.535517000128,8,2817,-688,994,769,321,-444
648,5797.467433999827,8,2748,-648,1013,562,78,-455
649,5806.351350000114,8,2746,-537,919,353,-94,-427
650,5815.367265000077,9,2712,-382,710,158,-259,-364
651,5824.241182000151,8,2681,-28,516,-22,-386,-276
652,5833.01709899979,8,2715,-186,23,-75,-473,-167
653,5842.0440149998285,9,2740,-198,-4,-55,-509,8
654,5850.8689320001395,8,2722,-236,-97,8,-537,142
655,5859.830847000012,8,2721,-394,-216,111,-520,232
656,5868.68976400001,8,2728,-608,-500,189,-506,306
657,5877.618680000069,8,2691,-715,-294,208,-546,390
658,5886.544596000022,8,2687,-809,-389,165,-633,461
659,5895.5135119999795,8,2640,-910,-523,37,-741,537
660,5904.348429000038,8,2593,-1040,-964,-70,-829,633
661,5913.209345999803,8,2511,-1150,-986,-166,-855,747
662,5922.084262000226,8,2438,-1285,-1245,-179,-853,827
663,5930.9801790000165,8,2361,-1743,-1512,-72,-816,917
664,5939.859094999974,8,2301,-1806,-1714,95,-699,984
665,5948.629012999845,8,2544,-2151,-1839,262,-577,1023
666,5957.546928999818,8,2298,-2551,-1795,369,-467,1034
667,5966.290846999982,8,2318,-2841,-1663,344,-372,984
668,5975.097764000111,8,2374,-3046,-1291,218,-307,918
669,5983.909681000114,8,2443,-3106,-1470,77,-289,877
670,5992.845596999814,8,2511,-3076,-1335,-58,-250,875
671,6001.662514000145,8,2610,-3011,-1239,-139,-213,888
672,6010.56342999982,8,2654,-3027,-1218,-117,-212,903
673,6019.360348000191,8,2653,-3128,-1190,-65,-217,878
674,6028.356263000205,8,2636,-3205,-1140,239,-192,811
675,6037.162179999996,8,2538,-3420,-1265,19,-217,771
676,6046.170095999969,9,2775,-3226,-1151,12,-264,739
677,6054.995012999825,8,2806,-3259,-993,-50,-265,719
678,6063.630931999796,8,2906,-3200,-880,-138,-322,677
679,6072.481847999825,8,2983,-3129,-887,-339,-408,656
680,6081.4127650000955,8,3080,-2999,-919,-524,-516,650
681,6090.281680999851,8,3187,-2990,-1139,-728,-661,668
682,6099.200597000163,8,3184,-3108,-1532,-876,-778,688
683,6108.068514000024,8,3212,-3213,-1907,-903,-785,631
684,6117.087429000094,9,3189,-3402,-2232,-784,-691,276
685,6125.946346000092,8,3230,-3355,-2400,-603,-535,417
686,6134.864262000065,8,3435,-3366,-2381,-405,-315,359
687,6143.807177999861,8,3606,-3414,-2269,-222,-115,373
688,6152.733093999814,8,3756,-3581,-2033,-145,74,376
689,6161.622010999963,8,3967,-3639,-1651,-89,179,337
690,6170.533927000179,8,4156,-3690,-1398,-83,213,297
691,6179.378843999984,8,4272,-3756,-1193,-160,200,236
692,6188.338759000089,8,4397,-3852,-1087,-242,153,137
693,6197.216676000153,8,4541,-3887,-1073,-320,99,10
694,6206.004593000216,8,4851,-3889,-1140,-385,47,-91
695,6214.903510000113,8,4724,-3877,-1507,-403,98,-174
696,6224.338421000084,9,4852,-3871,-1255,-380,232,-234
697,6233.16333799994,8,4876,-3753,-1092,-305,442,-283
698,6245.0792260001435,11,4899,-3735,-941,-249,539,-329
699,6253.873142999964,8,4893,-3699,-769,-210,620,-399
700,6262.817059000099,8,4799,-3663,-594,-180,683,-508
701,6271.616977000122,8,4678,-3556,-492,-165,712,-627
702,6280.510893000155,8,4606,-3346,-402,-170,724,-738
703,6289.3858100001125,8,4451,-3142,-334,-186,752,-861
704,6298.253725999984,8,4310,-2951,-368,-180,770,-926
705,6307.080643000063,8,4097,-2744,-320,-186,818,-989
706,6315.848561000166,8,3994,-2444,-197,-175,961,-1063
707,6324.766477000139,8,3593,-2164,-46,-134,1005,-1079
708,6333.618394000041,8,3742,-1937,26,-123,1015,-1059
709,6342.447310999887,8,3594,-1733,87,-129,1023,-1037
710,6352.120219999961,9,3421,-1563,183,-149,1021,-1059
711,6361.363132999941,9,3312,-1396,234,-167,991,-1068
712,6370.526047000112,9,3199,-1125,318,-173,941,-1079
713,6379.772960000082,9,3024,-1068,409,-147,915,-1056
714,6388.951874000213,9,2982,-860,437,-117,880,-1025
715,6398.211787000037,9,2899,-756,501,-90,837,-974
716,6407.448699999804,9,2867,-634,620,-76,776,-918
717,6416.651613999875,9,2806,-516,819,-72,713,-878
718,6425.878526999895,9,2825,-437,961,-79,646,-841
719,6435.057441000026,9,2734,-278,1056,-101,504,-793
720,6444.62035100014,9,2713,-184,1100,-140,326,-718
721,6453.774264999993,9,2692,-106,1074,-168,198,-617
722,6462.680180999996,8,2593,-43,989,-195,78,-498
723,6471.495099000094,8,2630,-25,895,-174,-16,-401
724,6480.315016000077,8,2631,-53,739,-59,-99,-9
725,6489.213931999984,8,2496,-68,591,59,-231,-143
726,6498.076848999972,8,2367,-254,367,201,-261,-11
727,6506.957765000152,8,2533,-579,264,348,-273,81
728,6515.82068200014,8,2516,-538,258,386,-311,85
729,6524.7395979999965,8,2445,-763,246,363,-430,90
730,6533.544515999893,8,2815,-760,209,364,-522,129
731,6542.43943199981,8,2607,-854,164,267,-623,247
732,6551.351348000026,8,2636,-824,102,162,-996,368
733,6560.208264999801,8,2667,-937,-36,82,-912,751
734,6569.080182000107,8,2580,-1063,-324,41,-1065,607
735,6577.849099000105,8,2539,-1242,-597,8,-1157,648
736,6586.676016000183,8,2570,-1382,-854,63,-1222,679
737,6595.726931000172,9,2443,-1664,-1152,132,-1321,731
738,6604.655846999776,8,2407,-1888,-1460,178,-1323,747
739,6613.550764000138,8,2410,-2102,-1700,188,-1251,744
740,6622.380680999868,8,2417,-2460,-1896,173,-1221,832
741,6631.369595999786,8,2367,-2634,-2014,113,-1159,900
742,6640.205513000183,8,2399,-2837,-2105,-2,-1065,951
743,6649.138430000221,8,2532,-2941,-2289,-55,-994,973
744,6658.02834599981,8,2378,-2917,-2360,-40,-912,980
745,6666.92126199996,8,2524,-3217,-2470,23,-828,984
746,6675.848178999786,8,2538,-3374,-2498,126,-705,968
747,6684.755095000128,8,2544,-3457,-2431,200,-577,918
748,6693.632010999863,8,2612,-3467,-2275,202,-488,855
749,6702.520928000013,8,2682,-3410,-2108,122,-462,788
750,6711.438843999986,8,2685,-3305,-1903,-252,-461,752
751,6720.255760999862,8,2771,-3149,-1768,-167,-451,717
752,6729.175678000047,8,2834,-2903,-1696,-274,-455,729
753,6737.95959500012,8,2848,-2722,-1698,-307,-490,777
754,6746.890510999947,8,2856,-2689,-1770,-284,-465,801
755,6755.663428999924,8,2855,-3047,-1687,-139,-409,876
756,6764.4493460002195,8,2910,-2599,-1819,70,-311,837
757,6773.232263999944,8,2881,-3119,-1750,64,-241,800
758,6782.068180999886,8,2910,-3169,-1770,138,-207,823
759,6790.871098000025,8,3295,-3280,-1706,108,-147,749
760,6799.834014000226,8,3144,-3509,-1571,52,-163,674
761,6808.669931000168,8,3315,-3438,-1453,-74,-190,604
762,6817.601846999878,8,3481,-3323,-1364,-260,-262,536
763,6826.426764000189,8,3596,-3113,-1422,-724,-388,531
764,6835.201680999944,8,3660,-3002,-1599,-710,-514,530
765,6844.144597000195,8,3686,-3166,-1793,-847,-562,510
766,6852.965514000061,8,3764,-3263,-2002,-907,-516,429
767,6861.849430999882,8,3943,-3397,-2146,-861,-436,385
768,6870.676347999961,8,4151,-3593,-2146,-733,-317,377
769,6879.542265000055,8,4362,-3971,-1807,-600,-165,366
770,6888.574179999978,9,4573,-4121,-1896,-422,-25,245
771,6897.481095999865,8,4840,-4345,-1758,-396,37,91
772,6906.339012999979,8,4707,-4308,-1695,-442,61,-82
773,6915.205929999956,8,4723,-4226,-1555,-503,20,-481
774,6924.124845999813,8,4803,-4097,-1551,-584,2,-404
775,6932.96076300021,8,4714,-4032,-1567,-614,29,-547
776,6941.816680000102,8,4730,-3883,-1588,-578,132,-678
777,6950.66359700013,8,4574,-3613,-1531,-515,286,-784
778,6959.592513000189,8,4525,-3329,-1421,-384,453,-900
779,6970.972405999873,11,4295,-3145,-1351,-176,558,-961
780,6980.022320999979,9,4132,-2924,-1197,-21,741,-1043
781,6988.856238000153,8,4007,-2717,-1042,119,853,-1128
782,6997.761153999818,8,3828,-2524,-895,196,903,-1173
783,7006.646070999977,8,3655,-2353,-736,214,963,-1221
784,7015.538987000127,8,3532,-2090,-575,173,990,-1257
785,7024.386904000039,8,3406,-1883,-443,98,971,-1257
786,7033.198821000042,8,3284,-1703,-384,-256,958,-1233
787,7042.116737000015,8,3123,-1486,-322,-112,941,-1214
788,7051.003653999942,8,3059,-1209,-310,-147,935,-1197
789,7059.908570000061,8,3019,-1083,-315,-145,945,-1138
790,7068.718486999842,8,2938,-989,-167,-93,966,-1076
791,7077.570404000198,8,2949,-768,-59,49,986,-1037
792,7086.29632200018,8,2896,-730,50,215,990,-983
793,7095.128239000132,8,2887,-648,485,340,979,-926
794,7103.874157000064,8,2883,-614,506,437,947,-873
795,7112.766073999865,8,3063,-500,686,493,880,-867
796,7121.600990999923,8,2916,-429,839,488,514,-845
797,7130.454907000058,8,2932,-375,928,416,550,-517
798,7139.239825000004,8,2963,-333,900,306,344,-664
799,7148.047742000017,8,2928,-302,640,226,123,-575
800,7157.061657000213,9,2909,-326,257,235,-78,-477
801,7166.400569999951,9,2797,-511,-156,316,-155,-384
802,7175.702481999906,9,2706,-1016,-329,542,-133,-382
803,7184.940395000012,9,2646,-974,-348,770,-99,-455
804,7194.208307999816,9,2631,-992,-301,968,-150,-534
805,7203.38822199983,9,2689,-1008,-247,1007,-265,-580
806,7212.628135000159,9,2716,-984,-263,952,-418,-271
807,7222.457042999849,9,2726,-971,-331,538,-670,-377
808,7231.731956000203,9,2761,-903,-656,534,-854,-207
809,7240.974869000183,9,2594,-1047,-1215,375,-1091,233
810,7250.163783000062,9,2425,-1237,-1403,222,-1144,68
811,7259.949691000202,9,2280,-1451,-2045,242,-1113,77
812,7268.723608000073,8,2158,-1512,-2015,388,-1013,56
813,7277.567524999995,8,2188,-1526,-1443,852,-807,69
814,7286.3944420000735,8,2382,-1754,-1949,909,-719,174
815,7295.2343590000055,8,2303,-1805,-2016,880,-588,366
816,7304.090275999897,8,2371,-1944,-1869,795,-543,520
817,7312.959193000097,8,2449,-2083,-1838,631,-548,646
818,7321.792109999933,8,2457,-2227,-1799,355,-551,745
819,7330.739026000174,8,2424,-2319,-1838,177,-596,798
820,7339.5549430001665,8,2434,-2458,-1929,76,-596,791
821,7348.454858999958,8,2443,-2506,-2045,67,-581,746
822,7357.37277599992,8,2457,-2484,-2091,154,-266,688
823,7366.258691999974,8,2506,-2365,-2102,259,-438,663
824,7375.122608999845,8,2587,-2319,-2088,369,-386,711
825,7383.922525999878,8,2689,-2331,-1987,418,-330,804
826,7392.693444000088,8,2777,-2409,-1886,362,-298,899
827,7401.770358999784,9,2849,-2522,-1828,228,-314,977
828,7410.716275000141,8,2896,-2648,-1818,53,-366,1023
829,7419.546191999871,8,2928,-2775,-1854,-115,-431,992
830,7428.536107000127,8,2929,-2825,-1966,-245,-485,911
831,7437.346024999897,8,2981,-2740,-2086,-306,-521,820
832,7446.316940000088,8,3049,-2617,-2245,-315,-549,759
833,7455.150856999808,8,3114,-2503,-2393,-291,-576,729
834,7464.091772999836,8,3220,-2518,-2534,-245,-544,706
835,7472.933689999991,8,3407,-2606,-2639,-234,-412,735
836,7481.768607000049,8,3614,-2754,-2698,-264,-266,840
837,7490.717523000058,8,4061,-3052,-2583,-304,-88,871
838,7499.588440000025,8,4043,-3567,-2450,-298,55,853
839,7508.518355999968,8,4202,-3599,-2269,-265,224,759
840,7517.421272999854,8,4357,-3754,-2011,-218,346,584
841,7526.335188999838,8,4597,-3953,-1837,-136,414,417
842,7535.124105999785,8,4741,-3949,-1667,-56,440,246
843,7544.084021999879,8,4936,-3974,-1566,-14,421,96
844,7552.869940000164,8,5363,-4005,-1478,-1,404,-34
845,7561.693857000137,8,5221,-4041,-1447,-44,437,-148
846,7570.551773999796,8,5336,-4028,-1328,-107,519,-256
847,7579.339690999859,8,5203,-3878,-1149,-157,616,-363
848,7588.171607999811,8,5152,-3750,-1011,-188,687,-478
849,7596.960526000203,8,5006,-3595,-783,-178,760,-643
850,7605.803441999797,8,4849,-3454,-679,-130,805,-771
851,7614.645358999951,8,4714,-3269,-589,-81,811,-864
852,7623.390276999999,8,4584,-3050,-512,-15,832,-930
853,7632.1811950001575,8,4464,-2896,-446,14,854,-976
854,7640.9811120001905,8,4324,-2762,-379,-253,870,-990
855,7649.849029000052,8,4111,-2338,-245,-62,898,-1022
856,7658.70794600005,8,3973,-2332,-139,-148,913,-1054
857,7667.587861999891,8,3842,-2115,-39,-225,898,-1071
858,7676.511778000076,8,3667,-1909,72,-296,885,-1084
859,7685.416695000185,8,3492,-1696,96,-357,865,-1120
860,7694.282611999824,8,3368,-1664,67,-349,823,-1107
861,7703.121528999873,8,3247,-1290,52,-344,818,-1127
862,7712.058444999911,8,3175,-1147,99,-331,842,-1129
863,7720.931361000112,8,3075,-973,112,-254,839,-1113
864,7729.88427700011,8,3053,-787,155,-189,829,-1075
865,7738.691195000229,8,2968,-647,228,-110,835,-995
866,7747.68911000001,8,2960,-576,345,1,830,-913
867,7756.849024000076,9,2926,-291,391,68,786,-900
868,7765.648941000109,8,2848,-311,461,136,720,-852
869,7774.5578580002075,8,2741,-240,518,175,628,-843
870,7783.351775000028,8,2689,-160,546,178,535,-862
871,7792.2166919997835,8,2702,-43,581,177,448,-879
872,7801.059608999822,8,2605,97,563,171,330,-846
873,7809.976524999911,8,2696,297,551,215,278,-718
874,7818.802442000106,8,2722,357,503,233,241,-543
875,7827.7283580000585,8,2785,465,385,270,171,-372
876,7836.59627499992,8,2870,372,291,369,23,-197
877,7845.507190999797,8,2794,-21,4,526,-42,14
878,7854.290108999976,8,2610,-409,-102,636,-58,116
879,7863.086026000019,8,2521,-985,-205,735,-53,136
880,7871.940943000027,8,2457,-970,-196,741,-107,89
881,7880.746859999817,8,2461,-1049,-149,688,-189,21
882,7889.565777999906,8,2611,-1078,-165,598,-313,50
883,7898.4096949998275,8,2623,-1092,-210,461,-455,138
884,7907.282611000028,8,2770,-1108,-379,357,-595,490
885,7916.09852800002,8,2799,-1167,-623,325,-743,372
886,7924.8814460001995,8,2749,-1338,-933,296,-827,539
887,7933.644363999974,8,2685,-1691,-1151,334,-865,646
888,7942.451281000103,8,2583,-2262,-1350,422,-909,654
889,7951.3271979999445,8,2499,-2381,-1445,440,-919,597
890,7960.802108999815,9,2533,-2520,-1508,438,-938,556
891,7970.0910209999165,9,2517,-2377,-1608,345,-1015,544
892,7979.416933999801,9,2537,-2335,-1784,239,-1071,585
893,7988.667847000215,9,2558,-2353,-2245,209,-1156,686
894,7997.990759000004,9,2519,-2442,-2567,214,-1169,836
895,8007.201673000054,9,2501,-2478,-2644,282,-1005,923
896,8016.377587000079,9,2494,-2658,-2630,296,-785,1006
897,8025.680498999918,9,2567,-2854,-2501,277,-598,1028
898,8035.024411999984,9,2692,-2981,-2356,208,-420,1028
899,8044.2663250000805,9,2753,-3036,-2208,56,-338,1037
900,8053.41523900006,9,2851,-3061,-2123,-72,-287,1024
901,8063.002149000113,9,2937,-3112,-2081,-161,-261,1030
902,8071.9790650000505,8,2921,-3119,-2047,-222,-231,1011
903,8080.864981000104,8,2973,-3107,-2025,-216,-128,956
904,8089.8008969998045,8,3316,-3056,-1930,-183,-19,914
905,8098.627813999883,8,3158,-3060,-1807,-156,68,936
906,8107.409732000178,8,3314,-3121,-1665,-119,158,955
907,8116.400646999864,8,3494,-3233,-1283,-116,238,961
908,8125.273564000054,8,3630,-3408,-1416,-137,257,978
909,8134.171480000077,8,3749,-3839,-1384,-239,247,948
910,8143.1213959999695,8,3916,-3595,-1075,-258,260,893
911,8152.035312999942,8,4197,-3812,-1201,-279,345,799
912,8160.91822899989,8,4222,-3944,-1046,-240,321,701
913,8169.832145999862,8,4304,-4001,-787,-166,319,615
914,8178.692062000209,8,4437,-4016,-629,-148,338,490
915,8187.673978000021,8,4632,-4056,-141,-180,317,367
916,8196.513894999953,8,4722,-3964,-92,-263,249,269
917,8205.438811000022,8,4819,-4076,-79,-383,134,93
918,8214.377726999828,8,4876,-3953,201,-483,98,-196
919,8223.747639000067,9,4914,-4015,152,-593,52,-378
920,8232.696555000075,8,4978,-3780,265,-655,46,-535
921,8241.510471999845,8,5058,-3562,350,-680,61,-629
922,8250.272390000191,8,5170,-3385,464,-710,98,-707
923,8259.160307000002,8,5107,-3225,467,-749,82,-743
924,8267.918223999914,8,5044,-3149,475,-757,57,-779
925,8276.702141999976,8,4797,-3022,383,-789,-240,-872
926,8285.56805900007,8,4606,-2906,12,-773,-82,-988
927,8294.386976000169,8,4457,-2681,21,-762,-130,-1143
928,8303.253893000146,8,4250,-2480,-205,-1020,-168,-1225
929,8312.180808999983,8,3983,-2229,-460,-847,-129,-1278
930,8321.012725999935,8,3840,-1888,-673,-941,-32,-1277
931,8329.958641999838,8,3741,-1597,-891,-983,51,-1217
932,8338.769558999957,8,3578,-1381,-991,-976,186,-1166
933,8347.721475000071,8,3465,-1155,-1038,-879,347,-1133
934,8356.561392000003,8,3343,-913,-1059,-722,527,-1108
935,8365.465309000228,8,3225,-778,-965,-262,607,-1079
936,8374.41922500011,8,2830,-680,-868,-250,683,-1092
937,8383.235142000103,8,2984,-569,-733,-44,745,-1111
938,8392.1780579999,8,2854,-428,-557,124,781,-1135
939,8401.020974999938,8,2812,-277,-323,232,796,-1137
940,8409.992891000002,8,2763,-129,-118,305,797,-1096
941,8418.870807000076,8,2747,251,79,327,731,-996
942,8427.709724000124,8,2719,147,478,310,644,-859
943,8436.633640999844,8,2704,268,360,511,520,-711
944,8445.581556999969,8,2656,416,409,238,399,-587
945,8454.391474000204,8,2572,595,362,260,21,-498
946,8463.289390000227,8,2569,711,505,387,175,-419
947,8472.096307999891,8,2595,729,311,596,154,-307
948,8480.954225000005,8,2697,545,354,847,156,-164
949,8489.856141000018,8,2645,446,425,982,108,235
950,8498.669057999905,8,2675,184,468,1053,-34,98
951,8507.654974000161,8,2647,-89,354,1043,-196,256
952,8516.538889999993,8,2610,-303,205,911,-358,344
953,8525.468806999925,8,2526,-437,-251,754,-545,392
954,8534.292723999897,8,2443,-557,-479,634,-657,428
955,8543.113641000218,8,2476,-606,-528,566,-719,447
956,8551.98555800007,8,2504,-648,-768,613,-1021,495
957,8560.861473999921,8,2538,-728,-974,697,-827,599
958,8569.70839099995,8,2418,-1049,-1178,760,-928,724
959,8578.517308999835,8,2554,-1309,-1485,803,-932,848
960,8587.273226999969,8,2506,-1590,-1652,791,-934,938
961,8596.160142999906,8,2416,-1853,-1763,679,-929,996
962,8605.037060000086,8,2358,-2174,-1885,569,-861,979
963,8613.63597899981,8,2443,-2478,-1967,506,-795,970
964,8622.412896999776,8,2453,-2547,-2111,480,-788,1022
965,8631.36881299988,8,2490,-2808,-2397,492,-850,1121
966,8640.15973000005,8,2373,-3171,-2657,568,-855,1157
967,8649.082645999897,8,2426,-3567,-2793,625,-716,1096
968,8657.924563000051,8,2428,-3762,-2802,629,-576,979
969,8666.752480000014,8,2452,-3887,-2950,585,-437,918
970,8675.87539499982,9,2470,-3810,-2471,344,-367,873
971,8684.77631099995,8,2666,-3701,-2219,167,-332,771
972,8693.706226999893,8,2707,-3502,-1969,79,-365,710
973,8702.604143999906,8,2809,-3076,-1938,-6,-422,678
974,8711.541059999945,8,2777,-3096,-1906,-44,-476,667
975,8720.544974999939,9,2757,-2889,-1893,-23,-477,617
976,8729.440892000184,8,2865,-2830,-1893,7,-392,600
977,8738.355808000051,8,2935,-2912,-1724,82,-287,642
978,8747.24072500021,8,3040,-2910,-1502,146,-180,700
979,8756.135641000128,8,3145,-3097,-1312,213,-145,755
980,8765.452554000149,9,3233,-3572,-1191,218,-216,734
981,8774.826465999922,9,3248,-3582,-1132,160,-296,614
982,8784.070378999786,9,3373,-3728,-1232,40,-416,462
983,8793.302293000124,9,3349,-3726,-1758,-40,-584,277
984,8802.448206999998,9,3466,-3627,-1786,-123,-600,188
985,8811.886118000075,9,3570,-3492,-1954,-162,-589,127
986,8821.053031999782,9,3690,-3433,-2106,-195,-499,92
987,8830.282944999908,9,3774,-3359,-2204,-246,-304,90
988,8839.542858000186,9,3911,-3295,-2184,-267,-135,90
989,8848.715772000105,9,4100,-3245,-2128,-239,22,83
990,8858.004685000196,9,4222,-3224,-2013,-159,175,75
991,8867.821592999917,9,4466,-3245,-1920,-70,268,67
992,8876.72350899993,8,4545,-3411,-1816,-1,405,46
993,8885.641425999893,8,4705,-3496,-1661,30,525,-12
994,8894.50434299988,8,4796,-3639,-1500,36,643,-83
995,8903.361259000121,8,4837,-3721,-1294,26,1007,-172
996,8912.271176000104,8,4873,-3700,-806,20,898,-309
997,8921.195091999834,8,4875,-3557,-732,47,975,-463
998,8930.073008999898,8,4861,-3092,-504,67,1275,-549
999,8938.90092599986,8,4765,-3165,-316,42,1034,-623
1000,8947.751842999878,8,4682,-3022,-150,28,1042,-694
1001,8956.664758999977,8,4506,-2911,-26,-256,1044,-803
1002,8965.565675000107,8,4569,-2612,126,-42,1016,-894
1003,8974.444592000054,8,4165,-2345,107,-41,968,-979
1004,8983.257508999941,8,4067,-2359,67,-51,934,-1068
1005,8992.116425999939,8,3895,-2163,28,-41,891,-1169
