,time_ms,delta_ms,aX,aY,aZ,gX,gY,gZ
0,0.0,0,-1967,-3343,-522,105,559,-186
1,10.417903999950795,10,-2011,-3347,-627,96,668,12
2,19.63182000008601,9,-2078,-3306,-688,61,870,160
3,28.835735000029672,9,-2121,-3286,-743,43,1045,345
4,38.316648000090936,9,-2146,-3248,-765,62,1487,747
5,47.46756400027152,9,-2253,-3287,-669,103,1476,591
6,56.72847899995759,9,-2298,-3281,-359,105,1668,607
7,65.92339500002709,9,-2239,-3325,203,81,1816,622
8,75.12631000008696,9,-2234,-3407,304,46,1819,626
9,84.37422499991953,9,-2146,-3936,580,55,1710,622
10,93.56914099998903,9,-2144,-4081,1274,135,1615,431
11,102.62005799995677,9,-1793,-4406,1800,247,1571,158
12,112.47896700024285,9,-2104,-4939,2682,302,1492,-168
13,121.30988600029013,8,-2040,-5201,3211,255,1300,-430
14,130.2108039999439,8,-1942,-5410,3601,49,939,-670
15,139.00672299996586,8,-1872,-5509,3700,-216,235,-914
16,148.3066380001219,9,-1841,-5356,3165,-593,-608,-1287
17,158.4155450000253,10,-1906,-5020,2690,-909,-1257,-1608
18,167.05346600019766,8,-1922,-4720,2268,-1204,-1764,-1936
19,176.04338299997835,8,-2002,-4351,1719,-1435,-2125,-2086
20,184.6493040002315,8,-2043,-3962,1258,-1512,-2358,-2166
21,193.50222299999587,8,-2075,-3535,757,-1504,-2495,-2184
22,202.36014100009925,8,-2073,-3246,179,-1446,-2519,-2094
23,211.27006000006077,8,-2044,-2981,-162,-1366,-2474,-1965
24,220.20697700008895,8,-1974,-2770,-469,-1249,-2364,-1809
25,229.01889700005995,8,-1910,-2610,-1004,-1137,-2170,-1635
26,238.0128140002853,8,-1847,-2476,-1046,-770,-2025,-1399
27,246.84473300021637,8,-1768,-2408,-1234,-919,-1883,-1188
28,255.74465099998633,8,-1640,-2447,-1383,-719,-1692,-960
29,264.6825690003425,8,-1523,-2399,-1538,-568,-1417,-765
30,273.55448700018314,8,-1433,-2359,-1653,-428,-1207,-549
31,282.5384050001958,8,-1372,-2371,-1768,-249,-1011,-386
32,291.4403230001881,8,-1344,-2409,-1859,-104,-763,-218
33,300.3532410002663,8,-1366,-2477,-1929,53,-539,-6
34,309.3631589999859,9,-1432,-2553,-2014,477,-291,169
35,318.10307800014925,8,-1514,-2633,-2060,427,246,369
36,327.00599700001476,8,-1576,-2678,-2007,585,404,575
37,335.9249150003052,8,-1653,-2798,-1917,724,785,875
38,344.7598329998982,8,-1714,-2989,-1717,856,1167,1077
39,353.68275200016797,8,-1757,-3224,-1485,1035,1760,1231
40,362.4966709999171,8,-1807,-3461,-1050,1147,1855,1352
41,371.3245890003236,8,-1872,-3553,-1225,1182,2068,1481
42,380.22650800030533,8,-1972,-3704,-1147,1186,2252,1549
43,389.0754260000904,8,-2108,-4068,-989,1175,2413,1620
44,398.0093440000019,8,-2272,-3977,-538,1173,2588,1697
45,406.82726300019567,8,-2300,-4065,-301,1213,2731,1754
46,415.68418199994994,8,-2381,-4121,-288,1280,2868,1772
47,424.6621000002051,8,-2347,-4242,-103,1361,2937,1736
48,433.43501900017145,8,-2334,-4329,159,1418,2956,1696
49,442.3079380003401,8,-2354,-4403,365,1447,2905,1648
50,451.0838569999578,8,-2360,-4487,606,1437,2820,1580
51,459.85677599992414,8,-2432,-4661,695,1389,2725,1509
52,468.68569500020385,8,-2405,-4354,887,1264,2613,1401
53,477.44161500031623,8,-2422,-4738,1093,1140,2410,1315
54,486.16553500005466,8,-2431,-4582,1187,1048,2224,1136
55,494.97645400015244,8,-2462,-4634,1330,878,1986,932
56,503.8343720002558,8,-2446,-4549,1401,714,1691,772
57,513.0922870002905,9,-2342,-4613,1764,539,1327,596
58,521.7762080001194,8,-2187,-4673,1630,473,1075,370
59,530.5791270002373,8,-2120,-4613,1688,440,820,52
60,539.5560440001645,8,-2147,-4580,1690,418,265,-206
61,548.3519640001759,8,-2073,-4630,1722,453,180,-754
62,557.1688830000312,8,-2035,-4605,1719,456,-38,-921
63,566.1598000001504,8,-2058,-4570,1671,433,-309,-1219
64,575.0217190002331,8,-2122,-4487,1605,402,-602,-1431
65,583.9436370001749,8,-2163,-4353,1294,355,-956,-1585
66,592.8085549999196,8,-2222,-4185,1413,261,-1203,-1691
67,601.6104750001432,8,-2276,-4016,1113,152,-1436,-1682
68,610.6293920001917,9,-2345,-3612,804,18,-1636,-1630
69,619.5703100001992,8,-2331,-3757,285,-73,-1779,-1563
70,628.4732280000753,8,-2323,-3520,111,-108,-1810,-1469
71,637.4041460003355,8,-2279,-3350,-83,-123,-1748,-1386
72,646.2510650003424,8,-2184,-3262,-257,-119,-1622,-1038
73,655.2819819999058,9,-2154,-3160,-393,-110,-1457,-1206
74,664.1429010001048,8,-2082,-3102,-630,-136,-1308,-1112
75,673.1048179999561,8,-2014,-3061,-775,-190,-1148,-1019
76,681.9577370001753,8,-1977,-2957,-874,-242,-918,-871
77,690.9046549999402,8,-1961,-2828,-978,-330,-727,-611
78,699.8195730002408,8,-1956,-2747,-1103,-394,-510,-372
79,708.7524910002685,8,-1945,-2670,-1184,-393,-248,-139
80,717.6434090001749,8,-1919,-2636,-1227,-331,80,67
81,726.4923279999493,8,-1899,-2624,-1214,-247,390,319
82,735.3942459999416,8,-1904,-2648,-1152,-137,683,501
83,744.2841649999536,8,-1960,-2690,-1053,52,915,667
84,753.156083000249,8,-1993,-2791,-910,178,1150,810
85,761.9790020003165,8,-2029,-2882,-783,278,1331,970
86,770.9769200000665,8,-2080,-2981,-619,342,1529,1054
87,779.7268389999772,8,-2141,-3145,-483,395,1687,1130
88,788.473759000226,8,-2232,-3252,-344,414,1814,1188
89,797.3036779999347,8,-2268,-3429,-182,431,1938,1227
90,806.0615980002694,8,-2319,-3620,35,463,2016,1251
91,815.502510999977,9,-2322,-3753,219,512,2080,1218
92,824.6234270000059,9,-2299,-3974,405,545,2108,1132
93,833.6963440001455,9,-2070,-4281,610,608,2083,1070
94,842.8832600002352,9,-2193,-4521,1027,660,1991,878
95,852.0001760002742,9,-2008,-4818,1589,1015,1941,542
96,861.1450920002426,9,-1965,-4868,1912,774,1781,243
97,870.4120070001409,9,-1952,-5002,2210,609,1260,-6
98,879.6459220002362,9,-1984,-5104,2566,401,512,-161
99,888.9308370003164,9,-1843,-5186,2536,260,128,-292
100,898.13875200025,9,-1933,-5128,2256,136,-380,-475
101,907.7186640001855,9,-1981,-4961,1983,64,-913,-618
102,916.9295800002146,9,-2022,-4781,1546,39,-1222,-798
103,925.7684990002417,8,-2029,-4646,1217,33,-1456,-935
104,934.7314159999769,8,-2004,-4498,931,7,-1610,-1081
105,943.5653350001303,8,-2024,-4291,702,10,-1712,-1178
106,952.5252530002035,8,-2291,-4082,384,-10,-1736,-1266
107,961.3451720001649,8,-2059,-3605,167,-66,-1732,-1293
108,970.2810900002987,8,-2064,-3700,-42,-156,-1732,-1271
109,979.1750080003112,8,-2055,-3521,-466,-261,-1708,-1181
110,988.0849260002833,8,-1797,-3430,-388,-359,-1636,-1039
111,996.8828460000623,8,-1995,-3315,-545,-429,-1499,-923
112,1005.7537640000191,8,-1956,-3252,-646,-411,-1247,-536
113,1014.6876819999306,8,-1959,-3100,-781,-380,-1007,-626
114,1023.6955989998933,9,-1941,-3056,-891,-343,-775,-476
115,1032.5165180001932,8,-1903,-2992,-958,-268,-275,-315
116,1041.3694369999575,8,-1908,-2910,-1002,-245,-245,-158
117,1050.2973550001116,8,-1918,-2788,-1049,-236,-27,29
118,1059.1552740002044,8,-1945,-2743,-1087,-213,158,210
119,1068.1051920000755,8,-1974,-2729,-1095,-152,382,374
120,1076.942111000335,8,-1969,-2766,-777,-42,692,528
121,1085.7480300001043,8,-1992,-2795,-940,98,929,708
122,1094.6589479999602,8,-2034,-2875,-787,501,1153,832
123,1103.4898670000075,8,-2059,-2935,-641,381,1357,950
124,1112.427784999909,8,-2108,-3077,-451,447,1575,1066
125,1121.2967030000982,8,-2132,-3204,-300,506,1710,1173
126,1130.1686219999283,8,-2174,-3353,-98,555,1817,1225
127,1139.0215410001474,8,-2229,-3506,118,610,1910,1254
128,1147.7764599999318,8,-2236,-3655,285,655,1990,1248
129,1156.55138000011,8,-2201,-3935,571,703,2041,1206
130,1165.3682989999652,8,-2093,-4143,952,752,2037,1010
131,1174.1482180000276,8,-2044,-4355,1315,795,1963,834
132,1182.9671370001051,8,-1939,-4537,1671,823,1545,657
133,1191.7620560002433,8,-1881,-4739,2049,797,1492,474
134,1200.5019759999414,8,-1782,-4999,2784,756,1183,23
135,1209.3828950000898,8,-1721,-5154,2922,674,765,28
136,1218.1878139999753,8,-1787,-5308,3060,564,223,-151
137,1226.9727329999114,8,-1856,-5314,3025,400,-619,-379
138,1235.8646520001457,8,-1887,-5259,2866,281,-1095,-639
139,1244.6625709999353,8,-1909,-5190,2374,166,-1582,-972
140,1253.515489000165,8,-1976,-5040,2155,93,-1999,-1200
141,1262.3894080002174,8,-2101,-4836,1746,15,-2319,-1372
142,1271.2523270001839,8,-2167,-4536,1074,-43,-2575,-1493
143,1280.2252440001212,8,-2223,-4268,857,-135,-2668,-1576
144,1289.0871630002039,8,-2049,-4064,492,-218,-2690,-1578
145,1298.0500809999285,8,-2288,-3621,206,-340,-2648,-1526
146,1306.9129989999055,8,-2242,-3650,-51,-459,-2525,-1455
147,1315.7679179998922,8,-2198,-3469,-305,-571,-2380,-1345
148,1324.821834999966,9,-2119,-3276,-514,-680,-2214,-1229
149,1333.6097540000083,8,-2037,-3111,-665,-702,-2031,-1085
150,1342.4866730001668,8,-1966,-2952,-783,-693,-1767,-908
151,1351.395591000255,8,-1868,-2816,-940,-682,-1521,-664
152,1360.3315089999342,8,-1808,-2754,-1088,-659,-1276,-478
153,1369.2074270002195,8,-1728,-2736,-1202,-597,-769,-303
154,1378.0883459999131,8,-1689,-2729,-1273,-536,-700,-135
155,1386.913265000203,8,-1693,-2727,-1316,-451,-411,67
156,1395.798182999897,8,-1696,-2698,-1353,-340,-105,250
157,1404.6441020000202,8,-1730,-2694,-1336,-236,463,433
158,1413.492020999911,8,-1758,-2705,-1254,-117,604,633
159,1422.4239390000548,8,-1797,-2767,-1144,30,898,889
160,1431.204858000001,8,-1891,-2825,-1027,188,1181,1101
161,1440.1157760003116,8,-2007,-2861,-961,331,1725,1333
162,1448.8826960000551,8,-2121,-2983,-912,430,1818,1776
163,1457.6626150001175,8,-2182,-3180,-808,486,2073,1647
164,1466.4865340000688,8,-2258,-3372,-623,535,2310,1663
165,1475.3204530002222,8,-2324,-3444,-403,582,2779,1623
166,1484.0503730001728,8,-2326,-3636,-130,625,2694,1530
167,1492.8112920001695,8,-2290,-4009,483,709,2815,1367
168,1501.606212000297,8,-2123,-4324,1023,829,2894,1059
169,1510.8981260000292,9,-1875,-4652,1742,988,2910,797
170,1519.766045000324,8,-1735,-4973,2788,990,2737,577
171,1528.5959640000328,8,-1705,-5253,3178,885,2322,468
172,1537.397883000267,8,-1976,-5406,3647,700,1656,422
173,1546.1538029999247,8,-1742,-5597,3707,481,576,340
174,1555.0167209999017,8,-1660,-5676,3652,253,-214,130
175,1563.8826399999743,8,-1560,-5756,3487,176,-782,-161
176,1572.7125590001378,8,-1609,-5662,3216,161,-1343,-595
177,1581.676477000201,8,-1747,-5419,2836,134,-1864,-907
178,1590.5293959999653,8,-1880,-4904,2380,54,-2315,-1178
179,1599.5273130001806,8,-1989,-4809,1912,-49,-2762,-1382
180,1608.394232000137,8,-2088,-4521,1355,-187,-3007,-1534
181,1617.0221520001178,8,-2222,-4267,902,-366,-3192,-1566
182,1627.0580600003086,10,-2271,-4026,467,-484,-3205,-1542
183,1636.3359750002928,9,-2290,-3794,177,-641,-3115,-1499
184,1645.403892000104,9,-2299,-3567,-105,-745,-2906,-1389
185,1654.6638069999062,9,-2273,-3430,-440,-852,-2719,-1303
186,1663.921721999941,9,-2167,-3214,-657,-910,-2440,-1193
187,1673.3146360002138,9,-2103,-3017,-878,-927,-2169,-1084
188,1682.596551000188,9,-2001,-2823,-1267,-937,-1803,-917
189,1691.97846499992,9,-1887,-2718,-1127,-922,-1496,-674
190,1701.18137999998,9,-1808,-2615,-1182,-920,-1126,-462
191,1710.448295000333,9,-1740,-2525,-1521,-893,-576,-188
192,1720.33020400022,9,-1687,-2466,-1334,-821,-456,53
193,1729.877117000342,9,-1685,-2371,-1376,-732,-140,255
194,1739.3880290001107,9,-1700,-2371,-1349,-578,242,740
195,1748.2669480000368,8,-1675,-2394,-1389,-496,565,733
196,1757.1028669999578,8,-1697,-2809,-1365,-333,892,854
197,1766.0817840001073,8,-1776,-2702,-1259,-190,1256,950
198,1775.7886950003012,9,-1821,-2990,-1077,-53,1517,996
199,1784.629614000096,8,-1886,-3172,-933,118,2038,1025
200,1793.5215330003302,8,-1922,-3364,-688,251,2089,1065
201,1802.3364519999632,8,-1994,-3547,-409,339,2298,1174
202,1811.1323709999851,8,-2009,-3756,46,424,2468,1297
203,1819.9352900001031,8,-2000,-3914,443,557,2574,1394
204,1828.7802090003424,8,-2024,-4102,809,655,2312,1454
205,1837.5901280001017,8,-1942,-4409,1157,771,2434,1453
206,1846.140050000031,8,-1794,-4815,1560,878,2245,1369
207,1854.971968999962,8,-1575,-5081,2161,974,2014,1129
208,1863.8008880002417,8,-1505,-5384,2500,1016,1694,898
209,1873.070803000246,9,-1521,-5635,3051,980,1122,670
210,1881.8277220002528,8,-1392,-5777,3136,886,604,356
211,1891.112637000333,9,-1389,-5939,3534,707,-228,106
212,1899.9245560003146,8,-1385,-6065,3832,624,-804,-111
213,1908.8394740001604,8,-1463,-5954,3528,544,-1513,-355
214,1917.6293939999596,8,-1787,-5869,3208,467,-2193,-639
215,1926.5923110001495,8,-1766,-5387,2700,301,-2823,-910
216,1935.426230000303,8,-1886,-5369,1880,151,-3441,-1193
217,1944.2391490001683,8,-2044,-4986,1308,-25,-3730,-1468
218,1953.1720680001854,8,-2181,-4643,988,-496,-3860,-1620
219,1962.0069860002332,8,-2345,-4320,535,-518,-3870,-1694
220,1970.9939039998972,8,-2437,-3858,142,-718,-3755,-1688
221,1979.8278230000506,8,-2435,-3482,-186,-926,-3564,-1567
222,1988.7597410001945,8,-2407,-3190,-539,-1099,-3293,-1414
223,1997.6636589999544,8,-2197,-2898,-818,-1269,-2948,-1218
224,2006.5075780003099,8,-2173,-2670,-1035,-1334,-2497,-988
225,2015.3334970000287,8,-2056,-2542,-1226,-1328,-2140,-688
226,2024.3054150000717,8,-1952,-2414,-1404,-1274,-1781,-482
227,2033.2273330000135,8,-1801,-2357,-1511,-1134,-1412,-302
228,2042.1112510002786,8,-1734,-2275,-1563,-984,-935,-141
229,2051.0251690002406,8,-1665,-2254,-1574,-819,-574,42
230,2059.925088,8,-1654,-2206,-1577,-630,-237,216
231,2068.902004999927,8,-1636,-2179,-1571,-407,69,411
232,2077.7059249999184,8,-1656,-2248,-1507,-212,482,599
233,2086.5018439999403,8,-1675,-2325,-1447,-12,808,847
234,2095.32676300023,8,-1726,-2422,-1383,163,1150,1044
235,2104.162682000151,8,-1828,-2584,-1312,344,1758,1242
236,2113.1006000000525,8,-1928,-2735,-1236,462,1930,1413
237,2121.9405189999634,8,-2051,-2995,-803,579,2249,1517
238,2130.8234370003447,8,-2082,-3390,-759,723,2559,1485
239,2139.63235600022,8,-2042,-4076,-488,975,2843,1311
240,2148.3882760003326,8,-1887,-4134,-43,1219,3081,1011
241,2157.2611950000464,8,-1801,-4498,675,1419,3284,705
242,2166.015113999947,8,-1718,-4887,1157,1564,3347,384
243,2174.797034000221,8,-1478,-5264,2009,1660,3336,134
244,2183.6489520001123,8,-1073,-5665,2965,1663,3221,-74
245,2192.44387200024,8,-894,-6070,4063,1595,2709,-194
246,2201.1917909999283,8,-913,-6155,4379,1459,1942,-172
247,2210.104709999996,8,-1049,-6161,4656,1212,889,-125
248,2218.8916290001544,8,-1152,-6272,4464,851,-473,-173
249,2227.888546000031,8,-1152,-6311,3862,596,-1436,-391
250,2236.7144650002047,8,-1182,-6256,3430,359,-2159,-1014
251,2245.53138400006,8,-1201,-6052,3159,146,-2692,-1291
252,2254.536301999906,9,-1454,-5420,2698,-94,-3098,-1656
253,2263.367220999953,8,-1626,-4966,2257,-308,-3532,-1857
254,2272.3291390002487,8,-1790,-4711,1760,-550,-3791,-1838
255,2281.156058000306,8,-1949,-4323,1082,-792,-3951,-1695
256,2290.0999749999755,8,-1991,-4001,585,-1036,-3973,-1512
257,2299.012894000043,8,-1945,-3638,137,-1189,-3775,-1334
258,2307.9298120001113,8,-1900,-3369,-504,-1306,-3500,-1150
259,2316.715730999931,8,-1834,-3152,-637,-1411,-3175,-1064
260,2325.6456490003075,8,-1731,-2595,-894,-1484,-2565,-980
261,2334.5515670002897,8,-1644,-2528,-1076,-1507,-2394,-864
262,2343.5024850000445,8,-1569,-2332,-1271,-1484,-2070,-663
263,2352.3004050002783,8,-1484,-2188,-1398,-1423,-1742,-465
264,2360.9953250002036,8,-1395,-2102,-1504,-1288,-1396,-6
265,2370.2882400002636,9,-1340,-2049,-1611,-1146,-980,213
266,2379.6811530000923,9,-1308,-1991,-1673,-929,-644,479
267,2389.0200680002636,9,-1269,-2012,-1730,-727,-202,714
268,2397.90698600018,8,-1256,-2092,-1650,-505,147,732
269,2406.7269050001414,8,-1031,-2183,-1614,-6,524,945
270,2415.5768240002544,8,-1341,-2338,-1289,0,986,1184
271,2425.5007330002627,9,-1392,-2810,-1414,214,1354,1346
272,2434.8506470000757,9,-1464,-3046,-1244,393,1771,1409
273,2444.0935620000346,9,-1396,-3370,-997,609,2083,1297
274,2453.3214769999176,9,-1358,-3637,-700,960,2418,1150
275,2462.5933920001444,9,-1365,-3821,-215,1220,2632,1007
276,2471.8563070000528,9,-1327,-3969,179,1444,2820,980
277,2481.0752230000617,9,-1381,-4122,529,1510,2938,1108
278,2490.341138000076,9,-1476,-4585,968,1440,2915,1283
279,2499.558053000328,9,-1491,-4675,1358,1322,2806,1498
280,2508.819967999898,9,-1409,-5059,1837,1219,2631,1586
281,2522.0688469999004,13,-1030,-5824,2520,1225,2270,1403
282,2531.0187650002263,8,-861,-5977,2920,1237,1849,1115
283,2539.79368399996,8,-775,-6158,3186,1210,1348,692
284,2548.5886030000984,8,-811,-6158,3317,1097,714,363
285,2557.451522000065,8,-881,-6086,3414,796,-199,72
286,2566.1604420001822,8,-1038,-5942,3315,483,-863,-147
287,2574.9513610003305,8,-1120,-5680,3022,170,-1393,-354
288,2583.850280000206,8,-1191,-5518,2565,-72,-1880,-585
289,2592.647199000112,8,-1217,-5368,2189,-493,-2496,-740
290,2601.5691170000537,8,-1340,-4875,1773,-391,-2772,-896
291,2610.4230360001566,8,-1441,-4723,1074,-510,-2739,-1039
292,2619.2269550001583,8,-1545,-4363,803,-632,-2819,-1145
293,2628.1058740000844,8,-1618,-4040,343,-777,-2819,-1158
294,2636.9347929999094,8,-1650,-3725,55,-969,-2759,-1099
295,2645.8227110001644,8,-1633,-3368,-500,-1053,-2550,-985
296,2654.6936300001107,8,-1602,-3142,-603,-1109,-2317,-790
297,2663.518548999946,8,-1609,-2974,-874,-1121,-2043,-626
298,2672.4724670002615,8,-1629,-2563,-1098,-1035,-1764,-448
299,2681.2293870002577,8,-1653,-2626,-1377,-908,-1388,-9
300,2689.9863060002644,8,-1671,-2463,-1787,-725,-1027,-66
301,2698.898224000004,8,-1632,-2358,-1623,-262,-622,98
302,2707.745143000011,8,-1635,-2288,-1669,-240,-208,314
303,2716.5760620000583,8,-1637,-2237,-1627,-51,305,536
304,2725.462980999964,8,-1657,-2259,-1289,92,726,1008
305,2734.2679000003045,8,-1688,-2374,-1421,214,1088,1011
306,2743.2258180001554,8,-1776,-2440,-1327,326,1415,1198
307,2752.0717370002785,8,-1851,-2575,-1203,407,1814,1336
308,2761.023654999917,8,-1960,-2783,-804,473,2132,1448
309,2769.8505739999746,8,-2014,-2974,-795,533,2475,1553
310,2778.763492000053,8,-2154,-3190,-511,599,3058,1616
311,2787.6454100000956,8,-2195,-3451,-268,650,3139,1614
312,2796.4433300003293,8,-2244,-3925,403,740,3313,1573
313,2805.3422480002155,8,-2033,-4240,881,857,3418,1430
314,2814.209167000172,8,-1947,-4837,1466,974,3392,1307
315,2823.109084999942,8,-1814,-5002,2180,1083,3228,1201
316,2831.940003999989,8,-1607,-5453,2867,1171,2844,797
317,2840.8029229999556,8,-1466,-5801,3604,1188,2394,809
318,2849.5638419999523,8,-1351,-6074,3945,1183,1783,607
319,2858.392761000232,8,-1225,-6262,4270,1131,801,349
320,2866.9156830001157,8,-1246,-6652,4265,1027,237,39
321,2875.660603000142,8,-1331,-6328,4045,885,-810,-304
322,2884.503522000159,8,-1451,-6057,3522,660,-1578,-734
323,2893.295441000191,8,-1581,-5800,2981,392,-2222,-999
324,2902.1293600003446,8,-1821,-5235,2380,60,-3013,-1206
325,2910.949279000306,8,-1905,-5093,1781,-209,-3240,-1367
326,2919.7191990001556,8,-1989,-4600,1184,-416,-3450,-1439
327,2928.6231169999155,8,-2066,-4205,532,-611,-3505,-1437
328,2937.4360360002356,8,-2069,-3628,68,-837,-3419,-1383
329,2946.2789550002526,8,-1976,-3527,-335,-987,-3118,-1313
330,2955.213873000048,8,-2002,-3237,-978,-1109,-2784,-1239
331,2964.008792000186,8,-2009,-2976,-1059,-1170,-2425,-1088
332,2972.9147110001577,8,-1973,-2707,-1297,-1195,-1796,-917
333,2981.731630000013,8,-1945,-2511,-1512,-1147,-1683,-706
334,2990.57454900003,8,-1915,-2336,-1678,-1041,-1205,-472
335,2999.5254670002396,8,-1862,-2241,-1833,-887,-792,-188
336,3008.3793849998983,8,-1797,-2188,-1806,-694,-98,14
337,3017.2683040000265,8,-1781,-2198,-1807,-428,68,466
338,3026.1502220000693,8,-1771,-2216,-1703,-218,598,410
339,3034.9431419999746,8,-1781,-2309,-1517,245,985,640
340,3043.849059999957,8,-1806,-2430,-1355,162,1339,824
341,3052.643979000095,8,-1876,-2798,-1227,309,1672,1006
342,3061.532898000223,8,-1961,-2680,-776,371,2058,1173
343,3070.4278160001195,8,-2065,-2833,-703,435,2328,1367
344,3079.1997360001915,8,-2140,-3016,-450,479,2546,1491
345,3088.10465400029,8,-2260,-3330,-89,588,2725,1564
346,3096.8945730000996,8,-2152,-3749,348,742,2956,1532
347,3105.7034929999645,8,-2038,-4060,839,923,3082,1380
348,3114.6304110002347,8,-1981,-4409,1433,1079,3118,1237
349,3123.4453300003224,8,-1836,-4777,1984,1236,3018,1066
350,3132.365248000042,8,-1697,-5042,2576,1300,2756,853
351,3141.1691670000437,8,-1623,-5413,3079,1270,2402,648
352,3149.9060870000903,8,-1605,-5607,3405,1182,1872,421
353,3158.829004999916,8,-1549,-5701,3578,776,1225,233
354,3167.5409250001394,8,-1514,-5708,3577,773,273,20
355,3176.271844999974,8,-1556,-5635,3299,547,-304,-463
356,3185.179764000168,8,-1615,-5382,2958,322,-897,-539
357,3193.9436830002705,8,-1678,-5139,2431,114,-1366,-780
358,3202.75360200003,8,-2034,-4623,2009,-88,-1998,-958
359,3211.5785210003196,8,-1920,-4587,1575,-226,-2291,-1083
360,3220.349441000053,8,-2001,-4206,1166,-340,-2276,-1159
361,3229.480357000284,9,-2077,-3955,658,-448,-2352,-1199
362,3238.7932720002937,9,-2092,-3742,332,-571,-2282,-1192
363,3248.05018699999,9,-2101,-3522,-46,-632,-2122,-1120
364,3257.298102000277,9,-2071,-3309,-294,-691,-1905,-1013
365,3266.4580180003213,9,-2033,-3105,-564,-710,-1578,-861
366,3275.7889320000686,9,-2015,-2970,-723,-703,-1052,-723
367,3284.9538479999865,9,-1952,-2813,-847,-675,-973,-561
368,3294.216762999895,9,-1913,-2707,-979,-638,-696,-366
369,3303.449679000096,9,-1905,-2655,-1058,-566,-356,-208
370,3312.6855939999587,9,-1866,-2598,-1072,-494,-82,-1
371,3321.9835089998924,9,-1869,-2597,-1019,-385,229,146
372,3331.815418000133,9,-1873,-2613,-997,-294,470,371
373,3340.7393370002865,8,-1916,-2643,-955,-184,696,549
374,3349.529256000096,8,-1946,-2722,-931,-89,922,705
375,3358.3461749999515,8,-2010,-2855,-878,12,1213,848
376,3367.175094000231,8,-2070,-2948,-743,110,1447,1004
377,3375.8550140000807,8,-2092,-3103,-550,204,1689,1099
378,3384.69993300032,8,-2135,-3293,-376,315,1917,1177
379,3393.4818530001394,8,-2214,-3464,-90,432,2124,1234
380,3402.3097720000806,8,-2294,-3602,502,536,2244,1262
381,3411.0846910002692,8,-2275,-3746,916,605,2331,1385
382,3419.8266110001896,8,-2276,-3971,1282,658,2295,1564
383,3428.664530000333,8,-2296,-4170,1528,736,1817,1707
384,3437.564448000103,8,-2256,-4390,1672,793,1699,1733
385,3446.306368000023,8,-2162,-4532,1781,822,1411,1592
386,3455.2142860002277,8,-1999,-4769,1912,844,1164,1361
387,3463.9762060000976,8,-1745,-4984,2194,909,941,1017
388,3472.7981250002813,8,-1621,-5200,2605,933,629,354
389,3481.7410430000564,8,-1640,-5414,3066,870,252,139
390,3490.56696200023,8,-1834,-5414,2993,685,-227,-162
391,3499.4548810000197,8,-1940,-5270,2918,284,-782,-454
392,3508.3877990000474,8,-1978,-5059,2729,-56,-1477,-699
393,3517.730713000219,9,-2044,-4838,2362,-320,-1976,-954
394,3526.6016320001654,8,-2094,-4394,1991,-549,-2369,-1123
395,3535.4605500001526,8,-2122,-4465,1372,-620,-2702,-1518
396,3544.319469000129,8,-2224,-4167,1256,-634,-2843,-1392
397,3553.3073870001317,8,-2307,-3928,755,-638,-2890,-1436
398,3562.1403059999466,8,-2425,-3714,430,-656,-2877,-1417
399,3571.0752240001966,8,-2455,-3391,104,-704,-2734,-1352
400,3579.910143000234,8,-2425,-3186,-261,-795,-2517,-1236
401,3588.866061000317,8,-2386,-3059,-615,-835,-2241,-1114
402,3597.7679790003094,8,-2352,-2878,-839,-841,-1965,-933
403,3606.6398980001395,8,-2270,-2673,-1266,-831,-1575,-721
404,3615.459817000101,8,-2202,-2570,-1143,-774,-1239,-435
405,3624.4257349999316,8,-2153,-2474,-1347,-719,-895,-223
406,3633.3246530002725,8,-2064,-2443,-1442,-628,-302,-37
407,3642.308571000285,8,-2027,-2380,-1461,-539,-136,103
408,3651.134490000004,8,-1990,-2309,-1407,-422,174,290
409,3660.0364079999963,8,-2024,-2346,-1349,-288,472,476
410,3668.9103270000487,8,-2055,-2374,-1242,-136,1014,657
411,3677.7152459999343,8,-2093,-2481,-1114,-12,1099,859
412,3686.5641650001635,8,-2178,-2567,-890,102,1368,1108
413,3695.3450840001096,8,-2230,-2795,-554,212,1636,1259
414,3704.145004000111,8,-2241,-3323,-315,350,1877,1358
415,3713.01792200029,8,-2226,-3369,25,471,2059,1395
416,3721.718841999973,8,-2085,-3921,763,647,2217,1354
417,3730.5357620002724,8,-1901,-4288,1224,839,2266,1149
418,3739.4886800002496,8,-1767,-4716,1848,1260,2227,931
419,3748.244598999918,8,-1635,-5161,2446,1170,2026,737
420,3757.019519000096,8,-1636,-5558,2951,1229,1552,295
421,3765.873438000199,8,-1594,-5787,3570,1178,1040,269
422,3774.6623570001248,8,-1591,-5995,3494,1014,441,30
423,3783.47927599998,8,-1647,-6017,3339,709,-461,-193
424,3792.377194999972,8,-1677,-5840,3136,422,-836,-719
425,3801.16411400013,8,-1683,-5484,2566,144,-1492,-1001
426,3810.1050320001377,8,-1734,-5195,2349,-94,-1900,-1035
427,3818.924951000099,8,-1846,-4877,1933,-278,-2231,-1235
428,3827.896869000142,8,-1993,-4530,1497,-466,-2538,-1406
429,3836.7757870000787,8,-2064,-4151,834,-601,-2673,-1509
430,3845.5887069999335,8,-2156,-3884,590,-703,-2717,-1533
431,3854.5836240000426,8,-2221,-3355,263,-819,-2671,-1470
432,3863.41454300009,8,-2181,-3121,-51,-876,-2472,-1356
433,3872.374461000163,8,-2152,-3104,-325,-900,-2236,-1213
434,3881.1303810002755,8,-2100,-2898,-607,-903,-1971,-1003
435,3889.847300999918,8,-2029,-2735,-789,-867,-1667,-822
436,3898.8202190002994,8,-1962,-2314,-927,-785,-1358,-626
437,3907.6801370001704,8,-1927,-2437,-1050,-724,-970,-433
438,3916.4820569999392,8,-1867,-2418,-1224,-630,-665,-204
439,3925.4729740000585,8,-1844,-2390,-1274,-272,-351,-37
440,3934.332892999919,8,-1832,-2367,-1299,-402,21,118
441,3943.33781000023,9,-1875,-2382,-1027,-273,308,302
442,3952.1537290002016,8,-1903,-2428,-1242,-154,594,544
443,3960.894649000238,8,-1940,-2511,-1175,224,887,717
444,3969.8155680002856,8,-1959,-2639,-1119,130,1193,864
445,3978.7124859999494,8,-2001,-2818,-774,249,1562,1249
446,3987.61940400027,8,-2111,-2948,-869,359,1861,1152
447,3996.396324000216,8,-2166,-3308,-636,514,2149,1263
448,4005.3112420000616,8,-2178,-3242,-299,647,2413,1343
449,4014.120160999937,8,-2214,-3552,21,785,2654,1410
450,4023.0150800002775,8,-2234,-3865,565,909,2756,1418
451,4032.5049930002024,9,-2132,-4144,1050,1056,2783,1351
452,4041.8149070001164,9,-1934,-4630,1717,1183,2703,1210
453,4051.056823000181,9,-1755,-4972,2185,1324,2452,786
454,4060.3417370002717,9,-1647,-5370,2617,1377,2144,804
455,4069.5436529999824,9,-1541,-5836,3097,1329,1746,591
456,4078.8335679999363,9,-1481,-5766,3338,1164,1098,359
457,4088.1044830002793,9,-1487,-5802,3427,926,485,68
458,4097.306398000001,9,-1572,-5729,3271,580,-332,-159
459,4106.570314000237,9,-1642,-5464,2980,17,-966,-518
460,4115.720230000079,9,-1690,-5232,2632,-52,-1756,-794
461,4125.021144000129,9,-1793,-4899,2187,-260,-2029,-1072
462,4134.713055000248,9,-1917,-4385,1807,-465,-2364,-1239
463,4143.59897400027,8,-2026,-4288,1117,-592,-2647,-1328
464,4152.557892000004,8,-2132,-4029,872,-694,-2751,-1346
465,4161.353811000026,8,-2197,-3747,501,-1020,-2742,-1301
466,4170.30972900011,8,-2193,-3511,191,-828,-2606,-1214
467,4179.086649000055,8,-2155,-3258,-104,-830,-2336,-1099
468,4187.97456700031,8,-2095,-3109,-427,-812,-2074,-918
469,4196.734486999958,8,-2012,-2983,-619,-783,-1787,-793
470,4205.519405999894,8,-1949,-2854,-814,-722,-1497,-677
471,4214.35532500027,8,-1929,-2757,-940,-680,-1146,-559
472,4223.23124400009,8,-1910,-2684,-1253,-618,-881,-431
473,4231.987164000202,8,-1893,-2615,-1114,-531,-622,-262
474,4240.943081000296,8,-1879,-2578,-1164,-444,-352,-111
475,4249.727001000338,8,-1870,-2525,-1126,-334,196,33
476,4258.600918999946,8,-1873,-2544,-1116,-234,287,478
477,4267.464838000251,8,-1893,-2570,-1077,-156,576,478
478,4276.267756999914,8,-1899,-2652,-1010,-70,881,654
479,4284.979678000127,8,-1929,-2771,-947,33,1173,837
480,4294.024595000337,9,-1997,-2881,-812,106,1524,990
481,4302.84751399995,8,-2047,-2973,-615,181,1785,1132
482,4311.796431999937,8,-2110,-3171,-426,510,1993,1237
483,4320.640351000293,8,-2129,-3355,-220,345,2130,1295
484,4329.527269000209,8,-2137,-3585,53,440,2280,1293
485,4338.449187000151,8,-2115,-3820,502,549,2370,1283
486,4347.319106000214,8,-2060,-4046,850,662,2403,1263
487,4356.228024000302,8,-2025,-4557,1281,796,2365,1217
488,4365.027944000303,8,-1907,-4686,2012,885,2222,1121
489,4373.952861999896,8,-1727,-4965,2376,936,2042,921
490,4382.79078100004,8,-1694,-5185,2730,905,1735,779
491,4391.61170000034,8,-1665,-5614,2991,796,1269,652
492,4400.382619000084,8,-1617,-5514,3109,661,534,497
493,4409.220538000227,8,-1548,-5584,3139,541,-58,16
494,4418.0864570003,8,-1540,-5539,2984,437,-627,-79
495,4426.916376000008,8,-1608,-5129,2772,282,-1133,-379
496,4435.748294999939,8,-1699,-5183,2455,157,-1713,-612
497,4444.615213999896,8,-1851,-4811,1815,-21,-2130,-838
498,4453.442132999953,8,-1930,-4556,1529,-209,-2465,-1077
499,4462.328050999986,8,-2049,-4340,1123,-359,-2698,-1185
500,4471.229969999968,8,-2190,-4058,724,-515,-2840,-1220
501,4480.095888000051,8,-2270,-3739,49,-599,-2816,-1196
502,4488.909808000244,8,-2051,-3516,-71,-623,-2685,-1124
503,4497.679727000104,8,-2291,-3323,-362,-631,-2458,-1043
504,4506.46064700004,8,-2239,-3137,-623,-599,-2161,-917
505,4515.554563000023,9,-2175,-2899,-843,-567,-1770,-764
506,4524.53948099992,8,-2144,-2727,-1053,-539,-1455,-555
507,4533.315400999982,8,-2110,-2334,-1215,-492,-1131,-376
508,4542.273318000298,8,-2067,-2480,-1371,-466,-525,-200
509,4551.064237999981,8,-2078,-2451,-1444,-376,-307,-44
510,4559.888156999932,8,-2035,-2422,-1421,-2,81,87
511,4568.750076000015,8,-2029,-2465,-1314,-122,473,209
512,4577.546994999921,8,-2092,-2533,-1174,37,848,341
513,4586.3749140003165,8,-2130,-2597,-910,140,1229,523
514,4595.229833000303,8,-2184,-2577,-646,210,1494,814
515,4604.046752000158,8,-2553,-2657,-388,276,1688,1076
516,4612.977669999964,8,-2381,-3062,-219,372,1831,1333
517,4621.825589000309,8,-2398,-3026,3,475,2009,1790
518,4630.631509000068,8,-2391,-3361,284,615,2161,1619
519,4639.599426000132,8,-2239,-3761,789,792,2319,1510
520,4648.425345000305,8,-2072,-4153,1314,1007,2435,1285
521,4657.412262999969,8,-1882,-4622,2197,1148,2436,1012
522,4666.232181999931,8,-1740,-5007,2679,1207,2268,671
523,4675.129101000039,8,-1609,-5318,3219,1186,1931,422
524,4684.012018999965,8,-1600,-5475,3560,990,1138,208
525,4692.942937000225,8,-1664,-5534,3668,729,521,46
526,4701.766857000166,8,-1703,-5493,3527,432,-227,-143
527,4710.648775000209,8,-1736,-5288,3184,136,-935,-387
528,4719.555693000075,8,-1764,-5074,2838,-152,-1757,-633
529,4728.47061199991,8,-1844,-4886,2426,-280,-2044,-841
530,4737.416530000246,8,-1956,-4674,1894,-367,-2364,-1073
531,4746.249449000061,8,-2299,-4423,1420,-455,-2571,-1205
532,4755.213367000124,8,-2180,-3876,991,-560,-2676,-1264
533,4763.879287000236,8,-2288,-3792,625,-655,-2694,-1278
534,4772.869205000006,8,-2292,-3572,202,-718,-2595,-1226
535,4781.774123000105,8,-2273,-3386,-62,-739,-2413,-1143
536,4790.640042000177,8,-2186,-3195,-307,-704,-2172,-1035
537,4799.543959999937,8,-2173,-2979,-740,-659,-1823,-908
538,4808.383879000303,8,-2129,-2831,-691,-609,-1527,-739
539,4817.296797999916,8,-2095,-2717,-829,-546,-1221,-590
540,4826.1217170002055,8,-2044,-2615,-916,-475,-913,-424
541,4834.7996370002875,8,-2036,-2579,-968,-404,-549,-237
542,4844.084551999913,9,-1991,-2521,-1025,-307,-271,-4
543,4853.380467000079,9,-1932,-2529,-1006,-214,79,156
544,4862.699381000311,9,-1921,-2540,-915,-134,365,381
545,4871.984295999937,9,-1973,-2591,-846,-17,623,573
546,4881.171212000027,9,-1994,-2669,-754,61,940,803
547,4890.453127000001,9,-2291,-2766,-621,153,1198,970
548,4899.632043000111,9,-2139,-2878,-461,240,1490,1117
549,4908.742958999937,9,-2190,-2989,-266,319,1707,1296
550,4918.075873999896,9,-2270,-3130,-79,412,1932,1413
551,4927.3247890000675,9,-2312,-3337,148,472,2068,1459
552,4936.4287060002425,9,-2312,-3593,389,568,2212,1445
553,4946.309615000246,9,-2247,-3873,830,650,2279,1348
554,4955.330532000062,9,-2161,-4173,1311,803,2049,1199
555,4964.1594510003415,8,-1963,-4793,1830,902,2232,989
556,4973.092369999904,8,-1888,-4960,2340,968,2056,766
557,4981.909289000214,8,-1838,-5264,2872,944,1748,503
558,4990.833206999923,8,-1537,-5497,3234,839,1042,287
559,4999.626126000294,8,-1710,-5667,3477,630,753,57
560,5008.6100440003065,8,-1703,-5731,3500,443,-3,-166
561,5017.436962999909,8,-1800,-5550,3276,231,-671,-469
562,5026.2888820002445,8,-1831,-5277,2954,-30,-1304,-729
563,5035.20380000009,8,-1881,-5025,2536,-213,-1812,-957
564,5044.07971899991,8,-1993,-4767,1840,-358,-2322,-1139
565,5053.021637000256,8,-2068,-4521,1506,-467,-2602,-1333
566,5061.8495560001975,8,-2226,-4239,1058,-578,-2765,-1433
567,5070.6924750002145,8,-2355,-3980,669,-655,-2811,-1470
568,5079.570394000257,8,-2391,-3648,61,-731,-2720,-1452
569,5088.393313000324,8,-2391,-3394,-11,-790,-2544,-1347
570,5097.303231000296,8,-2369,-3147,-289,-801,-2298,-1207
571,5106.100150000202,8,-2295,-2946,-505,-772,-2019,-1031
572,5114.873070000158,8,-2235,-2728,-717,-748,-1616,-840
573,5123.837988000105,8,-2181,-2577,-907,-701,-1283,-613
574,5132.621907000157,8,-2104,-2489,-1033,-642,-965,-440
575,5141.548825999962,8,-2043,-2446,-1110,-536,-650,-283
576,5150.3387450002265,8,-2006,-2396,-1158,-446,-252,-135
577,5159.170664000158,8,-1974,-2375,-1147,-338,50,7
578,5168.042582999988,8,-1996,-2393,-1056,-234,348,203
579,5176.82650200004,8,-1982,-2433,-967,-96,628,394
580,5185.593422000238,8,-2018,-2511,-862,3,951,594
581,5194.496340000114,8,-2026,-2586,-720,93,1214,788
582,5203.325258999939,8,-2086,-2717,-501,178,1454,1014
583,5212.262176999957,8,-2117,-2860,-318,274,1677,1182
584,5221.125095999923,8,-2150,-3004,-148,349,1882,1303
585,5229.934015000254,8,-2214,-3248,48,435,2074,1379
586,5238.858934000291,8,-2187,-3542,405,541,2198,1407
587,5247.7168519999395,8,-2127,-3830,831,664,2548,1345
588,5256.550771000093,8,-2034,-4136,1288,821,2330,1210
589,5265.421690000039,8,-1948,-4633,1992,927,2244,782
590,5274.251609000203,8,-1563,-5001,2340,1000,2068,774
591,5283.217527000033,8,-1698,-5292,2816,995,1557,519
592,5292.086446000212,8,-1646,-5518,3151,926,1429,37
593,5300.969364000139,8,-1656,-5673,3250,783,746,109
594,5309.846283000297,8,-1679,-5628,3180,583,98,-108
595,5318.7412010001935,8,-1703,-5478,2927,344,-526,-334
596,5327.660120000019,8,-1740,-5222,2583,56,-1082,-569
597,5336.472039,8,-1825,-4957,2185,-134,-1616,-777
598,5345.404957000028,8,-1871,-4753,1735,-258,-1929,-979
599,5354.312875000232,8,-1950,-4514,1343,-372,-2145,-1139
600,5363.228793999951,8,-2079,-4227,972,-443,-2308,-1240
601,5372.088712000277,8,-2164,-3909,632,-530,-2355,-1284
602,5381.003631000112,8,-2206,-3676,257,-616,-2319,-1250
603,5389.845550000246,8,-2210,-3455,3,-677,-2189,-1165
604,5398.805468000319,8,-2178,-3250,-204,-685,-1946,-783
605,5407.651386999987,8,-2137,-3037,-393,-692,-1691,-892
606,5416.227308000089,8,-2091,-2890,-586,-651,-1404,-698
607,5425.074227000096,8,-1798,-2738,-736,-610,-1120,-554
608,5433.850146000168,8,-1992,-2643,-812,-532,-572,-413
609,5442.661066000255,8,-1976,-2609,-897,-439,-483,-18
610,5451.577984000323,8,-1934,-2580,-882,-347,-221,-122
611,5460.361902999921,8,-1942,-2533,-840,-233,14,58
612,5469.1058230000635,8,-1929,-2558,-756,-126,252,224
613,5477.9107429999385,8,-1922,-2625,-655,15,725,390
614,5486.674662000041,8,-1950,-2703,-588,114,714,552
615,5495.486581000023,8,-1980,-2801,-510,201,928,734
616,5504.3595000001915,8,-2015,-2912,-382,268,1147,859
617,5513.100420000228,8,-2058,-3025,-265,370,1368,950
618,5522.308336000151,9,-2082,-3277,-101,443,1623,997
619,5531.210254000143,8,-2044,-3565,175,541,1807,966
620,5540.211171999999,9,-1958,-3748,477,664,1928,884
621,5549.071090000325,8,-1935,-3901,816,766,1978,518
622,5557.993009000256,8,-1851,-4234,1148,860,1900,680
623,5566.841928000031,8,-1733,-4509,1601,934,1764,546
624,5575.658847000341,8,-1712,-4790,2013,978,1326,408
625,5584.581765000166,8,-1684,-5028,2324,989,1355,18
626,5593.4426839999105,8,-1678,-5284,2581,926,961,165
627,5602.355601999989,8,-1694,-5378,2812,826,586,26
628,5611.248521000107,8,-1619,-5464,2862,623,191,-101
629,5620.1854390001245,8,-1542,-5513,2823,446,-469,-291
630,5628.999358000328,8,-1547,-5338,2683,260,-764,-528
631,5638.589270000011,9,-1661,-5064,2321,8,-1456,-812
632,5647.980184000062,9,-1772,-4701,1919,-192,-1692,-1031
633,5657.295099000294,9,-1879,-4451,1530,-401,-2252,-1140
634,5666.458014999989,9,-1952,-4108,1172,-546,-2204,-1198
635,5675.757930000145,9,-2303,-3848,732,-651,-2244,-1187
636,5684.943845999896,9,-2072,-3358,426,-705,-2166,-1129
637,5694.184761000088,9,-2065,-3340,104,-733,-2019,-1004
638,5703.455675999976,9,-2047,-3140,-99,-718,-1766,-887
639,5712.6955910002835,9,-2022,-2923,-270,-670,-1535,-728
640,5721.980505999909,9,-1988,-2785,-433,-597,-1043,-599
641,5731.18942200017,9,-1951,-2648,-560,-524,-979,-439
642,5741.108331000305,9,-1947,-2594,-635,-430,-729,-304
643,5750.175248000232,9,-1904,-2568,-699,-339,-388,-178
644,5759.055167000042,8,-1882,-2542,-712,-1,-119,2
645,5767.995085000166,8,-1868,-2541,-666,-153,132,150
646,5776.839004000067,8,-1860,-2592,-597,-86,387,322
647,5785.642923000069,8,-1879,-2653,-558,3,679,767
648,5794.566841000233,8,-1901,-2705,-466,58,903,752
649,5803.301761000057,8,-1949,-2786,-419,112,1142,913
650,5812.058681000053,8,-2016,-2865,-357,178,1378,1029
651,5821.012598999914,8,-2031,-3049,-213,222,1651,1108
652,5829.789518000325,8,-2118,-3193,209,258,1848,1157
653,5838.774436000222,8,-2153,-3324,248,300,2018,1171
654,5847.57735500034,8,-2127,-3817,496,394,2138,1177
655,5856.365274999916,8,-2076,-3894,837,505,2187,1158
656,5865.219194000019,8,-1979,-4168,1286,638,2178,1064
657,5874.096113000178,8,-1554,-4557,1863,804,2124,909
658,5882.970031000241,8,-1571,-4928,2378,999,2015,677
659,5891.78794999998,8,-1412,-5382,2908,1115,1701,435
660,5900.545870000315,8,-1340,-5740,3575,1166,1272,182
661,5909.417789000145,8,-1390,-5861,3634,1105,693,-108
662,5918.158709000181,8,-1439,-5857,3559,913,15,-325
663,5926.730630000293,8,-1590,-5424,3307,529,-966,-527
664,5935.505550000016,8,-1574,-5179,2919,203,-1375,-721
665,5944.375469000079,8,-1638,-5217,2519,-70,-2028,-877
666,5953.252387000248,8,-1725,-4936,1921,-264,-2431,-1103
667,5962.033307000183,8,-1819,-4658,1463,-380,-2693,-1250
668,5970.922225000322,8,-1971,-4107,1024,-498,-3066,-1331
669,5979.734145000293,8,-2084,-4018,361,-591,-2811,-1352
670,5988.630063000073,8,-2117,-3746,157,-696,-2704,-1291
671,5997.4339830000645,8,-2127,-3487,-136,-778,-2513,-1188
672,6006.346901000143,8,-2102,-3261,-371,-858,-2270,-1051
673,6015.238818999933,8,-2072,-3020,-603,-856,-1914,-889
674,6024.106738000228,8,-2020,-2857,-798,-821,-1588,-688
675,6033.026655999947,8,-1985,-2728,-941,-765,-1246,-544
676,6041.784576000282,8,-1907,-2645,-1026,-670,-879,-395
677,6050.673494999955,8,-1890,-2578,-1084,-568,-438,-253
678,6059.622412999943,8,-1844,-2554,-1060,-444,-99,-66
679,6068.528330999925,8,-1842,-2510,-966,-301,199,84
680,6077.391249999891,8,-1844,-2485,-881,-157,735,276
681,6086.216169000181,8,-1857,-2498,-807,-54,790,740
682,6095.056088000092,8,-1890,-2535,-738,19,1042,753
683,6103.917007000291,8,-1928,-2606,-610,63,1324,962
684,6112.736926000252,8,-2024,-2696,-463,123,1611,1138
685,6121.7048440003055,8,-2108,-2902,-348,175,1929,1518
686,6130.514763000065,8,-2177,-3110,-149,242,2129,1319
687,6139.48468100034,8,-2143,-3346,202,367,2316,1288
688,6148.347600000307,8,-2097,-3822,563,558,2475,1193
689,6157.166518999929,8,-2060,-3859,1233,709,2594,1088
690,6166.113437000149,8,-2022,-4113,1561,839,2589,969
691,6174.9663559999135,8,-1952,-4459,1945,940,2496,890
692,6183.8232750001225,8,-1844,-4777,2350,1004,2294,789
693,6192.683193999983,8,-1696,-5192,3003,1035,1927,644
694,6201.557112000046,8,-1501,-5489,3112,1056,1528,381
695,6210.419031000129,8,-1344,-5695,3510,1057,1055,110
696,6219.188950999978,8,-1317,-5801,3621,1001,474,-150
697,6228.010870000162,8,-1412,-5767,3520,851,-430,-411
698,6236.804788999962,8,-1541,-5514,3261,604,-1027,-663
699,6245.550709000327,8,-1633,-5271,2777,31,-1619,-926
700,6254.540627000097,8,-1734,-5064,2286,-16,-2103,-1069
701,6263.294546999987,8,-1872,-4787,1838,-340,-2485,-1207
702,6272.104466000201,8,-1934,-4468,1126,-530,-2751,-1322
703,6280.976385000031,8,-2009,-4200,930,-660,-2814,-1389
704,6289.795304000108,8,-2066,-3918,469,-739,-2763,-1383
705,6298.657223000191,8,-2088,-3387,127,-813,-2618,-1305
706,6307.48314199991,8,-2097,-3109,-154,-842,-2344,-1177
707,6316.272061000291,8,-2084,-3051,-406,-871,-2098,-964
708,6325.279979000243,9,-1793,-2882,-679,-872,-1810,-784
709,6334.088898000118,8,-1954,-2752,-841,-830,-1501,-614
710,6343.021816000146,8,-1889,-2668,-942,-759,-1099,-451
711,6351.928735000001,8,-1855,-2549,-951,-667,-779,-245
712,6360.848653000176,8,-1837,-2411,-996,-284,-465,-58
713,6369.768570999895,8,-1821,-2355,-952,-402,-160,143
714,6378.667490000225,8,-1846,-2325,-926,-266,195,394
715,6387.503409000146,8,-1860,-2403,-906,-133,457,724
716,6396.314328000244,8,-1903,-2468,-855,-54,724,966
717,6405.228246000206,8,-1980,-2567,-791,23,1271,1158
718,6414.020166000228,8,-2026,-2681,-513,64,1355,1533
719,6423.041083000044,9,-2092,-2960,-623,152,1589,1369
720,6431.748002999939,8,-2099,-3197,-356,309,1828,1385
721,6440.541923000183,8,-2072,-3503,-82,514,2050,1324
722,6449.518841000099,8,-1944,-3909,301,823,2328,1163
723,6458.798755000316,9,-1568,-4259,892,1047,2495,876
724,6468.089670000154,9,-1768,-4811,1314,1254,2554,656
725,6477.315586000259,9,-1736,-4838,1906,1299,2492,430
726,6486.504502000116,9,-1660,-5143,2313,1239,2352,288
727,6495.614418000059,9,-1560,-5362,3016,1102,2048,163
728,6504.858332999902,9,-1482,-5474,3037,887,1391,56
729,6514.13224900034,9,-1459,-5452,3042,581,865,-8
730,6524.1351570002735,10,-1449,-5348,3000,301,163,-132
731,6533.481071000097,9,-1471,-5209,2764,132,-612,-397
732,6542.674987000282,9,-1504,-5078,2399,-38,-1177,-616
733,6552.348899000208,9,-1643,-4865,1794,-133,-1502,-808
734,6561.183818000245,8,-1767,-4612,1630,-217,-1755,-971
735,6570.070736000162,8,-1844,-4325,1291,-371,-1932,-1036
736,6578.892655000345,8,-1905,-4075,986,-469,-2019,-1037
737,6587.663575000079,8,-1920,-3815,683,-540,-2007,-988
738,6596.405494999999,8,-1922,-3532,358,-520,-1906,-872
739,6605.304414000329,8,-1966,-3385,132,-531,-1781,-800
740,6614.063333000104,8,-1965,-3215,-129,-527,-1622,-693
741,6622.953252000116,8,-1965,-2954,-287,-524,-1384,-592
742,6631.819171000188,8,-1952,-2840,-397,-521,-1153,-444
743,6640.64309000014,8,-1939,-2762,-520,-485,-917,-276
744,6649.568008000188,8,-1900,-2691,-587,-412,-677,-107
745,6658.398927000235,8,-1865,-2632,-617,-347,-371,32
746,6667.174847000297,8,-1811,-2586,-647,-263,-115,186
747,6676.175764000163,9,-1840,-2579,-622,-199,94,339
748,6684.9656839999625,8,-1840,-2607,-550,-89,301,483
749,6693.947602000208,8,-1860,-2728,-440,5,563,617
750,6702.804520999962,8,-1802,-2916,-34,95,759,727
751,6711.688439000227,8,-1823,-3080,-97,186,935,766
752,6720.565357999931,8,-1845,-3229,34,304,1080,776
753,6729.4232770000235,8,-1838,-3454,270,400,1228,781
754,6738.262196000051,8,-1769,-3713,563,525,1332,785
755,6747.1301150003455,8,-1775,-3903,917,646,1422,759
756,6756.119032000242,8,-1705,-4112,1276,796,1492,727
757,6764.784953000344,8,-1710,-4410,1971,864,1457,677
758,6773.952868999913,9,-1506,-4715,2158,923,1327,526
759,6783.083785000144,9,-1429,-4970,2490,922,820,363
760,6792.021704000035,8,-1401,-5136,2600,857,558,181
761,6800.934622000113,8,-1424,-5224,2651,696,90,-255
762,6809.790540999984,8,-1474,-5230,2523,503,-343,-262
763,6818.703459000062,8,-1517,-5150,2396,231,-963,-497
764,6827.531378000003,8,-1622,-5047,2246,31,-1049,-978
765,6836.417297000025,8,-1671,-4853,2030,-157,-1275,-916
766,6845.142217000102,8,-1690,-4696,1747,-389,-1514,-1081
767,6854.253133999919,9,-1741,-4451,1494,-655,-1739,-1147
768,6863.213051999992,8,-1800,-4105,1158,-836,-1961,-1163
769,6872.059970999999,8,-1824,-3899,872,-979,-2040,-1138
770,6880.975889000183,8,-1809,-3693,484,-1064,-2034,-1081
771,6889.783808000175,8,-1811,-3491,204,-1106,-1958,-990
772,6898.618727000212,8,-1809,-3269,-60,-1098,-1785,-867
773,6907.455646000017,8,-1813,-3041,-354,-1072,-1589,-723
774,6916.19156600018,8,-1779,-2930,-631,-1013,-1349,-546
775,6924.957486000039,8,-1729,-2875,-791,-919,-798,-426
776,6933.865405000233,8,-1682,-2569,-912,-756,-736,-298
777,6942.554324999946,8,-1643,-2782,-936,-613,-360,-165
778,6951.337245000104,8,-1622,-2738,-952,-427,-38,45
779,6962.667141000111,11,-1641,-2750,-985,-271,152,202
780,6971.56005900024,8,-1623,-2758,-975,-165,345,339
781,6980.352979000145,8,-1640,-2815,-929,-82,615,473
782,6989.152898000157,8,-1678,-2858,-872,-5,822,650
783,6998.103815999912,8,-1732,-2955,-812,64,1041,804
784,7006.912736000231,8,-1799,-3323,-732,142,1509,919
785,7015.721655000107,8,-1848,-3266,-575,212,1554,989
786,7024.699572999907,8,-1845,-3556,-252,313,1784,1010
787,7033.525492000081,8,-1778,-3783,45,444,1986,941
788,7042.448409999906,8,-1731,-4316,456,651,2124,840
789,7051.315329000317,8,-1633,-4359,1175,807,2196,739
790,7060.264247000305,8,-1542,-4595,1550,923,2163,617
791,7069.130165999923,8,-1466,-4870,2014,1000,2029,547
792,7078.005084000324,8,-1426,-5128,2379,1037,1762,474
793,7086.814004000189,8,-1384,-5383,2679,998,1305,366
794,7095.619922999958,8,-1270,-5517,3023,931,886,160
795,7104.552840999986,8,-1211,-5630,3065,812,421,-14
796,7113.415759999953,8,-1287,-5627,2961,627,-82,-205
797,7122.36867799993,8,-1355,-5452,2769,398,-722,-447
798,7131.174598000143,8,-1443,-5243,2469,156,-1190,-733
799,7140.134515000227,8,-1550,-4940,1909,-115,-1612,-906
800,7148.960434999935,8,-1687,-4385,1521,-416,-1945,-1024
801,7157.937352000317,8,-1764,-4270,1135,-636,-2194,-1084
802,7166.745272000298,8,-1801,-4024,710,-803,-2267,-1098
803,7175.588191000315,8,-1836,-3772,372,-908,-2242,-1065
804,7184.552108999924,8,-1845,-3564,98,-969,-2126,-1008
805,7193.405028000143,8,-1822,-3305,-139,-963,-1903,-918
806,7202.290946000176,8,-1791,-3108,-393,-925,-1671,-790
807,7211.134865000076,8,-1776,-2957,-562,-842,-1425,-662
808,7219.94878500027,8,-1767,-2576,-665,-732,-1186,-506
809,7228.772704000221,8,-1722,-2738,-797,-609,-866,-341
810,7237.5706230000105,8,-1691,-2715,-880,-486,-602,-192
811,7246.303543000067,8,-1655,-2651,-920,-357,-331,-1
812,7255.1074630000585,8,-1647,-2577,-936,-199,-20,157
813,7264.7893739999745,9,-1690,-2574,-890,-89,210,409
814,7274.172288000045,9,-1722,-2650,-820,25,449,609
815,7283.424203000322,9,-1730,-2793,-768,99,736,820
816,7292.693117999988,9,-2039,-2853,-750,188,947,969
817,7301.949034000245,9,-1893,-3026,-712,219,1212,1096
818,7311.11194999994,9,-1933,-3153,-674,299,1413,1179
819,7320.369864999975,9,-2003,-3417,-505,506,1707,1245
820,7329.624779999904,9,-1957,-3943,-113,986,2004,1238
821,7338.8856950000445,9,-1823,-4583,184,1016,2543,1108
822,7348.129611000331,9,-1643,-4641,951,1179,2554,894
823,7357.122528000218,8,-1491,-4717,1428,1240,2592,650
824,7366.754440000022,9,-1453,-4911,2066,1202,2336,554
825,7375.5733590001,8,-1420,-5088,2627,1133,1928,516
826,7384.407278000253,8,-1363,-5310,2897,1053,1399,476
827,7393.280196999967,8,-1330,-5516,3021,950,581,338
828,7402.0371169999635,8,-1339,-5587,2962,822,181,96
829,7410.909036000248,8,-1427,-5495,2770,632,-282,-168
830,7419.7299550000935,8,-1489,-5263,2480,391,-712,-502
831,7428.594874000282,8,-1552,-5002,2155,66,-1077,-697
832,7437.480792000315,8,-1619,-4526,1823,-94,-1352,-799
833,7446.283711999968,8,-1751,-4327,1520,-256,-1625,-865
834,7455.098631000055,8,-1815,-4077,1057,-412,-1783,-862
835,7464.036548999957,8,-1875,-3829,717,-564,-1883,-836
836,7472.974467000313,8,-1912,-3377,474,-652,-1894,-814
837,7481.701387000157,8,-1903,-3423,220,-707,-1803,-799
838,7490.510307000022,8,-1894,-3275,-28,-724,-1667,-772
839,7499.4232250001005,8,-1877,-3133,-185,-686,-1491,-720
840,7508.310144000006,8,-1888,-2983,-328,-603,-1279,-629
841,7517.103062999922,8,-1878,-2865,-381,-492,-965,-394
842,7529.656948000138,12,-1829,-2831,-493,-266,-528,-163
843,7538.614865999989,8,-1843,-2794,-578,-121,-253,109
844,7547.41478599999,8,-1835,-2785,-637,50,45,348
845,7556.3657040002,8,-1814,-2721,-610,226,341,518
846,7565.266622000308,8,-1758,-2949,-501,345,653,606
847,7574.129541000275,8,-1701,-3164,-405,479,814,605
848,7583.103459000085,8,-1567,-3236,-175,532,855,523
849,7591.955377999966,8,-1573,-3347,96,425,816,406
850,7600.834296999892,8,-1605,-3520,354,269,640,337
851,7609.695215000102,8,-1319,-3880,1072,151,505,306
852,7618.469134999941,8,-1328,-4322,1293,390,657,280
853,7627.388054000221,8,-1365,-4362,1451,592,706,219
854,7636.155973000314,8,-1337,-4692,1724,707,672,141
855,7644.898893000118,8,-1361,-4904,2035,666,551,29
856,7653.838811000242,8,-1307,-4912,2115,472,272,-119
857,7662.647731000106,8,-1263,-4965,2271,237,-236,-292
858,7671.549649000099,8,-1276,-4920,2308,120,-354,-408
859,7680.317569000181,8,-1356,-4799,2232,28,-668,-484
860,7689.109488000213,8,-1373,-4720,1951,-37,-916,-554
861,7697.976407000169,8,-1405,-4616,1656,-115,-1115,-625
862,7706.776327000171,8,-1461,-4510,1332,-243,-1526,-686
863,7715.56224599999,8,-1505,-4271,789,-334,-1385,-712
864,7724.511163999978,8,-1547,-4015,761,-427,-1416,-719
865,7733.300083999893,8,-1607,-3803,561,-533,-1409,-702
866,7742.199002000234,8,-1590,-3336,336,-642,-1375,-659
867,7751.025922000281,8,-1591,-3396,171,-710,-1283,-604
868,7759.918839999955,8,-1575,-3319,35,-732,-1159,-506
869,7768.874758000038,8,-1563,-3267,-95,-704,-984,-415
870,7777.697678000095,8,-1554,-3217,-223,-629,-532,-314
871,7786.5135970000665,8,-1506,-3138,-285,-551,-525,-216
872,7795.369515999937,8,-1509,-3071,-372,-497,-321,-84
873,7804.243434999989,8,-1506,-3028,-415,-446,-134,19
874,7813.253352000174,9,-1469,-2973,-421,-377,27,132
875,7822.109271000045,8,-1522,-2981,-419,-313,235,267
876,7830.993190000299,8,-1504,-2983,-401,-252,414,460
877,7839.902107999933,8,-1541,-3012,-421,-205,597,631
878,7848.792026999945,8,-1646,-3047,-451,-149,789,802
879,7857.758945000114,8,-1715,-3130,-394,-110,1031,981
880,7866.588864000278,8,-1779,-3237,-396,-48,1216,1162
881,7875.435783000285,8,-1795,-3466,-276,11,1407,1199
882,7884.096703000068,8,-1773,-3680,-106,179,1590,1141
883,7892.921622999893,8,-1658,-3899,197,361,1764,1020
884,7901.789542000188,8,-1570,-4105,605,546,1835,884
885,7910.653460000049,8,-1287,-4256,1038,693,1833,743
886,7919.547379000051,8,-1502,-4437,1348,795,1729,685
887,7928.379297999982,8,-1483,-4660,1640,821,1531,641
888,7937.310216000242,8,-1486,-4902,1878,808,1206,595
889,7946.106136000253,8,-1461,-5113,2079,754,908,501
890,7954.992054000286,8,-1393,-5292,2217,699,608,367
891,7963.72297500011,8,-1321,-5417,2324,626,50,170
892,7972.568894000233,8,-1315,-5445,2053,540,-80,-39
893,7981.344813000305,8,-1373,-5331,2246,398,-444,-338
894,7990.216732000135,8,-1442,-5131,2080,212,-806,-558
895,7999.035651000213,8,-1543,-4661,1830,-30,-1171,-721
896,8007.89457000019,8,-1628,-4704,1586,-210,-1564,-829
897,8016.6404900001,8,-1673,-4474,1344,-362,-1779,-922
898,8025.445409999975,8,-1697,-4347,1032,-462,-1905,-1019
899,8034.191328999896,8,-1745,-4133,816,-524,-1948,-1051
900,8043.107248000069,8,-1799,-3944,618,-559,-1928,-1033
901,8051.874168000268,8,-1791,-3736,434,-566,-1854,-971
902,8061.153083000136,9,-1782,-3564,237,-573,-1755,-909
903,8070.465997000156,9,-1761,-3424,44,-563,-1595,-832
904,8079.665913000099,9,-1730,-3260,-100,-555,-1447,-716
905,8089.039827000306,9,-1677,-3156,-258,-518,-1028,-616
906,8098.214742999971,9,-1644,-3042,-334,-478,-1065,-476
907,8107.404659000167,9,-1616,-3009,-428,-410,-851,-360
908,8116.590574999918,9,-1577,-2979,-766,-335,-590,-248
909,8125.613492999946,9,-1562,-2956,-535,-255,-384,-98
910,8135.123405000286,9,-1572,-2938,-563,-152,-125,23
911,8144.317321000017,9,-1566,-2943,-532,-82,59,188
912,8153.458237999985,9,-1564,-2986,-474,6,314,326
913,8163.088149000032,9,-1586,-3053,-421,54,506,491
914,8171.869068999968,8,-1545,-3131,-383,86,684,595
915,8180.6899880002675,8,-1597,-3173,-312,117,847,683
916,8189.541907000148,8,-1666,-3196,-314,111,1274,770
917,8198.304826999902,8,-1730,-3263,-246,114,1217,883
918,8207.054747000257,8,-2031,-3303,-151,94,1379,1012
919,8215.917666000223,8,-1824,-3418,-128,63,1543,1091
920,8224.743584999942,8,-1880,-3523,-48,67,1690,1153
921,8233.66850299999,8,-1932,-3575,26,91,1833,1204
922,8242.47742300031,8,-1994,-3652,163,146,1899,1251
923,8251.279342000089,8,-2024,-3712,347,203,1937,1293
924,8260.216260000107,8,-2097,-3775,462,288,1959,1340
925,8268.995180000275,8,-2141,-3889,666,328,1951,1383
926,8277.962097999989,8,-2138,-4124,867,366,1906,1373
927,8286.793017000036,8,-1805,-4398,1152,433,1828,1293
928,8295.596936000038,8,-1927,-4787,1464,565,1727,1119
929,8304.542854999909,8,-1795,-4856,1792,670,1556,906
930,8313.340774000153,8,-1657,-5125,2145,771,1347,613
931,8322.28169200016,8,-1513,-5328,2534,830,1064,351
932,8331.103611000344,8,-1500,-5507,2734,804,680,119
933,8339.911531000325,8,-1568,-5599,2773,715,185,-83
934,8348.832448999929,8,-1631,-5552,2662,563,-484,-329
935,8357.668368000304,8,-1695,-5463,2463,367,-1013,-638
936,8366.510286999983,8,-1679,-5271,2147,132,-1742,-872
937,8375.368206000076,8,-1747,-5105,1894,-32,-1885,-1071
938,8384.198125000239,8,-1833,-4799,1373,-170,-2248,-1282
939,8393.21804300016,9,-1931,-4662,1198,-283,-2433,-1515
940,8402.050961999976,8,-2077,-4472,859,-392,-2816,-1639
941,8410.964879999938,8,-2181,-4210,543,-493,-2607,-1677
942,8419.812799000283,8,-2249,-3857,246,-620,-2553,-1642
943,8428.706718000285,8,-2235,-3646,-94,-727,-2430,-1528
944,8437.644636000186,8,-2177,-3437,-301,-801,-2241,-1403
945,8446.445556000072,8,-2148,-3209,-489,-801,-1967,-1248
946,8455.347474000064,8,-2085,-2956,-616,-759,-1709,-1093
947,8464.20639300004,8,-2037,-2812,-768,-687,-1429,-878
948,8472.985313000208,8,-1962,-2695,-869,-588,-1148,-694
949,8481.758232000175,8,-1888,-2587,-929,-464,-864,-521
950,8490.586151000116,8,-1847,-2521,-981,-372,-531,-342
951,8499.4270709999,8,-1794,-2480,-989,-283,-252,-134
952,8508.294989000206,8,-1773,-2457,-982,-216,13,22
953,8517.044909000106,8,-1732,-2490,-899,-126,332,185
954,8526.630822000243,9,-1750,-2590,-825,-62,575,398
955,8535.466741000164,8,-1767,-2660,-717,0,802,550
956,8544.260659999964,8,-1791,-2764,-628,56,1033,701
957,8553.191578000224,8,-1799,-2921,-608,86,1308,828
958,8562.0064980003,8,-1849,-3093,-553,117,1531,963
959,8570.894416000101,8,-1903,-3192,-473,133,1754,1021
960,8579.707335999956,8,-1960,-3370,-392,161,1973,1063
961,8588.5052550002,8,-1983,-3525,-257,180,2169,1090
962,8597.341174000121,8,-2030,-3665,-108,196,2377,1107
963,8606.19409300034,8,-2070,-3752,116,195,2509,1105
964,8615.006013000311,8,-2115,-3922,325,200,2587,1118
965,8623.938931000339,8,-2155,-4320,568,206,2594,1154
966,8632.728851000138,8,-2136,-4257,809,190,2516,1175
967,8641.649769000196,8,-2115,-4426,1115,170,2379,1177
968,8650.546688000304,8,-2081,-4615,1399,168,2196,1151
969,8659.474606000003,8,-1899,-4800,1626,219,1958,1079
970,8668.326525000339,8,-1842,-4983,1852,276,1581,946
971,8677.141443999972,8,-1802,-5102,1941,361,1208,706
972,8686.01436300014,8,-1678,-4960,1997,375,558,523
973,8694.889282000076,8,-1570,-5022,2120,344,487,327
974,8703.826200000094,8,-1547,-5176,2087,306,84,72
975,8712.630119000096,8,-1556,-5270,1985,309,-250,-228
976,8721.589038000275,8,-1570,-5194,1971,350,-604,-497
977,8730.382957000074,8,-1666,-5112,1827,356,-1209,-1008
978,8739.37187499996,8,-1705,-4969,1617,312,-1376,-958
979,8748.168794000321,8,-2046,-4775,1235,208,-1666,-1162
980,8756.971713999974,8,-1893,-4534,888,44,-1924,-1268
981,8765.963630999977,8,-1975,-4302,562,-80,-2091,-1314
982,8774.807551000322,8,-2016,-4079,28,-176,-2196,-1318
983,8783.702469000218,8,-2013,-3881,-56,-259,-2184,-1296
984,8792.541388000245,8,-2057,-3710,-306,-312,-2101,-1262
985,8801.305308000337,8,-2109,-3553,-514,-375,-1967,-1203
986,8810.197227000117,8,-2087,-3384,-648,-407,-1719,-1121
987,8818.95314700023,8,-2058,-3265,-771,-431,-1474,-1014
988,8827.701066999907,8,-2048,-3152,-821,-441,-1214,-854
989,8836.52698600008,8,-1996,-3044,-865,-446,-959,-713
990,8845.266906000234,8,-1942,-2989,-921,-415,-706,-571
991,8854.180824000196,8,-1888,-2950,-899,-377,-414,-433
992,8862.963743999899,8,-1866,-2900,-897,-317,-184,-254
993,8872.545656000057,9,-1836,-2850,-868,-251,78,-100
994,8881.894570999975,9,-1854,-2859,-771,-204,281,91
995,8891.182486000162,9,-1843,-2907,-678,-133,507,265
996,8900.434400999984,9,-1839,-3071,-570,-113,682,429
997,8909.661316999973,9,-1771,-3170,-465,-114,861,534
998,8918.857231999937,9,-1799,-3280,-367,-109,1058,600
999,8928.263146000063,9,-1557,-3403,-159,-99,1180,665
1000,8937.4600619999,9,-1758,-3636,47,-56,1302,675
1001,8946.576978999929,9,-1648,-3823,406,54,1374,651
1002,8955.77789500021,9,-1608,-3999,749,169,1398,614
1003,8964.807812000345,9,-1562,-4264,1199,264,1329,564
1004,8974.624722000044,9,-1422,-4530,1545,382,1173,490
1005,8983.274643000186,8,-1284,-5052,1883,463,948,378
1006,8992.051563000132,8,-1196,-5069,2111,530,568,237
