,time_ms,delta_ms,aX,aY,aZ,gX,gY,gZ
0,0.0,0,-2987,-2956,-78,-199,-223,-501
1,10.139907999928255,10,-2990,-2920,-88,-234,-273,-500
2,19.168825000178913,9,-2992,-2899,-138,-236,-327,-501
3,28.419741000107024,9,-3011,-2868,-174,-246,-353,-493
4,37.509658000089985,9,-3066,-2847,-232,-241,-372,-472
5,49.45554899995841,11,-3105,-2858,-263,-231,-372,-440
6,58.560466000017186,9,-3123,-2864,-318,-234,-357,-407
7,67.97038100012287,9,-3104,-2871,-311,-227,-326,-383
8,77.13929700003064,9,-3084,-2871,-321,-219,-281,-358
9,86.84620899975926,9,-3087,-2861,-320,-216,-258,-330
10,95.90112600017164,9,-3066,-2862,-315,-206,-225,-306
11,105.7010370000171,9,-3291,-2945,-292,-196,-204,-268
12,114.67395499994382,8,-3032,-2997,-264,-188,-189,-216
13,123.53887400013264,8,-3028,-3072,-320,-202,-160,-218
14,132.52579199979664,8,-3014,-2923,-345,-197,-131,-180
15,141.24971299997924,8,-2988,-2916,-269,-188,-101,-164
16,150.11763199981942,8,-2986,-2960,-278,-176,-62,-153
17,158.98055099978592,8,-2941,-3041,-226,-152,-23,-166
18,167.88246999976764,8,-2909,-3015,-172,-138,15,-212
19,176.93138799995722,9,-2922,-3006,-132,-125,20,-240
20,185.815306999757,8,-2919,-2989,-123,-133,18,-244
21,194.75722500010306,8,-2887,-2972,-96,-154,7,-246
22,203.65814399974624,8,-2863,-2964,-104,-196,-12,-226
23,212.5900629998796,8,-2863,-2918,-96,-233,-38,-195
24,221.49598099986179,8,-2843,-2860,-93,-280,-50,-187
25,230.47790000009627,8,-2830,-2792,-60,-288,-37,-180
26,239.33481899985054,8,-2829,-2731,-27,-3,-12,-161
27,248.3567369999946,9,-2835,-2723,-40,-234,3,-109
28,257.17365599984987,8,-2820,-2738,12,-196,24,-34
29,266.99456699998336,9,-2768,-2670,175,-63,140,-26
30,275.931485000001,8,-2791,-2556,214,23,241,-37
31,284.8574039999221,8,-2810,-2496,232,83,257,-24
32,293.63532399975156,8,-2821,-2467,300,78,186,28
33,302.5312429999758,8,-3058,-2522,285,32,97,150
34,311.2991630000579,8,-2762,-2582,429,18,21,298
35,320.2530809999189,8,-2804,-2525,341,-31,-31,415
36,329.054000999804,8,-2779,-2596,326,249,-79,563
37,337.8629210001236,8,-2769,-2629,293,36,-76,637
38,346.7428399999335,8,-2790,-2732,260,53,-85,662
39,355.43376099985835,8,-2786,-3069,244,51,-84,658
40,364.52167800007373,9,-2759,-3020,243,43,-121,697
41,373.34059800014074,8,-2786,-3367,229,45,-153,779
42,382.19151700013754,8,-2752,-3143,249,117,-160,718
43,391.13643500013495,8,-2844,-3234,236,157,-126,628
44,399.94135500000993,8,-2848,-3367,176,216,-145,573
45,408.7392749997889,8,-2864,-3434,109,507,-152,540
46,417.68419399977574,8,-2956,-3477,63,272,-172,518
47,426.475112999924,8,-2988,-3565,-252,279,-206,502
48,435.5610309999065,9,-2979,-3672,-50,250,-223,480
49,444.4099500001357,8,-2965,-3759,-90,237,-220,449
50,453.36786799998663,8,-2960,-3781,-129,223,-230,392
51,462.21178799987683,8,-2980,-3765,196,133,-370,319
52,471.16570599973784,8,-2920,-4095,-174,61,-294,204
53,480.1516239999728,8,-3066,-3748,-221,74,-130,64
54,489.0325430001212,8,-2889,-3810,-196,13,-213,-11
55,497.87146300013774,8,-2737,-3668,-29,-57,-211,-109
56,506.87038099977144,8,-2312,-3512,-343,-173,-129,-585
57,515.7653000001119,8,-2382,-4320,-463,-200,-76,-1011
58,524.7102180001093,8,-2831,-4310,-158,-24,-200,-1325
59,533.6311370001567,8,-2692,-3551,-32,41,-124,-712
60,542.5790549998055,8,-2470,-3449,-166,87,156,11
61,551.5269739998985,8,-2541,-3675,-106,256,288,213
62,560.4228930001227,8,-2334,-3785,-9,400,310,219
63,569.2648119998012,8,-2371,-3633,-78,479,351,34
64,578.2087309999042,8,-2332,-3763,0,481,350,-232
65,587.0806499997343,8,-2243,-3751,-138,562,321,-582
66,595.8795699998518,8,-2320,-3275,213,321,360,-991
67,604.7824880001826,8,-2195,-3945,175,499,374,-840
68,613.5744079997494,8,-2381,-3443,88,461,432,-903
69,622.5463269997817,8,-2469,-3724,79,399,362,-907
70,631.3052470000002,8,-2532,-3598,-256,345,325,-872
71,640.1391660001536,8,-2666,-3506,0,226,252,-802
72,648.7400880000678,8,-2688,-3510,17,150,204,-655
73,657.6090069997917,8,-2703,-3541,21,126,207,-535
74,666.4399269998285,8,-2694,-3825,33,163,240,-444
75,675.3068459997849,8,-2682,-3624,49,218,292,-395
76,684.1777650001859,8,-2703,-3696,76,269,323,-380
77,693.1406829999105,8,-2683,-3712,140,322,323,-393
78,701.9786030000432,8,-2661,-3687,190,368,307,-400
79,710.8075219998682,8,-2587,-3681,249,366,281,-396
80,719.7474409999813,8,-2548,-3669,273,359,269,-392
81,728.5663600000589,8,-2513,-3609,275,363,242,-370
82,737.5152790000357,8,-2481,-3529,302,346,200,-348
83,746.3501980000729,8,-2446,-3440,301,321,124,-321
84,755.229116999999,8,-2450,-3443,289,301,66,-282
85,764.1340360000868,8,-2439,-3428,233,253,-1,-270
86,772.9979559999265,8,-2454,-3395,212,179,-83,-272
87,781.9208739997521,8,-2455,-3385,178,88,-200,-278
88,790.6857940001828,8,-2463,-3348,167,-5,-302,-278
89,799.4467140001689,8,-2465,-3362,120,-141,-417,-296
90,809.4596229998388,10,-2456,-3292,73,-488,-502,-323
91,818.7935380001363,9,-2435,-3192,73,-338,-589,-329
92,828.1254529997568,9,-2439,-3106,11,-404,-641,-313
93,837.3343690000183,9,-2422,-3052,-6,-445,-678,-302
94,846.5182859999913,9,-2459,-2965,-68,-467,-717,-289
95,855.8352009999908,9,-2474,-2917,-119,-465,-737,-268
96,865.0961160001316,9,-2496,-2870,-165,-459,-738,-242
97,874.3330319998677,9,-2541,-2844,-205,-444,-732,-219
98,883.62794700015,9,-2576,-2830,-262,-433,-699,-214
99,892.8378629998406,9,-2589,-2826,-276,-414,-666,-209
100,902.7787730001364,9,-2621,-2843,-281,-425,-655,-202
101,911.7356910001035,8,-2657,-2873,-315,-439,-663,-168
102,920.6526100001611,8,-2676,-2917,-281,-482,-673,-131
103,929.5185289997789,8,-2721,-3022,-276,-559,-681,-89
104,938.4944469998118,8,-2698,-3086,-264,-608,-698,-43
105,947.3883659998137,8,-2734,-3239,-281,-636,-721,13
106,956.3092849998611,8,-2623,-3297,-236,-617,-715,23
107,965.1542040001004,8,-2461,-3344,-186,-566,-685,30
108,974.0581229998497,8,-2349,-3371,-169,-501,-698,75
109,982.9920419997507,8,-2200,-3356,-204,-448,-737,161
110,991.9559599998138,8,-2043,-3394,-265,-400,-772,226
111,1001.4738730001227,9,-1871,-3504,-274,-363,-768,272
112,1010.3667919997861,8,-1759,-3597,-257,-323,-732,302
113,1019.2517119999138,8,-1630,-3711,-238,-287,-711,291
114,1028.0346310000823,8,-1562,-3800,-223,-254,-741,244
115,1037.0025500001248,8,-1487,-3821,-3,-245,-815,174
116,1045.734469999843,8,-1444,-3773,-291,-246,-898,89
117,1054.6123889998853,8,-1442,-3727,-357,-262,-996,64
118,1063.4093089997805,8,-1485,-3694,-488,-289,-1092,80
119,1072.204228999908,8,-1557,-3689,-615,-309,-1161,113
120,1081.1021479999,8,-1626,-3718,-822,-325,-1168,163
121,1089.9470680001286,8,-1701,-3796,-958,-332,-1133,198
122,1098.717987999862,8,-1794,-4094,-1055,-247,-1063,229
123,1107.4189079999996,8,-1826,-3863,-1134,-161,-908,243
124,1117.0088210001268,9,-1846,-3882,-1189,8,-762,260
125,1126.6467330001433,9,-1853,-3929,-1238,138,-562,284
126,1136.1976459998004,9,-1889,-4002,-1270,282,-417,289
127,1145.053566000115,8,-1908,-4030,-1284,398,-243,280
128,1153.9914840000165,8,-1935,-4082,-1283,513,-99,259
129,1162.7554040001087,8,-1940,-4103,-1265,645,45,248
130,1171.7113230001814,8,-1976,-4100,-1269,812,210,250
131,1180.631240999901,8,-1959,-4086,-1214,919,418,255
132,1190.614149999874,9,-1958,-4153,-1163,998,563,239
133,1199.487070000032,8,-1965,-4186,-1110,1028,664,214
134,1208.4219879998273,8,-1950,-4197,-1039,1020,706,162
135,1217.2829080000156,8,-1971,-4201,-978,993,719,109
136,1226.2188260001494,8,-2003,-4170,-908,928,716,70
137,1235.1027449999492,8,-2036,-4171,-897,863,706,34
138,1244.0126639999107,8,-2080,-4146,-878,789,695,12
139,1252.944583000044,8,-2115,-4111,-857,714,699,-14
140,1261.8445019998035,8,-2175,-3844,-816,636,694,-37
141,1270.7444210000176,8,-2242,-4029,-785,572,685,-56
142,1279.62234000006,8,-2294,-3926,-770,497,684,-94
143,1288.5292589999153,8,-2355,-3882,-778,417,696,-135
144,1297.377177999806,8,-2429,-3828,-774,379,713,-159
145,1306.2550969998483,8,-2501,-3753,-710,368,712,-156
146,1315.1470160000827,8,-2545,-3681,-662,388,719,-128
147,1324.057934999928,8,-2585,-3631,-576,431,723,-98
148,1332.94385399995,8,-2636,-3593,-595,472,722,-76
149,1341.833772999962,8,-2653,-3568,-595,499,722,-52
150,1350.6656919998932,8,-2672,-3583,-522,511,697,-42
151,1359.4206130001112,8,-2713,-3583,-535,467,657,-66
152,1368.3515309999166,8,-2723,-3522,-535,405,590,-128
153,1377.1244509998724,8,-2752,-3498,-502,321,498,-207
154,1386.0433700001522,8,-2750,-3480,-460,233,411,-334
155,1394.8202900000979,8,-2732,-3400,-412,144,325,-426
156,1403.639210000165,8,-2730,-3314,-365,68,9,-524
157,1412.5591289998738,8,-2697,-3280,-323,4,179,-608
158,1421.3460490000216,8,-2675,-3206,-322,-36,132,-671
159,1430.1289690001795,8,-2679,-3109,-298,-93,97,-757
160,1439.0348870001617,8,-2710,-2996,-265,-214,58,-808
161,1447.8418069998042,8,-2764,-2931,-232,-328,24,-849
162,1456.746725999892,8,-2787,-2854,-194,-444,-4,-861
163,1465.6056449998687,8,-3070,-2795,-119,-546,-41,-842
164,1474.4365649999054,8,-2847,-2770,-82,-639,-80,-817
165,1483.464482999807,9,-2829,-2743,-50,-697,-120,-779
166,1492.42840099987,8,-2831,-2757,249,-728,-159,-729
167,1501.315319999776,8,-2561,-2762,10,-763,-195,-720
168,1510.152240000025,8,-2743,-2767,66,-764,-234,-724
169,1519.0121589998853,8,-2712,-2762,172,-758,-256,-743
170,1527.928078000059,8,-2678,-2699,196,-754,-277,-762
171,1536.8949959997735,8,-2659,-2700,255,-753,-273,-748
172,1545.7139159998405,8,-2643,-2758,337,-726,-261,-722
173,1554.7318339999947,9,-2646,-2849,423,-684,-246,-712
174,1563.595752999845,8,-2566,-2926,469,-586,-254,-714
175,1572.588671000176,8,-2566,-2958,472,-441,-315,-702
176,1581.4315899997382,8,-2569,-2918,365,-205,-428,-670
177,1590.3915089998009,8,-2595,-2939,276,-1,-504,-595
178,1599.3354269999145,8,-2622,-3086,237,167,-470,-470
179,1608.0503479997788,8,-2708,-3414,319,345,-356,-421
180,1618.0232570000044,9,-2628,-3698,646,738,-216,-482
181,1627.2951729997658,9,-2407,-4095,946,543,-21,-601
182,1636.594088000038,9,-2341,-4001,1269,493,24,-718
183,1645.8480040000723,9,-2300,-3916,1298,335,-58,-730
184,1655.0699200001873,9,-2263,-3656,1338,158,-324,-581
185,1664.2308360001152,9,-2282,-3658,1332,-14,-526,-378
186,1673.4047519998967,9,-2163,-3724,1273,-58,-717,-183
187,1682.69866799983,9,-2043,-3915,1200,47,-776,-22
188,1692.610577999858,9,-1835,-4153,1160,162,-799,15
189,1701.8834929999684,9,-1679,-4214,1096,501,-842,-3
190,1711.2984069999584,9,-1580,-4131,972,258,-943,-22
191,1720.3023249999205,9,-1569,-4012,862,182,-1013,7
192,1729.1042450001441,8,-1286,-3913,798,82,-1054,86
193,1738.0681629997525,8,-1541,-3587,725,-15,-774,232
194,1746.9940820001284,8,-1586,-3809,612,-63,-940,367
195,1755.8680010001808,8,-1791,-3823,604,-81,-837,518
196,1764.8059200000716,8,-1499,-3873,585,-95,-758,639
197,1773.6528390000785,8,-1425,-3910,590,-152,-709,1014
198,1782.666756999788,9,-1417,-3956,654,-226,-701,854
199,1791.5716759998759,8,-1445,-3962,581,-325,-728,948
200,1800.4525950000243,8,-1470,-4033,521,-449,-754,1034
201,1809.3425140000363,8,-1520,-4084,475,-509,-775,1105
202,1818.308431999867,8,-1615,-4165,267,-508,-755,1163
203,1826.9993529997919,8,-1699,-4149,96,-461,-718,1201
204,1835.88827199992,8,-1779,-4126,15,-365,-657,1229
205,1844.7801910001544,8,-1872,-4130,-125,-239,-522,1257
206,1853.634110999792,8,-1950,-4107,-260,-107,-402,1294
207,1862.5070299999607,8,-1995,-4104,-367,45,-252,1336
208,1871.2849499997901,8,-2076,-4088,-431,192,-84,1386
209,1880.1098700000693,8,-2117,-4117,-430,305,88,1446
210,1888.9197889998286,8,-2163,-4232,-501,334,323,1462
211,1897.722708999936,8,-2199,-4308,-479,358,463,1479
212,1906.4886289997958,8,-2231,-4361,-430,374,559,1479
213,1915.320549000171,8,-2210,-4368,-357,447,647,1448
214,1924.1024689999904,8,-2157,-4358,-335,540,713,1397
215,1932.890389000022,8,-2176,-4304,-260,632,748,1324
216,1941.8163069999537,8,-2141,-4210,-258,706,742,1203
217,1950.6442269998843,8,-2158,-4163,-243,749,725,1110
218,1959.4071470000927,8,-2133,-4093,-291,785,686,1030
219,1968.3270659998016,8,-2161,-4000,-301,815,637,981
220,1977.1319860001313,8,-2185,-3927,-319,856,607,934
221,1986.0009049998553,8,-2212,-3880,-357,913,599,910
222,1994.9088240000492,8,-2290,-3863,-373,954,598,887
223,2004.5227360001263,9,-2336,-3932,-381,963,583,817
224,2013.4516550001536,8,-2349,-3957,-417,946,540,728
225,2022.3275739999735,8,-2407,-3909,-405,949,505,604
226,2031.234492999829,8,-2412,-3873,-372,966,483,446
227,2040.2264109998214,8,-2414,-3861,-301,1001,504,334
228,2049.0873300000203,8,-2421,-3835,-328,1067,544,246
229,2057.911249999961,8,-2389,-3805,-300,1118,582,174
230,2066.715169999952,8,-2406,-3765,-344,1115,633,67
231,2075.7780869998896,9,-2403,-3786,-335,1118,679,10
232,2084.789004999948,9,-2437,-3736,-329,1126,702,-35
233,2093.6449249998077,8,-2489,-3742,-319,1129,699,-78
234,2102.5908430001436,8,-2494,-3756,-298,1128,698,-142
235,2111.4177629997357,8,-2521,-3733,-274,1103,671,-246
236,2122.298664000027,10,-2579,-3696,-263,1033,632,-345
237,2131.2225830001807,8,-2584,-3687,-248,966,592,-454
238,2140.0605019998693,8,-2602,-3672,-226,896,559,-575
239,2148.89242199979,8,-2633,-3611,-179,809,525,-663
240,2157.781340999918,8,-2697,-3570,-189,691,492,-742
241,2166.6522599998643,8,-2726,-3505,-139,589,446,-810
242,2175.451179999982,8,-2757,-3432,-136,496,401,-869
243,2184.2140999997355,8,-2790,-3379,-80,391,354,-939
244,2193.120019000162,8,-2829,-3293,-116,252,304,-991
245,2202.009938000174,8,-2890,-3279,-106,147,255,-1053
246,2210.7878580000033,8,-2903,-3213,-132,53,204,-1122
247,2219.635776999894,8,-2940,-3139,-145,-23,163,-1206
248,2228.4316969999054,8,-2946,-3057,-139,-90,134,-1246
249,2237.24861699975,8,-2962,-3000,-156,-146,120,-1258
250,2246.1795359999996,8,-2968,-2902,-130,-182,116,-1258
251,2254.986456000097,8,-2958,-2862,-141,-197,126,-1241
252,2263.8743749998866,8,-2995,-2817,-119,-200,129,-1224
253,2272.7202940000097,8,-2984,-2802,-83,-181,136,-1190
254,2281.5262139997685,8,-2987,-2761,-102,-179,153,-1174
255,2290.4331330000787,8,-2978,-2740,-106,-181,168,-1169
256,2299.3600519998836,8,-2993,-2720,-141,-213,176,-1177
257,2308.271970000078,8,-2981,-2659,-136,-252,160,-1196
258,2317.1328899998116,8,-2979,-2583,-106,-284,131,-1189
259,2326.0418089998893,8,-2965,-2556,-97,-287,119,-1153
260,2334.9127279998356,8,-2923,-2527,-110,-300,114,-1104
261,2343.9106460000403,8,-2888,-2481,-83,-290,124,-1046
262,2352.758564999931,8,-2882,-2443,-82,-289,131,-973
263,2361.658484000145,8,-2860,-2437,-82,-292,132,-884
264,2370.522403999985,8,-2815,-2461,-62,-286,149,-840
265,2379.3413230000624,8,-2763,-2457,-19,-278,155,-803
266,2388.3602410001004,9,-2761,-2564,-256,-275,161,-745
267,2397.215160000087,8,-2763,-2452,-49,-298,147,-727
268,2406.1720790000436,8,-2734,-2508,89,-301,171,-659
269,2415.660993000074,9,-2697,-2450,216,-331,172,-601
270,2424.979907999841,9,-2637,-2549,315,-342,152,-498
271,2434.355821999816,9,-2692,-2541,334,-326,114,-389
272,2443.5337390000313,9,-2601,-2593,418,-317,57,-317
273,2452.8116540000156,9,-2559,-2661,419,-286,-7,-1
274,2462.06157000006,9,-2529,-2702,389,-292,-101,-173
275,2471.272486000089,9,-2463,-2729,353,-334,-228,-112
276,2480.5434019999666,9,-2500,-2930,260,-374,-308,1
277,2489.7653180000816,9,-2454,-3288,225,-421,-349,75
278,2498.9312339998833,9,-2430,-3230,507,-446,-275,212
279,2508.3031489998575,9,-2417,-3411,363,-437,-172,325
280,2517.8020620001007,9,-2364,-3606,711,-387,-46,402
281,2526.6079819998595,8,-2239,-3757,676,-314,21,438
282,2535.4979009998715,8,-2154,-3866,899,-219,28,418
283,2544.2668209998374,8,-2038,-3889,979,-101,-16,377
284,2553.248740000072,8,-1992,-3830,1047,-19,-159,347
285,2562.039659999755,8,-1945,-3754,1033,6,-294,365
286,2570.917578999797,8,-1907,-3728,975,-11,-417,419
287,2579.764497999804,8,-1979,-3714,887,-45,-520,501
288,2588.590417999967,8,-1990,-3720,798,-68,-611,582
289,2597.609336000005,9,-2039,-3692,711,-89,-643,669
290,2606.44225499982,8,-2053,-3759,590,-122,-652,720
291,2615.3591739998774,8,-2089,-3815,535,-121,-656,747
292,2624.218092999854,8,-2053,-3908,520,-109,-657,744
293,2633.180012000139,8,-2041,-4007,469,-81,-668,715
294,2642.091930999868,8,-2053,-4086,516,-46,-697,678
295,2651.0658490001333,8,-1975,-4130,410,-8,-719,665
296,2659.9077679998118,8,-2033,-4050,359,14,-766,646
297,2668.771688000106,8,-2039,-4031,289,17,-795,678
298,2677.6766069997393,8,-2055,-4070,233,51,-785,721
299,2686.463526999887,8,-2054,-4077,106,102,-748,1021
300,2695.3944450001472,8,-2110,-4132,30,148,-661,800
301,2704.269365000073,8,-2126,-4209,-16,147,-592,804
302,2713.305281999965,9,-2102,-4284,12,88,-543,773
303,2722.2102010000526,8,-2058,-4327,57,60,-500,735
304,2731.128119999994,8,-2052,-4353,68,40,-503,707
305,2739.9930390001828,8,-2039,-4404,40,23,-538,709
306,2748.8129590001336,8,-2017,-4386,-30,0,-590,715
307,2757.7888770001664,8,-2007,-4330,-106,-30,-655,716
308,2766.6687959999763,8,-2020,-4323,-155,-56,-691,696
309,2775.5977150000035,8,-2003,-4296,-281,-64,-692,668
310,2784.5726330001526,8,-2001,-4326,-361,-22,-658,627
311,2793.461551999826,8,-2007,-4289,-406,38,-558,570
312,2802.387470999747,8,-2044,-4229,-494,97,-463,507
313,2811.2163910000163,8,-2300,-4199,-551,121,-391,456
314,2820.053309999821,8,-2052,-4198,-559,116,-326,412
315,2828.897230000166,8,-2080,-4213,-560,91,-284,354
316,2837.694150000061,8,-2106,-4171,-540,68,-256,21
317,2846.467070000017,8,-2149,-4122,-507,55,-236,173
318,2855.4229880001003,8,-2173,-3845,-492,41,-208,98
319,2864.1269089998787,8,-2203,-4067,-497,39,-185,35
320,2872.9928279999513,8,-2244,-4027,-259,30,-148,-6
321,2881.8557469999178,8,-2255,-3977,-482,39,-122,-61
322,2890.6156680000095,8,-2282,-3932,-477,48,-95,-88
323,2899.470586999996,8,-2316,-3893,-505,60,-60,-118
324,2908.335506000185,8,-2343,-3850,-756,69,-18,-160
325,2917.1574259999034,8,-2403,-3782,-546,61,7,-219
326,2926.092345000143,8,-2426,-3737,-519,68,40,-272
327,2934.942263999801,8,-2478,-3684,-515,58,79,-309
328,2943.9331819999097,8,-2535,-3624,-508,67,136,-333
329,2952.7941010001086,8,-2815,-3580,-485,79,189,-349
330,2961.6070209999634,8,-2600,-3586,-477,85,243,-366
331,2970.483940000122,8,-2637,-3561,-464,100,280,-397
332,2979.269859999931,8,-2659,-3513,-419,97,329,-439
333,2988.1597789999432,8,-2696,-3491,-414,104,365,-490
334,2997.0116989998132,8,-2700,-3489,-347,88,394,-539
335,3006.544611999743,9,-2729,-3451,-359,71,403,-601
336,3015.5515299998115,9,-2724,-3363,-313,62,405,-678
337,3024.40445000002,8,-2722,-3340,-283,55,404,-717
338,3033.362367999871,8,-2757,-3297,-279,41,408,-746
339,3042.2112880000896,8,-2754,-3203,-253,42,414,-1024
340,3051.1682060000567,8,-2788,-3144,-197,32,413,-781
341,3060.082125000008,8,-2776,-3123,-167,23,411,-762
342,3068.9350439997725,8,-2785,-3111,-180,-6,392,-729
343,3077.776963999895,8,-2825,-3134,-222,-67,380,-716
344,3086.6658830000233,8,-2825,-3099,-280,-114,384,-747
345,3095.5958019999343,8,-2852,-3001,-317,-179,401,-773
346,3104.4817209999565,8,-2888,-2840,-300,-222,410,-795
347,3113.477638999939,8,-2897,-2775,-248,-233,419,-757
348,3122.337557999799,8,-2878,-2754,-140,-214,438,-691
349,3131.243476999771,8,-2859,-2748,-160,-132,478,-629
350,3140.053396999974,8,-2837,-2755,-162,-70,559,-596
351,3148.858316999849,8,-2832,-2739,-157,-32,604,-553
352,3157.7332359997854,8,-2848,-2663,-158,-25,620,-488
353,3166.571155999918,8,-2857,-2630,-142,-64,619,-432
354,3175.49707399985,8,-2828,-2647,-93,-86,633,-376
355,3184.3139940001493,8,-2797,-2671,-20,-97,656,-331
356,3193.134913999984,8,-2743,-2687,87,-87,688,-301
357,3201.970832999905,8,-2724,-2706,166,-59,712,-264
358,3210.752753000179,8,-2663,-2725,222,-48,701,-193
359,3219.3186750000677,8,-2643,-2736,312,-44,673,-85
360,3229.3135840000105,9,-2603,-2762,358,-52,638,250
361,3238.6145000000397,9,-2583,-2836,364,-76,575,59
362,3247.913414999857,9,-2593,-2922,427,-130,520,79
363,3257.184330999735,9,-2529,-3029,745,-138,477,53
364,3266.498246000083,9,-2512,-3110,560,-106,420,27
365,3275.7721620000666,9,-2442,-3168,581,-62,352,14
366,3285.064076999788,9,-2429,-3222,649,-10,293,26
367,3294.411991999823,9,-2410,-3271,636,31,205,88
368,3303.630907999832,9,-2468,-3289,592,25,115,185
369,3312.7838249997694,9,-2458,-3368,516,-12,30,282
370,3322.6517349999085,9,-2477,-3572,424,-70,-48,407
371,3331.450655000026,8,-2450,-3792,349,-112,-117,468
372,3340.3325740000582,8,-2369,-4044,286,-132,-157,473
373,3348.9184959998965,8,-2291,-4281,185,-122,-178,421
374,3357.8484149998076,8,-2208,-4477,94,-114,-188,325
375,3366.8373330001486,8,-2092,-4571,67,-125,-168,211
376,3375.64125300014,8,-2006,-4646,20,-186,-157,128
377,3384.4961720001265,8,-1965,-4812,-35,-267,-188,104
378,3393.331092000153,8,-1883,-4986,-117,-380,-236,138
379,3402.260009999736,8,-1554,-5160,-196,-513,-291,147
380,3411.185929000112,8,-1775,-5287,-294,-684,-373,108
381,3420.0638480001544,8,-1755,-5323,-352,-859,-487,21
382,3428.8797680001153,8,-1727,-5348,-321,-1079,-576,-117
383,3437.8316869997434,8,-2048,-5272,-385,-1297,-690,-246
384,3446.68260599974,8,-1866,-5153,-407,-1595,-813,-387
385,3455.7035240000005,9,-1912,-5023,-481,-1812,-943,-768
386,3464.641441999902,8,-1850,-4897,-418,-2296,-1007,-604
387,3473.4793620000346,8,-1897,-4804,-524,-2236,-1113,-629
388,3482.456279999951,8,-1989,-4362,-688,-2436,-1241,-656
389,3491.30120000018,8,-2013,-4400,-844,-2546,-1341,-714
390,3500.3901169998244,9,-2010,-4275,-1079,-2579,-1346,-770
391,3509.243037000033,8,-2058,-4141,-1233,-2501,-1041,-792
392,3518.1099559999893,8,-2014,-4027,-1229,-2420,-1152,-798
393,3527.040874999784,8,-2082,-3945,-1273,-2328,-1050,-791
394,3535.9257939999225,8,-2038,-3793,-1212,-2301,-962,-789
395,3544.844711999758,8,-2113,-3754,-1211,-2315,-947,-771
396,3553.792630999851,8,-2171,-3615,-1281,-2337,-965,-765
397,3562.7215499998783,8,-2166,-3514,-1327,-2344,-963,-774
398,3571.7364679999264,9,-2172,-3469,-1467,-2302,-940,-770
399,3580.5653869997514,8,-2237,-3388,-1545,-2190,-919,-771
400,3589.4013070001165,8,-2263,-3234,-1611,-2056,-840,-788
401,3598.4132250000584,9,-2325,-3153,-1624,-1899,-739,-803
402,3607.20914500007,8,-2344,-3149,-1582,-1749,-604,-811
403,3616.124063999905,8,-2318,-3133,-1578,-1615,-482,-812
404,3624.898984000083,8,-2337,-3018,-1302,-1512,-377,-823
405,3633.697903999746,8,-2270,-2979,-1430,-1456,-295,-802
406,3642.5718229997983,8,-2194,-3031,-1352,-1448,-276,-745
407,3651.387742999759,8,-2220,-2961,-1370,-1451,-340,-707
408,3660.152662999735,8,-2157,-2924,-1344,-1462,-419,-716
409,3668.956583000181,8,-2152,-2923,-1460,-1442,-473,-731
410,3677.9965010000524,9,-2198,-2849,-1506,-1414,-524,-717
411,3686.9474189998073,8,-2121,-2852,-1538,-1344,-516,-681
412,3695.7513389997985,8,-2160,-2828,-1616,-1273,-527,-644
413,3704.6072580001237,8,-2170,-2796,-1636,-1232,-540,-639
414,3713.4631779999836,8,-2115,-2817,-1577,-1187,-509,-626
415,3722.3430969997935,8,-2110,-2786,-1592,-1233,-518,-622
416,3731.2470159999975,8,-2066,-2781,-1632,-1301,-585,-614
417,3740.0889350001307,8,-2047,-2785,-1703,-1346,-654,-602
418,3748.965854999824,8,-1799,-2760,-1754,-1352,-711,-581
419,3757.875772999796,8,-1998,-2746,-1805,-1275,-721,-553
420,3766.8476919998284,8,-1972,-2772,-1880,-1165,-685,-534
421,3775.6936109999515,8,-1967,-2751,-1942,-787,-658,-520
422,3784.6705299998575,8,-1956,-2729,-1959,-960,-636,-504
423,3793.494448999809,8,-1926,-2791,-2021,-963,-665,-462
424,3802.555366999968,9,-1864,-3125,-1612,-909,-612,-421
425,3811.4292860000205,8,-1619,-3528,-2274,-184,-141,43
426,3820.3902039999775,8,-2049,-2293,-2462,-340,-273,-58
427,3829.276123999989,8,-1976,-2934,-2131,-539,-428,-125
428,3838.156042999799,8,-1653,-2872,-2310,-358,-177,-136
429,3847.0149619997756,8,-1893,-2681,-2465,-578,-311,-302
430,3855.909881000116,8,-1698,-3003,-2226,-759,-388,-339
431,3864.8198000000775,8,-1617,-2962,-2201,-559,-259,-370
432,3873.730718999923,8,-1683,-2832,-2278,-535,-296,-413
433,3882.690636999996,8,-1309,-3104,-2263,-574,-272,-409
434,3891.549556999962,8,-1385,-3273,-2233,-509,-146,-429
435,3900.457476000156,8,-1356,-3323,-2129,-448,-20,-764
436,3909.079396999914,8,-1303,-3400,-2085,-341,29,-594
437,3918.102314999942,9,-1257,-3382,-1988,-4,22,-693
438,3926.9402350000746,8,-1255,-3152,-1893,-246,-71,-817
439,3935.73715499997,8,-1149,-3137,-1778,-234,-217,-895
440,3944.672072999765,8,-1224,-2809,-1748,-196,-264,-1042
441,3953.4719929997664,8,-1208,-2817,-1698,-125,-294,-1061
442,3962.233913000091,8,-1194,-2901,-1740,-23,-356,-963
443,3971.1828320000677,8,-1295,-2893,-1889,-114,-568,-854
444,3979.967751999993,8,-1273,-2969,-1829,-276,-803,-811
445,3988.78667200006,8,-1254,-3344,-1983,-356,-859,-891
446,3997.620590999759,8,-1250,-3707,-2093,-335,-900,-1046
447,4007.1125049998955,9,-1289,-3970,-2271,207,-899,-1399
448,4018.808399000136,11,-1416,-3708,-2342,209,-920,-1653
449,4027.7883170001587,8,-1467,-3546,-2063,307,-931,-1838
450,4036.6712360000747,8,-1511,-3445,-2206,298,-948,-1834
451,4045.538155000031,8,-1539,-3063,-2236,202,-1024,-1798
452,4054.424074000053,8,-1660,-2608,-2264,-12,-1123,-1745
453,4063.383993000116,8,-1705,-2872,-2510,-49,-1106,-2044
454,4072.2719119999056,8,-1836,-2375,-2570,55,-944,-1968
455,4081.239830999948,8,-1888,-2058,-2895,159,-787,-2050
456,4090.0987499999246,8,-1862,-2501,-3079,392,-403,-1790
457,4103.311630000007,13,-1893,-2156,-3174,432,-374,-1287
458,4112.054549999812,8,-2142,-1670,-2977,347,-301,-1447
459,4121.0664679997535,9,-1662,-2265,-3130,468,-146,-1164
460,4130.016387000069,8,-1878,-2109,-3162,58,-667,-538
461,4138.899305999985,8,-2099,-2177,-2930,-524,-938,-309
462,4147.589227000026,8,-1469,-2532,-2554,-700,-913,-323
463,4156.551144999867,8,-1242,-3099,-2377,-554,-719,-128
464,4165.522064000015,8,-1920,-1918,-2422,-477,-623,-275
465,4174.369982999906,8,-1293,-2625,-2354,-133,-370,-155
466,4183.329901999969,8,-1612,-2307,-2703,-254,-376,-130
467,4192.241821000152,8,-1796,-2558,-2698,-397,-659,-100
468,4201.41473700005,9,-1705,-2627,-2477,-447,-995,241
469,4210.429655000098,9,-1556,-2475,-2282,-552,-1037,82
470,4219.077576000018,8,-1377,-2313,-2195,-627,-821,82
471,4227.921495999908,8,-1351,-2614,-2022,-428,-275,117
472,4236.948413999926,9,-1423,-2575,-1971,-205,-364,150
473,4245.776332999867,8,-1536,-2510,-2017,-128,-402,213
474,4254.691252000157,8,-1571,-2453,-2025,-107,-508,266
475,4264.218165999864,9,-1642,-2369,-2035,-146,-608,314
476,4273.178083999937,8,-1676,-2319,-1928,-125,-632,361
477,4282.0040040001,8,-1954,-1024,-2206,75,-535,314
478,4290.76592399997,8,-1251,-2503,-1962,16,-264,468
479,4299.52784399984,8,-1854,-2378,-1357,155,-377,547
480,4308.2997649999015,8,-1606,-2191,-1784,474,-37,484
481,4317.0666850001,8,-2173,-2181,-1858,733,24,337
482,4325.838605000172,8,-2117,-2222,-1953,875,-33,90
483,4334.732524000174,8,-2340,-2544,-2022,1009,-74,-172
484,4343.512443999771,8,-2352,-3523,-1835,1577,203,152
485,4352.4753629999395,8,-2625,-2169,-2251,1759,197,-43
486,4361.242283000138,8,-2520,-2641,-2087,1624,-56,317
487,4370.476198999768,9,-2282,-1876,-1652,1672,-2,438
488,4379.380117999972,8,-2502,-2028,-1632,1498,-75,777
489,4388.329035999959,8,-2457,-2148,-1498,1053,-119,1151
490,4397.169955999743,8,-2595,-2029,-1551,1117,-202,1473
491,4406.167873999948,8,-2649,-2029,-1485,999,-216,1654
492,4415.005794000081,8,-2642,-2167,-1418,966,-116,1711
493,4423.993712000083,8,-2711,-2572,-1402,1256,-39,1695
494,4432.879631000105,8,-2788,-2695,-1383,1166,252,1639
495,4441.837549999946,8,-2790,-2973,-1344,1416,66,1564
496,4450.718469000094,8,-2625,-3172,-1061,1652,211,1505
497,4459.523388999969,8,-2574,-3397,-957,1709,280,1521
498,4468.47330699984,8,-2680,-3361,-833,1574,90,1589
499,4477.323226999943,8,-2811,-3348,-816,1399,-115,1680
500,4486.279145000026,8,-2877,-3310,-941,1209,-276,1804
501,4495.190063999871,8,-2944,-3395,-991,1013,-349,1893
502,4504.186981999737,8,-2980,-3423,-1054,964,-305,1940
503,4513.03690199984,8,-3081,-3396,-1156,911,-279,1943
504,4521.917820999988,8,-3136,-3461,-1195,529,-280,1932
505,4530.770739999753,8,-3172,-3849,-1131,635,-300,1883
506,4539.701659000002,8,-3088,-4288,-791,582,-327,1670
507,4548.520579000069,8,-2915,-4443,-963,594,-294,1254
508,4557.335499000146,8,-2849,-4576,-873,630,-305,991
509,4566.300417000093,8,-2737,-4702,-1084,633,-312,828
510,4575.120337000044,8,-2863,-4523,-1187,448,-467,690
511,4584.059255999819,8,-2818,-4508,-1207,220,-580,602
512,4592.85117599984,8,-2797,-4497,-1242,-227,-678,567
513,4601.75409500016,8,-2701,-4477,-1286,-118,-712,503
514,4610.65001399993,8,-2691,-4352,-1286,-106,-674,407
515,4619.423933999769,8,-2722,-4190,-1358,-15,-624,296
516,4628.281852999862,8,-2664,-4093,-1368,65,-570,210
517,4637.077772999874,8,-2649,-4062,-1395,158,-530,205
518,4645.8436940001775,8,-2610,-3966,-1479,265,-503,236
519,4654.813611999998,8,-2597,-3961,-1477,357,-389,233
520,4663.583531999848,8,-2530,-4005,-1415,452,-249,199
521,4672.496450999915,8,-2478,-4060,-1326,517,-123,160
522,4681.286371000169,8,-2467,-4083,-1242,605,-38,127
523,4690.0902910001605,8,-2439,-4049,-1171,664,-12,95
524,4698.9332100001775,8,-2426,-4078,-1103,696,-21,89
525,4707.769130000088,8,-2503,-4046,-1045,802,23,2
526,4716.612050000094,8,-2370,-3974,-1073,944,62,-65
527,4725.402969999777,8,-2395,-3901,-1133,1043,22,-115
528,4734.267888999966,8,-2496,-3906,-1240,1128,14,-141
529,4743.190807999781,8,-2451,-3831,-1231,1320,84,-262
530,4752.090726999995,8,-2480,-3691,-1308,1628,202,-356
531,4761.003646000063,8,-2521,-3340,-1315,1964,391,-453
532,4769.923564999772,8,-2549,-3518,-1328,2331,587,-540
533,4778.731483999763,8,-2598,-3411,-1292,2675,784,-598
534,4787.68040299974,8,-2632,-3370,-1213,3078,1256,-621
535,4796.5083230001255,8,-2646,-3317,-1203,3317,1202,-589
536,4805.509240999982,9,-2626,-3341,-976,3501,1377,-524
537,4814.447158999883,8,-2571,-3387,-902,3654,1570,-467
538,4823.353077999855,8,-2663,-3427,-878,3669,1660,-444
539,4832.218997999917,8,-2657,-3495,-762,3569,1713,-471
540,4841.128916999878,8,-2628,-3545,-653,3438,1738,-541
541,4849.996836000173,8,-2910,-3964,-511,3220,1675,-464
542,4858.811755999795,8,-2604,-3834,-431,2955,1600,-507
543,4867.828674000066,9,-2626,-3707,-292,2717,1508,-265
544,4876.6525940000065,8,-2587,-3772,-237,2490,1393,-499
545,4885.603511999761,8,-2583,-3863,-161,2217,1035,-524
546,4894.414431999849,8,-2552,-3921,-101,1908,1216,-561
547,4903.350350999972,8,-2582,-3992,-97,1654,1091,-551
548,4912.25527000006,8,-2578,-3926,-26,1405,956,-545
549,4921.155188999819,8,-2578,-3834,-37,1181,851,-548
550,4929.913109000154,8,-2647,-3591,-19,935,735,-538
551,4938.694029000089,8,-2596,-3709,13,767,625,-562
552,4947.361949999959,8,-2634,-3636,12,641,567,-607
553,4956.450867000058,9,-2679,-3638,-3,506,493,-600
554,4965.31278700013,8,-2711,-3555,-23,343,406,-595
555,4974.074707,8,-2750,-3498,-45,196,307,-610
556,4982.965625999896,8,-2773,-3430,-82,54,247,-648
557,4991.809545999786,8,-2779,-3350,-116,-55,204,-668
558,5000.635465999949,8,-2830,-3300,-144,-161,172,-681
559,5010.152378999919,9,-2823,-3274,-162,-223,166,-682
560,5019.01229799978,8,-2870,-3191,-165,-507,156,-662
561,5027.839217999826,8,-2874,-3104,-192,-312,150,-641
562,5036.773137000182,8,-2870,-3039,-196,-383,157,-629
563,5045.6620559998555,8,-2893,-3036,-192,-447,152,-598
564,5054.535974999908,8,-2873,-2961,-191,-765,144,-562
565,5063.386894999894,8,-2892,-2942,-200,-608,132,-505
566,5072.266814000159,8,-2897,-2868,-228,-724,74,-432
567,5081.171732999792,8,-2913,-2823,-228,-865,27,-312
568,5090.021652999894,8,-2924,-2786,-246,-1277,-25,-196
569,5098.886572000083,8,-2885,-2774,-186,-1215,-70,-94
570,5107.775490999757,8,-2863,-2747,-151,-1280,-39,-35
571,5116.733410000052,8,-2902,-2592,-302,-1312,16,36
572,5128.922298999896,12,-2978,-2993,-76,-1222,-150,184
573,5137.655218999953,8,-2971,-2329,-14,-1117,-209,348
574,5146.482139,8,-3028,-2420,-206,-1190,-8,538
575,5155.315058999804,8,-2905,-2372,-140,-1029,173,655
576,5164.3779759997415,9,-2887,-2350,-67,-834,393,661
577,5173.293894999915,8,-2882,-2314,-82,-592,638,573
578,5182.188813999801,8,-2951,-2245,-145,-408,806,473
579,5191.062733999843,8,-3018,-2243,-154,-302,859,418
580,5199.882652999804,8,-3019,-2308,-89,-240,880,421
581,5208.736572999896,8,-3024,-2291,-14,-198,898,488
582,5217.658491999828,8,-3047,-2322,15,-136,915,548
583,5226.8554080001195,9,-3056,-2490,245,31,917,575
584,5235.5643289997715,8,-2947,-2507,85,88,1035,545
585,5244.267250000121,8,-2930,-2572,238,189,1080,590
586,5253.230167999845,8,-2949,-2639,282,312,1059,628
587,5262.023087999751,8,-2851,-2732,443,381,1047,722
588,5270.870007999747,8,-2842,-2799,523,445,917,808
589,5279.671927999971,8,-2886,-2807,740,414,750,929
590,5288.448847999916,8,-2804,-2919,643,320,575,978
591,5297.200768000039,8,-2741,-3042,627,228,445,966
592,5306.074688000081,8,-2705,-3175,681,148,342,943
593,5314.912606999769,8,-2680,-3234,699,108,180,892
594,5323.8445259999025,8,-2681,-3321,700,51,71,821
595,5332.679445999929,8,-2713,-3404,700,-19,-32,816
596,5341.477366000163,8,-2818,-3495,673,-132,-198,840
597,5350.364285000069,8,-2803,-3433,603,-249,-372,867
598,5359.1812049999135,8,-2832,-3428,460,-339,-476,822
599,5368.131122999785,8,-2889,-3521,360,-394,-522,776
600,5377.031041999999,8,-2937,-3509,262,-374,-555,748
601,5385.9049620000405,8,-2954,-3454,2,-356,-584,722
602,5394.831879999856,8,-2972,-3635,227,-362,-583,723
603,5403.712799999994,8,-2940,-3774,261,-402,-622,728
604,5412.751716999992,9,-2864,-3816,281,-454,-713,689
605,5421.62863700014,8,-2808,-3845,4,-533,-820,570
606,5431.13755000013,9,-2775,-3949,160,-596,-913,468
607,5440.472464999857,9,-2748,-3983,201,-622,-1018,302
608,5449.775381000109,9,-2753,-3991,143,-570,-1061,152
609,5459.037296000133,9,-2835,-3891,-243,-521,-1091,10
610,5468.282211999849,9,-2943,-3778,-127,-466,-1080,-78
611,5477.481128999898,9,-3027,-3655,-502,-451,-1026,-101
612,5486.797044000014,9,-3073,-3631,-387,-762,-978,-66
613,5496.006960000159,9,-3138,-3333,-428,-593,-934,-49
614,5505.342874999769,9,-3098,-3537,-484,-640,-876,-122
615,5514.589791000162,9,-3050,-3540,-499,-639,-810,-199
616,5523.795707999852,9,-2995,-3490,-453,-602,-761,-279
617,5533.502619000046,9,-2947,-3478,-416,-510,-739,-323
618,5542.4715379999725,8,-2906,-3473,-396,-352,-732,-352
619,5551.453455999763,8,-2925,-3407,-489,-214,-730,-387
620,5560.376375000033,8,-2885,-3433,-518,-88,-707,-407
621,5569.241293999767,8,-2862,-3432,-513,-20,-659,-434
622,5578.1392129997585,8,-2845,-3432,-578,19,-631,-474
623,5587.095131999831,8,-2872,-3349,-653,43,-621,-548
624,5596.016050999879,8,-2873,-3353,-690,62,-584,-602
625,5604.9279700000625,8,-2857,-3387,-759,72,-533,-654
626,5613.802888999999,8,-2854,-3305,-766,92,-488,-717
627,5622.719808000056,8,-2877,-3233,-808,123,-447,-757
628,5631.589727000119,8,-2861,-3199,-774,164,-404,-766
629,5640.415646999827,8,-2868,-3165,-789,221,-363,-772
630,5649.333565999768,8,-2870,-3144,-796,293,-339,-766
631,5658.238484999856,8,-2891,-3151,-836,370,-301,-771
632,5667.107404000035,8,-2900,-3156,-827,450,-249,-793
633,5675.926324000102,8,-2876,-3132,-833,512,-189,-835
634,5684.836243000063,8,-2890,-3168,-831,554,-139,-864
635,5693.626162999863,8,-2902,-3184,-822,598,-97,-872
636,5702.515081999991,8,-2946,-3221,-845,652,-59,-893
637,5711.338002000048,8,-2964,-3202,-841,678,-22,-916
638,5720.297920000121,8,-2940,-3130,-814,716,9,-921
639,5729.056840999874,8,-2955,-3149,-830,776,35,-865
640,5737.896759999785,8,-2890,-2817,-823,796,91,-798
641,5746.619681000084,8,-2839,-3327,-806,780,154,-747
642,5755.465600999742,8,-2819,-3120,-822,729,226,-713
643,5764.308519999759,8,-2812,-3113,-808,666,267,-722
644,5773.181438999927,8,-2784,-3126,-778,574,289,-741
645,5782.074359000035,8,-2755,-3152,-751,471,309,-749
646,5790.9772779999,8,-2722,-3165,-718,383,325,-726
647,5799.835196999993,8,-2731,-3132,-696,338,338,-674
648,5808.665117000146,8,-2685,-3193,-700,17,359,-639
649,5817.675034999866,9,-2686,-3219,-674,190,390,-597
650,5826.530953999736,8,-2761,-3162,-670,149,416,-529
651,5835.558872000092,9,-2699,-3062,-617,88,432,-468
652,5844.3737920001695,8,-2703,-3087,-616,21,449,-410
653,5853.399709999849,9,-2700,-3071,-563,-30,460,-358
654,5862.2576289999415,8,-2724,-2995,-263,-53,468,-328
655,5871.195547999832,8,-2732,-3016,-453,-48,491,-261
656,5880.076466999981,8,-2760,-2986,-433,-50,507,-171
657,5888.925386999745,8,-2793,-2955,-424,-63,497,-81
658,5897.766305999994,8,-2818,-3016,-395,-85,490,-18
659,5906.626225999844,8,-2816,-3044,-365,-115,474,14
660,5915.605143999983,8,-2799,-3050,-263,-138,451,11
661,5924.469062999833,8,-2776,-3030,-256,-139,438,-3
662,5933.418982000148,8,-2785,-3026,-213,-122,458,-31
663,5942.263901999922,8,-2797,-3006,-195,-112,489,-44
664,5951.233819999743,8,-2789,-2972,-161,-87,522,-47
665,5960.041740000179,8,-2810,-2935,-133,-47,566,-38
666,5968.95565900013,8,-2775,-2868,-103,-32,581,-14
667,5977.811578000001,8,-2783,-2838,-39,-27,611,15
668,5986.512499000128,8,-2799,-2788,3,-49,603,82
669,5995.653416000096,9,-2819,-2722,54,-75,543,184
670,6004.426336000051,8,-2864,-2735,84,-81,485,291
671,6014.00724899986,9,-2915,-2732,62,-50,448,360
672,6022.866168999826,8,-2918,-2783,52,-7,430,416
673,6031.715088000055,8,-2911,-2749,63,44,441,446
674,6040.562008000052,8,-2920,-2747,105,89,460,448
675,6049.326928000028,8,-2894,-2728,132,132,478,444
676,6058.197847999963,8,-2900,-2714,219,177,492,454
677,6067.024767000021,8,-2872,-2657,501,239,497,470
678,6075.824687000022,8,-2849,-2652,308,297,513,498
679,6084.7786059998725,8,-2803,-2689,434,359,529,491
680,6093.563525999798,8,-2738,-2771,511,404,577,479
681,6102.462445000128,8,-2757,-2841,548,390,575,488
682,6111.2923649998265,8,-2771,-2909,631,354,504,513
683,6120.145284000046,8,-2759,-2974,664,312,413,525
684,6128.942203999941,8,-2737,-3300,732,228,323,518
685,6137.89312300014,8,-2723,-3175,765,186,228,764
686,6146.819042000061,8,-2752,-3196,784,186,149,537
687,6155.724961000033,8,-2715,-3172,773,151,85,565
688,6164.643879999858,8,-2739,-3162,762,124,24,600
689,6173.506798999824,8,-2738,-3179,751,77,-11,667
690,6182.555717000014,9,-2762,-3209,723,38,-80,725
691,6191.383636999944,8,-2792,-3214,725,-23,-163,759
692,6200.422554999932,9,-2783,-3283,684,-42,-256,756
693,6209.239473999787,8,-2786,-3353,696,-64,-301,715
694,6218.155392999961,8,-2752,-3429,677,-93,-324,680
695,6226.856314000088,8,-2783,-3474,616,-157,-381,647
696,6235.7692330001555,8,-2794,-3435,590,-238,-446,614
697,6244.896149999931,9,-2823,-3411,514,-281,-492,593
698,6254.129066000132,9,-2855,-3414,446,-300,-532,605
699,6263.196983999933,9,-2883,-3392,420,-277,-557,609
700,6272.422900000038,9,-2917,-3357,334,-219,-542,613
701,6281.590817000051,9,-2893,-3395,328,-145,-503,601
702,6290.820733000146,9,-2892,-3432,274,-89,-477,566
703,6300.039649000155,9,-2912,-3404,266,-46,-467,508
704,6309.161566000057,9,-2909,-3405,231,-14,-472,427
705,6318.4854810001525,9,-2927,-3402,202,0,-490,383
706,6327.640397999858,9,-2917,-3353,202,20,-496,341
707,6336.74231499981,9,-2944,-3373,180,41,-495,323
708,6346.292228000038,9,-2950,-3348,173,60,-500,308
709,6355.1581480001005,8,-2980,-3397,145,51,-498,293
710,6364.076067000042,8,-2973,-3419,175,30,-493,277
711,6372.912985999847,8,-2965,-3431,167,-10,-508,255
712,6381.825904999914,8,-2971,-3414,128,-52,-530,219
713,6390.721825000128,8,-2994,-3415,105,-83,-561,187
714,6399.674743000105,8,-2998,-3397,32,-99,-569,164
715,6408.515662999889,8,-3027,-3386,-2,-113,-587,160
716,6417.458581000119,8,-3048,-3409,-35,-130,-601,153
717,6426.325501000065,8,-3021,-3436,-70,-127,-612,132
718,6435.209419999865,8,-3047,-3442,-126,-146,-626,89
719,6444.110338999963,8,-3036,-3453,-193,-157,-653,35
720,6452.984258000015,8,-3057,-3498,-246,-170,-668,-255
721,6461.9951770000625,9,-3039,-3490,-260,-159,-669,-45
722,6470.883095999852,8,-3022,-3500,-274,-173,-647,-75
723,6479.815014999986,8,-2956,-3533,-283,-162,-625,-101
724,6488.687934000154,8,-2950,-3526,-323,-167,-623,-141
725,6497.607852999863,8,-2922,-3516,-322,-175,-636,-208
726,6506.445772000006,8,-2885,-3502,-362,-178,-659,-271
727,6515.382691000013,8,-2870,-3454,-374,-190,-680,-318
728,6524.276610000015,8,-2883,-3364,-400,-197,-692,-354
729,6533.159529999921,8,-2883,-3323,-520,-193,-687,-376
730,6541.954450000048,8,-2910,-3251,-612,-185,-669,-390
731,6550.807368999813,8,-2927,-3218,-660,-175,-632,-408
732,6559.663289000127,8,-2949,-3199,-708,-155,-571,-433
733,6568.469208999886,8,-2968,-3172,-721,-116,-510,-480
734,6577.329127999747,8,-2975,-3162,-739,-62,-447,-526
735,6586.214046999885,8,-2973,-3161,-737,38,-374,-572
736,6595.0159670001085,8,-2951,-3151,-702,115,-282,-611
737,6603.944886000136,8,-2922,-3121,-685,183,-209,-630
738,6612.758805999874,8,-2938,-3108,-668,226,-158,-609
739,6621.805723999842,9,-2948,-3063,-654,276,-105,-591
740,6630.6286439998985,8,-2966,-3018,-690,305,-46,-568
741,6639.4645629998195,8,-2955,-3000,-705,325,8,-534
742,6648.452480999822,8,-2950,-2983,-679,353,71,-512
743,6657.289401000071,8,-2930,-2967,-699,370,149,-484
744,6666.268319999745,8,-2922,-2974,-670,362,226,-454
745,6675.1122390001,8,-2904,-2953,-638,368,283,-425
746,6684.087157999784,8,-2884,-2922,-566,366,334,-404
747,6692.985076999776,8,-2881,-2914,-572,388,379,-388
748,6701.931994999995,8,-2863,-2924,-542,391,427,-370
749,6710.75291499983,8,-2867,-2916,-494,397,474,-358
750,6719.726834000085,8,-2904,-2900,-459,418,514,-344
751,6728.579752999849,8,-2924,-2913,-440,443,547,-342
752,6737.4566720000075,8,-2908,-2913,-435,449,595,-347
753,6746.3085919998775,8,-2938,-2914,-376,460,629,-346
754,6755.169511000076,8,-2958,-2910,-344,463,671,-333
755,6764.0664300001845,8,-2976,-2913,-329,439,700,-325
756,6772.8223509998315,8,-2985,-2917,-288,420,730,-303
757,6781.8342689997735,9,-3053,-2927,-200,406,753,-279
758,6790.67318899979,8,-3311,-2893,-179,399,1023,-250
759,6799.505108000176,8,-3078,-2913,-176,372,779,-220
760,6808.487026999956,8,-3105,-2919,-159,345,798,-200
761,6817.384945999947,8,-3116,-2903,-170,296,802,-175
762,6826.290864999919,8,-3201,-2889,-131,223,802,-145
763,6835.147784000128,8,-3194,-2878,-130,179,805,-130
764,6844.010704000084,8,-3208,-2904,-133,130,826,-103
765,6852.8956229997675,8,-3244,-2889,-110,100,841,-82
766,6861.708543000077,8,-3279,-2864,-99,70,863,-59
767,6870.482462999917,8,-3254,-2847,-99,45,886,-34
768,6879.285383000024,8,-3281,-2847,-72,26,911,-11
769,6888.075302999823,8,-3279,-2840,-22,17,933,4
770,6896.962222000184,8,-3238,-2803,-15,15,937,14
771,6905.754141999751,8,-3234,-2795,18,5,951,20
772,6914.588061999893,8,-3228,-2808,41,-9,969,23
773,6923.45098099986,8,-3233,-2782,89,-35,968,30
774,6932.2599010001795,8,-3239,-2754,155,-89,964,24
775,6941.160819999823,8,-3209,-2785,186,-155,971,15
776,6949.992739999743,8,-3175,-2783,279,-214,968,7
777,6958.770660000027,8,-3142,-2773,356,-257,932,-6
778,6970.711552000012,11,-3117,-2760,451,-307,887,-17
779,6982.040449000124,11,-3094,-2765,523,-336,816,-49
780,6990.977368000131,8,-3079,-2747,565,-319,758,-65
781,6999.944285999845,8,-3051,-2714,594,-300,689,-69
782,7009.632197999963,9,-3052,-2712,605,-306,598,-65
783,7018.600117000005,8,-3039,-2717,589,-306,270,-60
784,7027.334036999946,8,-3020,-2698,591,-338,435,-60
785,7036.584952999874,9,-2992,-2683,567,-370,362,-40
786,7045.547872000043,8,-3010,-2644,574,-391,283,-5
787,7054.4847900000605,8,-2968,-2605,546,-401,206,33
788,7063.36070999987,8,-2973,-2584,544,-393,137,83
789,7072.292629000003,8,-2980,-2583,489,-365,94,172
790,7081.218547999924,8,-3073,-2602,437,-297,70,274
791,7090.032467000128,8,-3092,-2682,409,-262,49,398
792,7098.937386999751,8,-3040,-2628,428,-255,36,448
793,7107.811305999803,8,-3041,-2615,459,-284,49,416
794,7116.8072239997855,8,-3039,-2727,445,-335,32,370
795,7125.794141999904,8,-3062,-2808,445,-354,-7,335
796,7134.760061000179,8,-3054,-2785,501,-360,-55,280
797,7143.597980999857,8,-3321,-2831,512,-361,-116,257
798,7152.558898999814,8,-3085,-2854,491,-354,-184,271
799,7161.372819000007,8,-3086,-2845,490,-374,-296,293
800,7170.366736999767,8,-3065,-2894,478,-385,-385,316
801,7179.144658000041,8,-2817,-2906,429,-395,-472,326
802,7187.961577999886,8,-3050,-2900,430,-410,-552,350
803,7196.909495999989,8,-3075,-2923,363,-412,-657,390
804,7205.730415999824,8,-3081,-2871,315,-426,-725,464
805,7214.506335999886,8,-3066,-2861,248,-478,-781,497
806,7223.348256000008,8,-3052,-2907,171,-527,-830,529
807,7232.161175999863,8,-3096,-2909,138,-555,-884,531
808,7241.021095000178,8,-3107,-2954,149,-556,-922,523
809,7249.820014999841,8,-3077,-2991,126,-529,-940,491
810,7258.590936000019,8,-3074,-3009,126,-491,-965,463
811,7267.435854999803,8,-3072,-3049,120,-442,-1001,433
812,7276.082776999829,8,-3077,-3077,69,-422,-1061,415
813,7284.967695999967,8,-3095,-3093,30,-399,-1118,394
814,7293.841615000019,8,-3139,-3117,0,-386,-1155,399
815,7302.695535000112,8,-3137,-3208,-51,-399,-1183,407
816,7311.530455000138,8,-3172,-3272,-122,-400,-1204,386
817,7320.486372999767,8,-3181,-3294,-230,-401,-1189,288
818,7329.299293000076,8,-3168,-3294,-303,-376,-1168,210
819,7338.175211999896,8,-3190,-3301,-360,-332,-1161,146
820,7346.994131999963,8,-3206,-3277,-385,-280,-1154,105
821,7356.19504899978,9,-3180,-3280,-467,-217,-1133,60
822,7365.060967999852,8,-3200,-3293,-471,-156,-1113,33
823,7374.009886999829,8,-3178,-3565,-499,-112,-1090,7
824,7382.888805999755,8,-3180,-3369,-558,-74,-1075,-26
825,7391.820724999889,8,-3161,-3432,-583,-54,-1058,-79
826,7400.757643999896,8,-3149,-3470,-617,-67,-1039,-130
827,7409.642563000034,8,-3130,-3504,-639,-78,-1015,-192
828,7418.5454819998995,8,-3149,-3495,-702,-78,-999,-254
829,7427.505400999962,8,-3173,-3494,-707,-72,-961,-289
830,7436.397319999742,8,-3146,-3469,-756,-40,-910,-339
831,7445.318238999789,8,-3153,-3452,-779,-9,-848,-375
832,7454.218158000003,8,-3132,-3411,-831,19,-783,-419
833,7463.065078,8,-3125,-3420,-823,30,-714,-459
834,7472.001996000017,8,-3107,-3433,-861,65,-657,-519
835,7480.813915999988,8,-3071,-3415,-872,67,-605,-576
836,7489.689835999798,8,-3028,-3375,-875,86,-551,-625
837,7498.5547549999865,8,-3023,-3358,-834,92,-502,-653
838,7507.336674999806,8,-2988,-3376,-828,119,-443,-699
839,7516.398592999849,9,-2958,-3340,-805,129,-377,-744
840,7525.331511999866,8,-2928,-3302,-533,143,-327,-793
841,7534.151431999817,8,-2890,-3246,-761,153,-288,-802
842,7542.955351999808,8,-2872,-3190,-724,166,-254,-793
843,7551.838271000179,8,-2852,-3175,-704,187,-212,-782
844,7560.618190999776,8,-2801,-3146,-685,212,-178,-772
845,7569.479109999975,8,-2807,-3163,-687,227,-155,-775
846,7578.340030000163,8,-2760,-3130,-679,243,-128,-784
847,7587.187950000043,8,-2740,-3145,-677,254,-99,-780
848,7596.0658690000855,8,-2725,-3137,-679,266,-68,-514
849,7604.917787999966,8,-2688,-3109,-677,270,-41,-745
850,7613.877707000029,8,-2719,-3130,-668,273,247,-731
851,7622.7866260001065,8,-2662,-3134,-683,293,33,-744
852,7631.68754499975,8,-2687,-3156,-647,293,79,-763
853,7640.515465000135,8,-2696,-3137,-617,296,112,-767
854,7649.372383999889,8,-2712,-3118,-624,296,144,-731
855,7658.321302999866,8,-2743,-3077,-627,298,185,-674
856,7667.207221999888,8,-2764,-3041,-625,279,216,-604
857,7676.131141000042,8,-2762,-3025,-618,280,259,-534
858,7685.079060000135,8,-2786,-2993,-638,292,306,-473
859,7693.979978999778,8,-2803,-2980,-625,309,369,-394
860,7702.855898000053,8,-2810,-2990,-609,338,448,-310
861,7711.777816999984,8,-2816,-3032,-629,360,520,-272
862,7720.649736999803,8,-2828,-3323,-567,382,593,-253
863,7729.658655000094,9,-2835,-3081,-551,399,668,-245
864,7738.554573999863,8,-2837,-3098,-485,415,709,-221
865,7747.290495000016,8,-2852,-3121,-477,415,769,-211
866,7757.133404999877,9,-2880,-3188,-447,400,813,-203
867,7766.487320000124,9,-2915,-3085,-437,346,837,-210
868,7775.776236000183,9,-2958,-3121,-418,335,888,-149
869,7784.964152000157,9,-2965,-3042,-401,303,933,-93
870,7794.158068999877,9,-2983,-3053,-363,254,993,-44
871,7803.467983999781,9,-2980,-3032,-334,232,1060,-11
872,7812.718900000164,9,-3004,-3017,-325,154,1102,-1
873,7822.025814999961,9,-3003,-3032,-272,71,1119,-10
874,7831.341731000066,9,-3014,-2988,-226,1,1133,-16
875,7840.553646999979,9,-3060,-2924,-170,-52,1135,-5
876,7850.087559999793,9,-3074,-2900,-113,-63,1140,2
877,7859.263476999786,9,-3080,-2860,-80,-27,1157,19
878,7868.093396999939,8,-3092,-2863,-19,34,1173,63
879,7876.950316000148,8,-3115,-2825,-7,97,1186,106
880,7885.755236000023,8,-3168,-2846,6,165,1184,158
881,7894.68815500004,8,-3124,-2823,14,179,1189,190
882,7903.473074999965,8,-3119,-2852,67,179,1179,187
883,7912.211995999769,8,-2835,-2867,130,155,1158,165
884,7921.087915000044,8,-3059,-2874,172,121,1111,131
885,7929.8938349998025,8,-2997,-2830,241,87,1049,88
886,7938.715754999976,8,-2959,-2799,296,61,985,70
887,7947.54867499978,8,-2943,-2784,328,51,926,73
888,7956.397594000009,8,-2938,-2787,343,51,867,101
889,7965.168515000187,8,-2964,-2724,360,46,805,111
890,7974.030433999815,8,-2951,-2753,339,45,743,113
891,7982.955352999852,8,-2934,-2736,367,63,696,121
892,7991.845271999864,8,-2949,-2776,362,57,649,124
893,8000.687191999987,8,-2944,-2809,405,40,588,130
894,8009.496111999852,8,-2890,-2806,422,-253,507,121
895,8019.109025000034,9,-2897,-2832,445,-38,432,112
896,8028.059942999789,8,-2880,-2864,698,-74,348,107
897,8037.006861999998,8,-2912,-2908,743,-94,284,102
898,8045.845782000015,8,-2890,-2947,517,-117,220,85
899,8054.806699999972,8,-2893,-2951,535,-144,152,66
900,8063.537620999796,8,-2910,-2995,527,-176,94,42
901,8072.308540999984,8,-2886,-3031,522,-199,13,41
902,8081.211460999839,8,-2902,-3013,521,-221,-36,30
903,8090.048380000098,8,-2945,-3069,517,-220,-97,64
904,8098.971298999913,8,-2894,-3105,495,-210,-150,111
905,8107.800219000183,8,-2917,-3094,459,-195,-232,159
906,8116.672138000013,8,-2862,-3099,442,-199,-292,193
907,8125.639057000171,8,-2835,-3125,381,-208,-334,214
908,8134.532976000173,8,-2810,-3111,330,-226,-392,505
909,8143.392896000023,8,-2798,-3095,308,-244,-459,277
910,8152.284814999803,8,-2772,-3110,263,-1,-496,292
911,8161.173733999931,8,-2789,-3136,305,-248,-522,304
912,8170.111652999822,8,-2823,-2853,169,-239,-560,291
913,8178.906572999949,8,-2870,-3215,173,-263,-628,284
914,8187.7574929999355,8,-2781,-3229,175,-218,-614,329
915,8196.597411999846,8,-2881,-3195,176,-201,-628,346
916,8205.488332000186,8,-2874,-3235,154,-171,-650,360
917,8214.329250999981,8,-2846,-3261,143,-136,-649,358
918,8223.202171000139,8,-2871,-3254,144,-111,-662,335
919,8232.021090999751,8,-2858,-3299,118,-110,-676,330
920,8240.809010999783,8,-2867,-3344,132,-111,-666,330
921,8249.678929999845,8,-2857,-3399,129,-108,-680,320
922,8258.492850000039,8,-2836,-3431,150,-110,-710,288
923,8267.330770000171,8,-2849,-3464,162,-117,-757,245
924,8276.191688999916,8,-2829,-3497,137,-101,-782,202
925,8285.09960800011,8,-2844,-3523,105,-104,-812,158
926,8293.890528999782,8,-2850,-3546,81,-104,-832,122
927,8302.640449000137,8,-2860,-3550,49,-114,-857,83
928,8311.462368999855,8,-2891,-3555,46,-126,-871,51
929,8320.421288000034,8,-2861,-3572,40,-141,-887,29
930,8329.358206000052,8,-2877,-3576,12,-146,-910,13
931,8338.334125000074,8,-2861,-3597,-10,-134,-929,-32
932,8347.178044999964,8,-2847,-3593,-58,-116,-944,-96
933,8356.165962999967,8,-2840,-3579,-100,-91,-966,-163
934,8365.026882000166,8,-2790,-3550,-139,-68,-973,-244
935,8373.974800999804,8,-2771,-3504,-181,-45,-983,-275
936,8382.80572099984,8,-2792,-3490,-247,5,-982,-281
937,8392.24463499977,9,-2824,-3425,-360,35,-982,-277
938,8401.240552999752,8,-2831,-3446,-404,75,-951,-277
939,8410.609468000075,9,-2840,-3482,-472,107,-867,-310
940,8419.635385999754,9,-2785,-3533,-458,150,-771,-371
941,8428.529305999746,8,-2775,-3588,-461,194,-681,-414
942,8437.396225000157,8,-2744,-3633,-428,231,-593,-462
943,8446.319143999972,8,-2675,-3641,-421,257,-541,-525
944,8455.202062999888,8,-2670,-3657,-361,290,-515,-609
945,8464.112981999733,8,-2611,-3656,-358,313,-499,-663
946,8472.997901999861,8,-2581,-3619,-363,317,-487,-698
947,8481.907820999822,8,-2576,-3544,-415,295,-479,-706
948,8490.811740000026,8,-2598,-3508,-453,272,-476,-691
949,8499.73965900017,8,-2588,-3463,-496,263,-441,-664
950,8508.529578999969,8,-2601,-3430,-512,262,-390,-644
951,8517.430498000067,8,-2607,-3471,-531,266,-336,-633
952,8526.215417999992,8,-2583,-3482,-495,278,-284,-656
953,8535.145336999904,8,-2512,-3447,-507,269,-225,-677
954,8544.011256999966,8,-2488,-3390,-495,252,-169,-678
955,8553.443170999799,9,-2467,-3383,-481,231,-141,-644
956,8562.805086000026,9,-2441,-3355,-459,209,-118,-617
957,8572.009001999959,9,-2437,-3317,-432,194,-94,-585
958,8581.362916999751,9,-2394,-3301,-460,201,-74,-559
959,8590.55783399981,9,-2397,-3324,-442,219,-38,-528
960,8599.811749999844,9,-2404,-3353,-451,223,249,-534
961,8609.07166600009,9,-2434,-3307,-468,233,48,-522
962,8618.314582000039,9,-2438,-3275,-463,233,92,-483
963,8627.50049799979,9,-2437,-3241,-442,209,146,-414
964,8636.830413000098,9,-2463,-3220,-440,189,187,-312
965,8645.981329999813,9,-2523,-3200,-475,162,227,-229
966,8655.655241999739,9,-2534,-3231,-462,128,262,-144
967,8664.477161999912,8,-2816,-3267,-459,96,305,-102
968,8673.38608099999,8,-2595,-3575,-468,68,346,-67
969,8682.274000999769,8,-2577,-3332,-430,51,394,-35
970,8691.145920000054,8,-2578,-3349,-368,23,426,-4
971,8700.083838999944,8,-2583,-3361,-350,-8,439,11
972,8708.895758999915,8,-2574,-3385,-297,-25,448,17
973,8717.769677999968,8,-2653,-3453,-300,-26,465,42
974,8726.665596999737,8,-2646,-3430,-303,-23,493,66
975,8735.646516000088,8,-2663,-3456,-310,-52,541,48
976,8744.475435999902,8,-2693,-3398,-300,-63,608,17
977,8753.445354000178,8,-2728,-3303,-297,-95,654,-15
978,8762.281274000088,8,-2732,-3302,-257,-109,718,-54
979,8771.218193000095,8,-2791,-3289,-250,-95,774,-44
980,8780.037113000162,8,-2839,-3267,-247,-81,824,-13
981,8788.898031999906,8,-2822,-3215,-246,-85,863,15
982,8797.794951000014,8,-2871,-3182,-199,-92,897,38
983,8806.451872999787,8,-2854,-3151,-180,-102,928,60
984,8815.263792999758,8,-2899,-3128,-182,-103,954,79
985,8824.050712999906,8,-2909,-3112,-138,-101,997,102
986,8832.907632000115,8,-2938,-3083,-128,-94,1035,149
987,8841.823550999834,8,-2971,-3043,-94,-63,1053,195
988,8850.624471000174,8,-3003,-3023,-57,-40,1061,236
989,8859.357391999765,8,-3005,-3052,240,-10,1070,269
990,8868.309310999848,8,-2999,-3007,31,27,1081,273
991,8877.102230999753,8,-3011,-3057,66,38,1080,246
992,8885.931151000023,8,-2990,-3068,120,40,1067,209
993,8894.753069999751,8,-2996,-3032,163,38,1053,172
994,8903.538991000005,8,-2973,-2975,196,25,1013,150
995,8912.44590999986,8,-2970,-2930,257,15,983,146
996,8921.250829999735,8,-2961,-2893,257,21,950,155
997,8930.02875000002,8,-2956,-2870,289,34,910,172
998,8938.858670000172,8,-2958,-2869,323,30,852,179
999,8947.706589000063,8,-2934,-2865,343,38,811,194
1000,8956.574508999893,8,-2943,-2881,427,42,745,192
1001,8965.470428000117,8,-2899,-2895,445,36,687,179
1002,8974.275347999992,8,-2875,-2894,502,36,619,165
1003,8983.23026700018,8,-2852,-2933,557,19,554,147
1004,8992.022186999748,8,-2846,-2926,598,-255,486,145
