,time_ms,delta_ms,aX,aY,aZ,gX,gY,gZ
0,0.0,0,1336,-4377,-1123,-433,994,-290
1,10.302908000085154,10,1374,-4225,-1110,-448,862,-408
2,19.332826999743702,9,1406,-3851,-1132,-490,759,-504
3,28.770742999768117,9,1447,-3932,-1236,-510,628,-585
4,37.87666199968953,9,1476,-3835,-1364,-539,530,-614
5,47.43257700010872,9,1450,-3800,-1490,-587,474,-630
6,57.24248899969098,9,1407,-3752,-1662,-649,472,-666
7,67.90039399993475,10,1393,-3617,-1713,-685,497,-676
8,76.96831299972473,9,1447,-3543,-1744,-699,544,-633
9,86.33522899981472,9,1487,-3632,-1787,-666,596,-622
10,95.47314800011009,9,1482,-3811,-1941,-612,645,-699
11,105.56905800012828,10,1477,-3927,-2046,-597,623,-697
12,114.46297900010904,8,1502,-3914,-2159,-614,620,-720
13,126.24987299977874,11,1581,-3965,-2238,-726,621,-725
14,136.03878599997188,9,1636,-3907,-2285,-854,595,-697
15,144.94170699981623,8,1646,-3879,-2271,-1068,570,-644
16,153.90762700008054,8,1546,-3721,-2257,-1269,536,-621
17,162.9455459997189,9,1286,-3573,-2240,-1436,542,-613
18,171.86446599998817,8,1318,-3337,-2390,-1537,552,-617
19,180.9103860000505,9,1222,-3372,-2493,-1585,529,-276
20,189.79730599994582,8,1171,-3256,-2651,-1589,592,-445
21,198.66422699988107,8,1146,-3167,-2825,-1566,732,-349
22,207.53014799993252,8,1025,-3110,-2880,-1530,925,-249
23,216.436068999883,8,983,-3118,-2918,-1464,1291,-120
24,225.2989889998389,8,920,-3239,-2583,-1345,1640,6
25,234.234909999941,8,973,-3318,-2647,-1191,1972,68
26,243.08983099990655,8,1080,-3418,-2447,-945,2197,135
27,251.82975300003818,8,1096,-3838,-2216,-776,2323,179
28,260.7376729997668,8,1151,-3700,-2045,-655,2386,192
29,269.58759399985865,8,1223,-3854,-1895,-525,2371,171
30,278.4095160000106,8,1259,-4099,-1808,-511,2239,209
31,287.3274359999414,8,1077,-3996,-1707,-525,2104,174
32,296.1773570000332,8,1123,-3859,-1645,-599,1945,134
33,305.0882779998574,8,1125,-3681,-1576,-667,1786,110
34,313.8751989999946,8,1097,-3487,-1518,-709,1657,113
35,322.67512099997475,8,1108,-3340,-1533,-707,1296,134
36,331.3150429999041,8,966,-3258,-1566,-653,1355,160
37,340.19396399980906,8,977,-3168,-1575,-605,1192,142
38,349.0128859998549,8,835,-3085,-1607,-555,1007,50
39,357.8258069996991,8,512,-2970,-1608,-491,833,-16
40,366.82572700010496,8,696,-2850,-1563,-486,674,-89
41,375.64864799969655,8,661,-2705,-1454,-497,592,-150
42,384.59856800000125,8,592,-2645,-1275,-513,510,-238
43,393.5204879999219,8,612,-2512,-1089,-565,434,-330
44,402.409409000029,8,647,-2362,-888,-612,287,-411
45,411.2563300000147,8,716,-2178,-695,-629,99,-503
46,420.2402500000062,8,772,-2052,-559,-618,-125,-575
47,429.0651709998201,8,860,-1952,-563,-570,-369,-656
48,438.1160899997667,9,1030,-1789,-625,-535,-667,-692
49,447.0080109999799,8,1136,-1763,-759,-529,-879,-637
50,455.9959309999613,8,1514,-1773,-869,-567,-1280,-598
51,464.9388509997152,8,1415,-1772,-1016,-556,-1139,-545
52,473.86077200008003,8,1558,-1782,-1133,-545,-1183,-493
53,482.77169199991476,8,1738,-1893,-1387,-478,-1191,-396
54,491.7016119998152,8,1893,-2510,-1645,-340,-1219,-336
55,500.5855330000486,8,2034,-3049,-1856,-224,-1236,-369
56,509.50245300009556,8,2198,-3268,-2108,-139,-1254,-529
57,518.4043740000561,8,2354,-3418,-2386,-110,-1277,-648
58,527.3602940001183,8,2576,-3418,-2623,-115,-1294,-702
59,536.3372140000138,8,2713,-3355,-2831,-152,-1303,-678
60,545.2721339997879,8,2720,-3311,-3057,-176,-1305,-595
61,554.2450539996935,8,2639,-3215,-3288,-181,-1303,-516
62,563.1509750000987,8,2598,-3193,-3470,-176,-1241,-449
63,572.0268959998975,8,2530,-3175,-3659,-194,-1052,-416
64,580.9578159996818,8,2485,-3131,-3747,-212,-849,-441
65,589.8007369996776,8,2442,-3003,-3760,-187,-595,-485
66,598.619657999734,8,2442,-2791,-3751,-135,-282,-467
67,607.5135789997148,8,2478,-2372,-3634,-52,-20,-416
68,616.3714999997865,8,2510,-2168,-3431,70,213,-322
69,625.2684199998839,8,2485,-2007,-3241,194,410,-249
70,634.1113419998692,8,2439,-1863,-3002,280,574,-160
71,642.9572629999711,8,2379,-1712,-2569,295,695,-40
72,651.8681829998059,8,2336,-1746,-2509,244,730,96
73,660.642105000079,8,2268,-1865,-2390,170,729,175
74,669.4440259998373,8,2243,-1997,-2336,92,713,229
75,678.2429479999337,8,2189,-2124,-2357,20,681,291
76,687.0778689999497,8,2141,-2252,-2484,-49,670,364
77,696.0357889997795,8,2136,-2433,-2605,-97,704,397
78,704.875710000124,8,2168,-2512,-2627,-154,786,383
79,713.7886309997157,8,2142,-2567,-2359,-218,903,374
80,722.696550999899,8,2304,-2402,-2582,-261,981,344
81,731.6074719997232,8,2364,-2329,-2518,-274,1274,341
82,740.5673919997753,8,2488,-2331,-2470,-262,1045,348
83,749.4243129999631,8,2524,-2309,-2483,-251,1083,333
84,758.0762349998622,8,2578,-2273,-2498,-236,1125,300
85,766.9571559999895,8,2635,-2271,-2518,-260,1155,272
86,775.8990759998596,8,2654,-2328,-2521,-277,1199,240
87,784.8379970000678,8,2724,-2480,-2541,-254,1257,188
88,793.7629170000946,8,2702,-2551,-2456,-224,1271,130
89,802.62183800005,8,2725,-2495,-2403,-198,1270,88
90,811.3267599997016,8,2745,-2436,-2292,-211,1234,54
91,820.2466809998441,8,2717,-2289,-2172,-251,1153,58
92,829.0616019999106,8,2722,-2112,-2044,-309,1075,87
93,838.0595220000941,8,2743,-1922,-1974,-320,969,151
94,846.9104430000698,8,2670,-1824,-1974,-292,841,249
95,855.8863630000815,8,2594,-1825,-1986,-265,739,344
96,864.7352839998348,8,2608,-1899,-2019,-268,693,385
97,873.6692039997251,8,2493,-2018,-2093,-262,648,395
98,882.637123999757,8,2440,-2056,-2150,-239,597,412
99,891.5200450001066,8,2499,-2206,-2209,-207,565,754
100,900.3879649999362,8,2501,-2244,-2241,-149,531,573
101,909.2068869999821,8,2490,-2356,-2207,-85,498,609
102,917.9568089998611,8,2406,-2473,-2111,-22,467,614
103,927.0957270000508,9,2376,-2450,-1932,-12,383,624
104,936.0456469999008,8,2074,-2282,-1758,-37,281,671
105,944.859569000073,8,2229,-2138,-1650,-58,157,781
106,953.8204890000088,8,2034,-2151,-1575,-97,-235,905
107,962.593409999954,8,1932,-2484,-1544,-164,-97,952
108,971.5533300000061,8,1767,-2601,-1601,-231,-163,808
109,980.3342519999205,8,1681,-2599,-1673,-304,-211,673
110,989.1261739999209,8,1602,-2469,-1704,-341,-263,618
111,997.99009499975,8,1573,-2319,-1717,-344,-271,644
112,1006.7980159997205,8,1485,-2292,-1766,-301,-270,725
113,1015.5949370000599,8,1398,-2249,-1740,-219,-257,795
114,1024.498857999788,8,1364,-2050,-1720,-122,-208,867
115,1033.3597789999658,8,1314,-2257,-1633,-109,-183,898
116,1042.3596989999169,8,1229,-2418,-1603,-127,-189,889
117,1051.2156199997662,8,1227,-2551,-1665,-120,-218,820
118,1060.022540999853,8,1142,-2715,-1728,-104,-273,746
119,1069.067460000042,9,1080,-2840,-1829,-72,-333,706
120,1077.990380999836,8,801,-2897,-2164,-36,-378,755
121,1086.861301999761,8,795,-2820,-2163,0,-429,755
122,1095.7162229997266,8,899,-2913,-2163,108,-383,733
123,1104.6551429999454,8,903,-2990,-2193,157,-311,707
124,1113.5110639997947,8,864,-2957,-2084,202,-252,663
125,1122.4439839998013,8,829,-2822,-1971,197,-209,651
126,1131.2579059999734,8,851,-2675,-1544,186,-204,664
127,1140.559822999876,9,920,-2664,-1721,188,-272,763
128,1149.4157439997252,8,904,-2824,-1745,229,-371,850
129,1158.24766500009,8,856,-3021,-1823,300,-424,835
130,1167.122586000005,8,918,-3222,-1920,390,-417,766
131,1176.0365059999458,8,917,-3320,-1926,488,-391,663
132,1184.965426999952,8,975,-3369,-1847,571,-342,593
133,1193.8653469997007,8,1100,-3346,-1704,620,-308,538
134,1202.8012679998028,8,1204,-3293,-1340,607,-317,482
135,1211.7211879999559,8,1240,-3203,-1410,552,-397,523
136,1220.5651089998355,8,1247,-3004,-1337,437,-760,571
137,1229.377029999796,8,1263,-2924,-1380,337,-621,627
138,1238.2719510001152,8,1145,-3055,-1561,352,-796,688
139,1247.0988719996967,8,1063,-3266,-1836,443,-855,681
140,1256.033792999915,8,789,-3472,-2060,608,-793,644
141,1264.7097149997535,8,947,-3604,-2146,823,-700,617
142,1273.4026379998795,8,967,-3654,-2101,959,-582,580
143,1282.2135589999561,8,1015,-3737,-1943,1055,-438,535
144,1290.9614810000676,8,1140,-3727,-1686,1109,-374,522
145,1299.802401999841,8,1175,-3915,-1483,1080,-383,550
146,1308.6183239997808,8,1192,-4154,-1402,933,-744,554
147,1317.4662450001051,8,1123,-4410,-1774,781,-770,524
148,1326.2971660001313,8,1010,-4786,-1684,726,-1048,456
149,1335.1920869999958,8,950,-4986,-1983,706,-1176,344
150,1344.069006999689,8,785,-5059,-2178,746,-1207,227
151,1352.9879279999477,8,666,-4941,-2352,834,-1179,146
152,1361.7838489999485,8,619,-4702,-2412,885,-1044,132
153,1370.7437690000006,8,742,-4596,-2393,877,-878,224
154,1379.5116910000615,8,689,-4099,-2255,793,-684,294
155,1388.3656119996886,8,751,-4255,-2071,663,-489,361
156,1397.2585329997855,8,679,-4176,-2021,495,-426,399
157,1406.120453999847,8,680,-4147,-1866,322,-370,371
158,1415.0093749999542,8,602,-4140,-1799,184,-312,294
159,1423.841295999864,8,572,-4067,-1705,168,-240,205
160,1432.6632170000266,8,522,-3833,-1578,232,-147,180
161,1441.6451369997958,8,478,-3662,-1548,383,-82,242
162,1450.5050580000898,8,440,-3339,-1513,595,250,298
163,1459.3079799997213,8,428,-3336,-1415,765,102,305
164,1468.1888999998591,8,449,-3539,-1274,911,156,271
165,1476.9688219998898,8,359,-3655,-1176,1034,151,247
166,1486.0707409998213,9,314,-3751,-1072,1086,98,221
167,1494.9056619998373,8,307,-3778,-932,1088,21,163
168,1503.8475819997075,8,226,-3904,-838,1077,-54,107
169,1513.1714989997818,9,105,-3838,-742,1016,-182,85
170,1522.4934160000885,9,106,-3722,-676,943,-345,124
171,1531.7573329998595,9,14,-3837,-760,855,-748,181
172,1540.9872509999332,9,90,-3755,-846,823,-634,263
173,1550.3571670001293,9,69,-4109,-954,806,-729,362
174,1559.5850849999806,9,-16,-4350,-1032,683,-892,350
175,1568.7980029997561,9,1,-4479,-1096,557,-969,231
176,1577.9969209997944,9,-30,-4618,-1128,439,-1272,172
177,1587.2448380000606,9,-94,-4601,-1085,348,-1085,151
178,1596.4427559997603,9,-41,-4470,-1090,309,-1128,122
179,1605.686674000026,9,-57,-4396,-1115,298,-1168,149
180,1615.4805860001034,9,9,-4454,-1220,290,-1189,249
181,1624.456506000115,8,46,-4615,-1317,277,-1174,298
182,1633.328426999924,8,38,-5125,-1361,334,-1120,299
183,1642.295347000072,8,5,-5418,-1404,395,-1072,226
184,1651.2612669998816,8,3,-5643,-1354,486,-1011,119
185,1660.1661879999483,8,93,-5565,-1251,519,-929,26
186,1669.0411089998634,8,132,-5392,-1025,257,-931,-24
187,1677.8460299997278,8,148,-5182,-893,479,-1003,-49
188,1686.7829499997242,8,225,-4972,-826,387,-1091,-42
189,1695.6228720000581,8,273,-4865,-867,294,-1232,254
190,1704.5307919997867,8,294,-4883,-991,194,-1322,37
191,1713.2917139997517,8,315,-4970,-1225,75,-1368,75
192,1722.2686340001019,8,375,-5164,-1448,-11,-1357,107
193,1731.0565560001123,8,393,-5277,-1663,-26,-1271,81
194,1739.8774769999363,8,442,-5328,-2032,3,-1139,3
195,1748.7493979997453,8,523,-5297,-1846,67,-981,-77
196,1757.5063199997203,8,595,-5249,-1836,120,-834,-135
197,1766.3812400001007,8,618,-5122,-1757,143,-648,-179
198,1775.141161999727,8,793,-5033,-1340,111,-533,-191
199,1784.0030829997886,8,954,-5127,-1309,-3,-499,-141
200,1792.8100049998648,8,1100,-5380,-1197,-467,-563,-85
201,1801.7399249997652,8,1185,-5888,-1016,-647,-706,-89
202,1810.6628450000244,8,1125,-5641,-983,-1050,-950,-177
203,1819.5277659997373,8,1211,-5274,-1075,-1380,-1146,-382
204,1828.3636880000813,8,1000,-4826,-1191,-1454,-1253,-562
205,1837.3436070000935,8,983,-4314,-1177,-1308,-1170,-698
206,1846.2665279998873,8,1028,-3677,-1090,-1030,-878,-778
207,1855.246447999889,8,1081,-3373,-965,-733,-647,-785
208,1864.0983689997483,8,1020,-2606,-697,-385,-461,-773
209,1873.0402890000732,8,1191,-2464,-285,-310,-300,-819
210,1881.9632089998777,8,993,-2182,-348,-277,-264,-865
211,1890.8541299997523,8,986,-2227,-176,-293,-300,-807
212,1899.7200509998038,8,821,-2144,-173,-344,-425,-712
213,1908.5599719996935,8,691,-2118,-455,-420,-582,-623
214,1917.4978920000285,8,491,-2089,-294,-440,-667,-551
215,1926.3558130001002,8,320,-2049,-482,-377,-706,-487
216,1935.3057339999395,8,71,-2110,-621,-238,-663,-424
217,1944.2206539997642,8,-99,-2288,-1011,-99,-531,-369
218,1953.1505740001194,8,-272,-2381,-1008,36,-394,-314
219,1962.0474949997515,8,-446,-2608,-1096,153,-11,-250
220,1970.9704160000001,8,-620,-3065,-1205,269,-168,-115
221,1979.7863369999504,8,-794,-3395,-1195,329,-75,28
222,1988.7432569998964,8,-1265,-3810,-1179,351,-15,149
223,1997.6591770000596,8,-1147,-4101,-1106,347,6,170
224,2006.5710979997675,8,-1293,-4254,-956,322,-25,160
225,2015.4100189997735,8,-1347,-4272,-847,301,-136,133
226,2024.2129409998597,8,-1304,-4145,-697,318,-272,107
227,2033.1328610000128,8,-1258,-4010,-691,346,-431,145
228,2041.9867820000945,8,-1208,-3814,-667,320,-598,209
229,2050.8697029999894,8,-1125,-3592,-744,296,-756,510
230,2059.6146249999947,8,-1078,-3441,-776,281,-839,313
231,2068.4975459998896,8,-976,-3304,-792,289,-909,367
232,2077.3614669997187,8,-864,-3154,-799,328,-946,440
233,2086.187387999871,8,-745,-3131,-775,339,-965,513
234,2094.959309999922,8,-609,-3061,-720,361,-963,580
235,2103.8532299999133,8,-267,-3070,-606,387,-967,625
236,2112.6611519998733,8,-327,-3040,-427,491,-973,650
237,2121.5730720000465,8,-247,-3045,-248,736,-1029,697
238,2130.3749939997942,8,-283,-2961,-195,1049,-1182,927
239,2139.8279099998945,9,-97,-2748,-22,1562,-1246,1144
240,2148.7848299998404,8,-93,-2760,-509,1811,-1404,1392
241,2157.7117500000895,8,-21,-3372,-273,1834,-1505,1697
242,2166.673669999909,8,10,-4032,-316,1743,-1517,1772
243,2175.512590999915,8,-49,-5334,-405,1364,-1579,1649
244,2184.5045109998864,8,-25,-6250,-481,1020,-1681,1060
245,2193.3144330000687,8,-10,-6726,-570,666,-1811,773
246,2202.0833550000134,8,-82,-6516,-799,77,-2020,407
247,2210.999274999722,8,-43,-6203,-876,54,-2218,291
248,2219.862196000122,8,-263,-6171,-1145,-81,-2363,312
249,2228.830115999699,8,-499,-5890,-1666,-113,-2337,402
250,2237.748037000074,8,-434,-6635,-1690,-227,-2260,584
251,2246.7839559999447,9,-498,-6096,-1480,-340,-2019,20
252,2255.6808770000316,8,-472,-6197,-1626,-448,-1703,79
253,2264.5937970000887,8,-544,-6085,-1378,-662,-1712,130
254,2273.5097179997865,8,-721,-5760,-1363,-872,-1658,112
255,2282.405638,8,-784,-5387,-1570,-877,-1577,123
256,2291.070560999742,8,-920,-5194,-2030,-894,-1533,126
257,2299.964481999723,8,-974,-5005,-1821,-926,-1433,85
258,2308.887401999982,8,-897,-4919,-1795,-708,-1164,59
259,2317.767322999771,8,-876,-4883,-1840,-516,-804,19
260,2327.598235000096,9,-833,-5076,-1781,-276,-295,1
261,2336.9581520000793,9,-702,-5046,-1712,-115,-263,-77
262,2346.3400679997903,9,-666,-5054,-1609,-54,-126,-129
263,2355.609985999763,9,-572,-4885,-1463,-106,-71,-159
264,2364.8389029999635,9,-534,-4679,-1349,-185,-96,-157
265,2374.051820999739,9,-543,-4638,-1402,-262,-136,-103
266,2383.3027390001007,9,-564,-4631,-1438,-337,-118,-47
267,2392.5376560000586,9,-535,-4577,-1461,-365,-33,-75
268,2401.8555729999207,9,-517,-4508,-1493,-370,37,-139
269,2411.0774910000146,9,-464,-4386,-1464,-351,106,-206
270,2420.615405999797,9,-304,-4104,-1359,-344,201,-245
271,2429.8033239997494,9,-196,-3756,-1194,-386,243,-230
272,2438.850242999706,9,-126,-3480,-1085,-510,231,-172
273,2447.755163999773,8,-59,-3134,-981,-592,206,-113
274,2456.714083999941,8,254,-2934,-888,-661,197,-58
275,2465.547004999735,8,-7,-2838,-836,-696,193,-14
276,2474.4839259997207,8,-58,-2714,-831,-717,198,5
277,2483.4478459997626,8,-98,-2662,-780,-685,230,12
278,2492.3467660000824,8,-114,-2674,-776,-637,253,3
279,2501.219686999775,8,-164,-2668,-728,-527,286,-15
280,2510.1546079999935,8,-112,-2616,-627,-403,324,244
281,2519.013528999949,8,-101,-2560,-549,-301,301,107
282,2527.904448999834,8,-64,-2600,-545,-281,251,276
283,2536.7633699997896,8,-23,-2677,-606,-318,178,391
284,2545.6552910000028,8,-81,-2915,-1013,-310,91,484
285,2554.6742110000196,9,-134,-3214,-923,-295,63,562
286,2563.5131320000255,8,-219,-3577,-1152,-256,104,561
287,2572.435051999946,8,-354,-4311,-1457,-153,199,469
288,2581.3159730000734,8,-398,-4457,-1745,-46,380,318
289,2590.1778939996802,8,-404,-4738,-1969,118,551,176
290,2599.001815000065,8,-387,-5234,-2269,286,709,181
291,2607.7717369998936,8,-418,-6029,-2521,497,858,196
292,2616.6396579997127,8,-403,-6252,-2659,602,1047,181
293,2625.483579000047,8,-328,-6684,-2663,547,1181,129
294,2634.354499999972,8,-341,-6840,-2616,346,1217,89
295,2643.122422000033,8,-494,-6861,-2494,-193,1178,38
296,2651.9893429999684,8,-581,-6644,-2443,-266,1109,-55
297,2660.8712639999794,8,-661,-6237,-2400,-469,1038,-478
298,2669.7501849998844,8,-673,-5897,-2280,-579,1054,-369
299,2678.532105999693,8,-509,-5581,-2092,-656,1140,-356
300,2687.458027000048,8,-481,-5296,-1921,-826,1171,-14
301,2696.356946999913,8,-530,-4853,-1736,-1048,1146,-203
302,2705.281867999929,8,-534,-4426,-1482,-1508,1116,-183
303,2714.121788999819,8,-568,-4005,-1329,-1388,1057,-146
304,2723.0607090000376,8,-650,-3418,-1287,-1465,989,-107
305,2731.8896299998414,8,-588,-3223,-1211,-1424,960,-120
306,2740.853550999873,8,-490,-2772,-1154,-1350,961,-204
307,2749.7644709997076,8,-226,-2528,-806,-1344,951,-216
308,2758.6793919999764,8,-184,-2409,-699,-1357,925,-117
309,2767.576312000074,8,288,-2094,-350,-1553,841,237
310,2776.4242329999433,8,501,-2327,-206,-2213,693,210
311,2785.44315299996,9,461,-2398,-385,-2656,365,412
312,2794.179075000102,8,390,-2365,-729,-3294,-48,513
313,2803.017996000108,8,273,-2619,-1482,-3806,-292,576
314,2811.91891699973,8,497,-2632,-1921,-4143,-418,580
315,2820.863836999706,8,218,-2669,-2406,-4175,-445,503
316,2829.695758000071,8,85,-2593,-2892,-4014,-452,333
317,2838.392680999732,8,212,-2461,-3316,-3872,-299,46
318,2847.6195989996995,9,120,-2278,-3436,-3741,-199,-104
319,2857.1745129997907,9,-117,-1758,-3987,-3716,-149,-153
320,2866.595428999972,9,-306,-1359,-4390,-4079,63,-101
321,2875.5323499999577,8,-422,-1592,-4167,-4090,619,19
322,2884.5192700000553,8,-496,-1489,-4355,-3713,732,63
323,2893.3721909997985,8,-657,-1544,-4562,-3096,773,51
324,2902.3361109998405,8,-620,-1519,-4440,-3092,888,11
325,2911.1450319996948,8,-763,-1118,-4680,-3094,892,-92
326,2919.958953999867,8,-785,-1336,-4290,-3331,687,-133
327,2928.860873999838,8,-819,-905,-4323,-3378,599,-154
328,2937.679795999884,8,-853,376,-5020,-3926,460,-210
329,2946.6277159999663,8,-1044,-446,-4611,-3569,479,10
330,2955.471636999846,8,-1106,116,-4562,-3160,539,106
331,2964.2525589997604,8,-915,166,-4398,-2875,634,229
332,2973.1294789999083,8,-916,-4,-4314,-2770,643,309
333,2981.908401000055,8,-883,-423,-4190,-3054,527,319
334,2990.8103220000157,8,-857,91,-3850,-2936,468,323
335,2999.408244999813,8,-876,348,-4105,-2565,340,271
336,3008.4591639997598,9,-827,513,-4106,-2374,266,287
337,3017.3960849997457,8,-700,592,-4080,-2237,248,366
338,3026.1740060000193,8,-763,653,-3970,-1854,223,472
339,3035.0089280000248,8,-451,688,-3721,-1452,225,518
340,3043.8858489997074,8,-316,375,-3520,-1210,196,554
341,3052.774768999825,8,-316,249,-3400,-1158,92,569
342,3061.666690000038,8,-202,161,-3215,-1284,-18,266
343,3070.538610999847,8,-327,-2,-3300,-1481,-117,441
344,3079.3615319998935,8,-541,222,-3429,-1635,-180,293
345,3088.310452999849,8,-503,455,-3393,-1698,-119,118
346,3097.134373999779,8,-540,948,-3291,-1555,-41,36
347,3106.2962920000246,9,-337,886,-2806,-1360,14,98
348,3115.2252130000306,8,-302,728,-2698,-1260,13,234
349,3124.6071289997417,9,-289,711,-2729,-1187,-89,263
350,3133.9880450000237,9,-340,704,-2954,-1130,-208,207
351,3143.8969569999244,9,-358,772,-3038,-783,-229,140
352,3153.377872999954,9,-423,706,-3096,-869,-212,152
353,3162.5647910000225,9,-317,782,-3130,-700,-178,161
354,3171.8287079997936,9,-321,827,-3388,-570,-178,171
355,3181.104624999989,9,-330,1059,-3334,-489,-170,127
356,3190.3165429998808,9,-200,1130,-3577,-395,-72,125
357,3199.544460999732,9,-15,925,-3504,-404,-11,203
358,3208.8083789999473,9,60,870,-3654,-562,-42,259
359,3218.0342960000416,9,104,1027,-4089,-817,-119,194
360,3227.5432120000005,9,159,1321,-4052,-952,-86,142
361,3236.39113299987,8,149,1315,-4139,-1136,-33,197
362,3245.2460539998356,8,127,1411,-4225,-1127,23,262
363,3254.1949739998017,8,181,1611,-4406,-1017,64,300
364,3263.0818949996865,8,43,1719,-4648,-903,103,276
365,3271.9498159999603,8,167,1753,-4737,-524,167,242
366,3280.8247369998753,8,210,1728,-4702,-551,510,239
367,3289.6616580001137,8,316,1922,-4710,-337,380,245
368,3298.5685779999585,8,372,2094,-4702,-136,433,283
369,3307.3025009998673,8,516,1978,-5505,109,436,184
370,3316.917414999807,9,440,1876,-4952,238,501,153
371,3325.8023359999243,8,450,2136,-4665,353,521,318
372,3334.6732569998494,8,930,3722,-5268,651,491,403
373,3343.5641769997346,8,544,1771,-4614,835,534,427
374,3352.448097999968,8,558,1951,-4502,928,503,419
375,3361.2780200001,8,875,2077,-4665,1127,439,377
376,3370.194939999692,8,872,1871,-4575,1325,404,369
377,3378.9968619998945,8,828,1553,-4513,1348,353,415
378,3387.9017819999717,8,810,1664,-4476,1320,293,475
379,3396.7737029997807,8,803,1583,-4391,1229,265,547
380,3405.6856239999433,8,699,1503,-4382,1062,226,619
381,3415.011540999785,9,574,1490,-4608,934,199,729
382,3423.8164620001044,8,588,1536,-4298,833,265,863
383,3432.7173829997264,8,529,1557,-4216,820,323,954
384,3441.5773040000204,8,476,1563,-4161,1006,373,1020
385,3450.6982230000176,9,529,1486,-3999,1265,474,1107
386,3459.6121429999585,8,544,1389,-3748,1776,538,1200
387,3468.456063999838,8,591,1242,-3601,1773,584,1278
388,3477.152986999954,8,545,1394,-3606,1888,630,1524
389,3486.1259069998596,8,491,1015,-3123,1963,689,1415
390,3494.908828000007,8,601,832,-3362,2053,817,1563
391,3503.7967489997754,8,541,824,-3471,2020,857,1626
392,3512.554671000089,8,421,1521,-3608,2003,787,1398
393,3521.337592999771,8,561,651,-3515,2306,831,1508
394,3530.2355139997417,8,485,1057,-3500,2635,899,1491
395,3539.0384349998385,8,688,837,-3456,2926,888,1588
396,3547.8213569999753,8,782,718,-3436,3610,892,1745
397,3556.754276999982,8,750,449,-3520,3972,899,1888
398,3565.5421989999923,8,759,98,-3555,4195,873,2053
399,3574.4511190000594,8,706,-454,-3587,4155,916,2041
400,3583.300040999802,8,671,-848,-3629,3851,926,1838
401,3592.120962000081,8,753,-1487,-3833,3566,885,1324
402,3601.0508819999814,8,784,-1530,-3607,3281,758,1077
403,3609.8448039997493,8,935,-1704,-3574,3051,647,1084
404,3618.827723999857,8,969,-1731,-3579,2818,274,928
405,3627.640644999701,8,946,-1617,-3514,2619,398,826
406,3636.5975660000913,8,993,-1472,-3389,2397,312,855
407,3645.5314859999817,8,1000,-1423,-3272,2174,189,1005
408,3654.5184060000793,8,898,-1428,-3256,1928,44,1181
409,3663.3343270000296,8,776,-1475,-3174,1912,-11,1026
410,3672.3102470000413,8,717,-1531,-3115,1904,16,1320
411,3681.122168999991,8,666,-2013,-3086,1840,8,1243
412,3690.0000900000123,8,595,-2180,-2983,1818,50,1025
413,3698.896009999771,8,638,-2288,-2780,1762,126,535
414,3707.7209320000293,8,694,-2204,-2431,1749,145,571
415,3716.774851000082,9,731,-1979,-2120,1758,173,470
416,3725.606771999992,8,757,-1600,-1832,1734,162,441
417,3734.563691999938,8,747,-1394,-1551,1795,60,526
418,3743.4026139999332,8,923,-1532,-1339,1981,51,882
419,3752.3765339997226,8,769,-1315,-1166,2179,98,1182
420,3761.2594540000828,8,777,-1391,-1264,2380,-244,1734
421,3770.174374999897,8,581,-2067,-1760,2505,-192,1661
422,3778.987295999741,8,423,-2918,-1894,2508,-325,1480
423,3787.8282179999587,8,413,-3570,-1999,2467,-366,1170
424,3796.6931390001264,8,418,-3961,-1941,2370,-409,879
425,3805.5350599997837,8,427,-3994,-1879,2299,-601,671
426,3814.320981000037,8,446,-3844,-1822,2232,-748,539
427,3823.078902999896,8,390,-3662,-1887,2152,-842,526
428,3831.8528249997144,8,311,-3373,-2013,2082,-889,548
429,3840.6057469996995,8,411,-3160,-2137,2095,-826,361
430,3849.359669000023,8,1832,-3101,-2050,2070,-577,433
431,3858.1735909997406,8,-256,-3423,-2502,2978,-515,506
432,3867.0015120001153,8,172,-3818,-2497,3369,-189,340
433,3875.945431999753,8,43,-4011,-2177,4094,486,240
434,3884.7703530000217,8,330,-4147,-1349,4409,642,98
435,3893.6142749998908,8,436,-4137,-963,4484,673,86
436,3902.449195999907,8,626,-4141,-312,4285,593,178
437,3911.235117999695,8,724,-4216,1,3718,420,317
438,3920.1240379998126,8,664,-4274,165,3164,165,741
439,3928.839960999994,8,616,-4197,229,2313,6,691
440,3938.382876000105,9,497,-4046,109,1977,-157,864
441,3947.7377919997707,9,290,-4276,-22,1622,-256,943
442,3957.0387089997894,9,128,-4861,-175,1413,-208,770
443,3966.4286259999244,9,131,-4580,-103,1515,-127,434
444,3975.614544000109,9,138,-4449,75,2011,-140,249
445,3984.8274619998847,9,115,-4102,266,2091,-198,173
446,3994.0703789998224,9,115,-4344,501,2231,-242,173
447,4003.360295999755,9,-1,-4280,610,2261,-334,264
448,4012.5342149999597,9,-152,-4117,677,2137,-374,495
449,4021.8091319998166,9,-274,-4332,745,1730,-356,702
450,4031.3960469998165,9,-409,-4153,892,1034,-282,858
451,4040.4879660000006,9,-560,-4304,1102,570,-272,896
452,4049.3458870000723,8,-604,-4500,1336,239,-373,865
453,4058.260806999897,8,-650,-4665,1387,-168,-664,803
454,4067.0947290000186,8,-679,-4607,1337,-529,-899,671
455,4075.9726490000503,8,-709,-4398,1141,-891,-1109,610
456,4084.828570999889,8,-696,-3847,992,-1385,-1520,614
457,4093.678491999981,8,-738,-3657,872,-1803,-1390,661
458,4102.477413000088,8,-778,-3312,721,-2208,-1432,778
459,4111.308335000103,8,-794,-2966,637,-2569,-1448,911
460,4120.176255999922,8,-814,-2795,350,-2912,-1431,1044
461,4129.0111769999385,8,-862,-2769,157,-3072,-1325,1140
462,4137.785098999757,8,-851,-2858,10,-3192,-1213,1194
463,4147.289013999853,9,-834,-2976,-54,-3287,-1126,1150
464,4156.288933999804,8,-835,-3169,-134,-3364,-1066,1116
465,4165.202853999745,8,-868,-3367,-182,-3538,-1042,1165
466,4174.039775999972,8,-963,-3493,-330,-4087,-1044,1266
467,4183.016695999868,8,-1101,-3424,-649,-4150,-1087,1340
468,4191.863616999854,8,-1265,-3254,-1263,-4318,-1139,1353
469,4200.886535999871,9,-1350,-3178,-1494,-4333,-1057,1276
470,4209.707457999684,8,-1393,-3210,-1864,-4247,-874,1133
471,4218.585378999705,8,-1514,-3411,-2137,-3942,-695,1014
472,4227.585299000111,8,-1595,-3793,-2531,-3705,-587,963
473,4236.45321999993,8,-1689,-4059,-2492,-3550,-611,842
474,4245.32513999975,8,-1629,-4175,-2609,-3421,-675,697
475,4254.214060999857,8,-1655,-4607,-2650,-3367,-695,292
476,4263.158981999823,8,-1615,-4215,-2660,-3417,-707,320
477,4272.085902000072,8,-1615,-3947,-2626,-3439,-742,122
478,4281.043821999901,8,-1731,-3344,-2691,-3377,-789,12
479,4289.984742999877,8,-1776,-3207,-2767,-3321,-772,-35
480,4298.925662999864,8,-1912,-3063,-2848,-3214,-764,-2
481,4307.772583999849,8,-1927,-2798,-2890,-3102,-795,-7
482,4316.827502999786,9,-1968,-2926,-2905,-3053,-823,-9
483,4325.555425999937,8,-2133,-3155,-2963,-3236,-892,25
484,4334.427346999746,8,-2144,-3254,-3003,-3824,-1036,35
485,4343.354266999995,8,-2261,-3269,-3152,-3904,-1210,-10
486,4352.296186999865,8,-2454,-2969,-3384,-4175,-1341,-166
487,4361.176108000109,8,-2420,-2566,-3792,-4135,-1350,-362
488,4370.014028999776,8,-2420,-2205,-3684,-3836,-1279,-531
489,4378.903949999767,8,-2367,-1913,-3666,-3125,-1192,-593
490,4387.820870999803,8,-2397,-1312,-3686,-2778,-1147,-691
491,4396.683791999749,8,-2351,-1336,-3713,-2387,-1135,-806
492,4405.492713000058,8,-2267,-1142,-4088,-2706,-1210,-966
493,4414.347634000023,8,-2442,-1786,-3565,-2237,-1130,-964
494,4423.123556000064,8,-2466,-1253,-3737,-2471,-1093,-1081
495,4431.95047800009,8,-2333,-988,-3949,-2536,-1103,-1181
496,4440.755398999954,8,-2330,-559,-4059,-2541,-968,-1201
497,4449.516320999919,8,-2250,-359,-4119,-2398,-799,-1154
498,4458.333242999743,8,-2138,-225,-4083,-1988,-658,-1104
499,4467.2141629998805,8,-2041,-167,-4028,-1602,-570,-1073
500,4476.070084999719,8,-1997,-185,-4049,-1225,-599,-1085
501,4484.886006000124,8,-1940,-335,-4026,-556,-644,-1192
502,4493.746926999847,8,-1913,-486,-4262,-471,-704,-1282
503,4502.5848479999695,8,-2035,-600,-4421,-40,-765,-1422
504,4511.448768999799,8,-1970,-469,-4745,368,-521,-1544
505,4520.264690999738,8,-1914,-387,-4708,713,-361,-1589
506,4529.13461199978,8,-1829,-253,-4504,1108,-200,-1505
507,4538.0665319999025,8,-1665,-250,-4267,1583,12,-1356
508,4546.910452999782,8,-1572,-327,-3962,1964,173,-1225
509,4555.8273739998185,8,-1500,-541,-3683,2350,243,-1130
510,4564.675294999688,8,-1406,-783,-3347,3064,239,-1137
511,4573.645214999942,8,-1360,-1026,-3185,3509,175,-1148
512,4582.5121359998775,8,-1397,-1268,-3125,4014,74,-1121
513,4591.390056999899,8,-1511,-1428,-3133,4407,8,-1050
514,4600.256977999834,8,-1646,-1589,-3097,4720,9,-1002
515,4609.090898999966,8,-1784,-1811,-3130,5022,78,-956
516,4618.065819000094,8,-1805,-2164,-2831,5196,264,-944
517,4626.908741000079,8,-1777,-2368,-2780,5286,511,-971
518,4635.858660999929,8,-1817,-2448,-2466,5285,711,-997
519,4644.759582000006,8,-1676,-2811,-2094,5164,828,-936
520,4653.719502000058,8,-1610,-2948,-1586,4912,831,-819
521,4662.615421999817,8,-1606,-3464,-1669,4529,740,-753
522,4671.550343000035,8,-1668,-3984,-1593,3901,621,-830
523,4680.383263999829,8,-1673,-4360,-1480,3330,467,-928
524,4689.297184999759,8,-1723,-4603,-1322,2751,268,-953
525,4698.170105999907,8,-1765,-4460,-1173,2258,37,-825
526,4706.985026999973,8,-1657,-4197,-1241,1709,-135,-751
527,4715.948947000015,8,-1590,-4059,-1376,1424,-504,-696
528,4724.7238689997175,8,-1624,-3924,-1791,1242,-268,-685
529,4733.597789999749,8,-1532,-3869,-1654,1189,-240,-651
530,4743.084705000001,9,-1516,-3945,-1735,1311,-166,-635
531,4752.414621999833,9,-1488,-4237,-1917,1788,-74,-726
532,4761.742538999897,9,-1391,-4800,-1954,1897,43,-909
533,4771.033455999714,9,-1238,-4767,-1872,2165,168,-1109
534,4780.287373999727,9,-1390,-5130,-1813,2472,241,-1125
535,4789.492291999977,9,-1155,-5076,-1661,2639,331,-1052
536,4798.704209999869,9,-574,-4898,-1364,2633,420,-997
537,4807.9621269998825,9,-534,-4757,-794,2439,526,-858
538,4817.203045000042,9,-239,-4579,-519,1861,554,-645
539,4826.455962999717,9,67,-4623,-18,1503,528,-465
540,4835.549882000123,9,144,-4840,337,919,349,-288
541,4845.4067939997,9,451,-4963,897,73,105,-171
542,4854.268714999762,8,447,-5286,1236,-781,-330,-63
543,4863.187635000031,8,327,-5580,808,-1546,-816,51
544,4872.042555999997,8,-245,-5668,438,-2656,-1392,221
545,4880.938476999745,8,-119,-5478,-300,-3145,-1734,240
546,4889.766399000109,8,-404,-5252,-844,-3483,-1683,177
547,4898.647318999792,8,-411,-5144,-1229,-3625,-1563,44
548,4907.486240999788,8,-752,-4996,-1408,-3618,-1057,-55
549,4916.43416099987,8,-684,-4805,-1690,-3577,-1114,-479
550,4925.295082000048,8,-608,-4604,-1733,-3562,-928,-339
551,4934.169003000079,8,-745,-4513,-1773,-3622,-822,-365
552,4943.135922999772,8,-665,-4319,-1677,-3731,-741,-374
553,4952.003844000046,8,-782,-4315,-1702,-3839,-653,-315
554,4960.965763999866,8,-887,-3911,-1817,-3941,-624,-183
555,4969.920684000044,8,-888,-3553,-1884,-4033,-548,1
556,4978.851604999818,8,-661,-3525,-1755,-4269,-366,290
557,4987.736525999935,8,-927,-3300,-2256,-4517,-269,529
558,4996.664446000068,8,-1113,-3120,-2412,-5083,-236,484
559,5005.5453669997405,8,-904,-2973,-2641,-5349,224,368
560,5014.540286999818,8,-982,-2351,-2911,-5232,171,332
561,5023.38620799992,8,-1042,-2136,-2959,-5100,429,749
562,5032.3151279999365,8,-585,-1945,-3078,-4915,686,806
563,5041.236048999963,8,-699,-1807,-3182,-4662,816,976
564,5050.127969999721,8,-697,-1560,-3300,-4564,843,1174
565,5058.953890999874,8,-760,-1621,-3702,-4564,701,1420
566,5067.867811999804,8,-892,-1323,-3985,-4115,604,1582
567,5076.615733999915,8,-967,-1202,-4421,-3839,554,1572
568,5085.592653999811,8,-789,-909,-4589,-3175,616,1593
569,5094.446574999893,8,-583,-786,-4112,-2512,802,1682
570,5103.309495999838,8,-574,-751,-4247,-2009,810,1681
571,5112.063417999707,8,-442,-647,-4083,-1486,685,1580
572,5120.904338999935,8,-395,-266,-3994,-914,427,1498
573,5132.707234000009,11,-264,-419,-4013,-62,223,1463
574,5142.182149999826,9,-225,-549,-3607,254,-53,1388
575,5150.999071000115,8,-81,-707,-3814,1029,-6,1216
576,5159.85399200008,8,-20,-688,-3812,1807,44,871
577,5168.809912999677,8,7,-681,-3476,2761,-16,615
578,5177.617834000102,8,6,-456,-3252,3594,-145,529
579,5186.4477559997795,8,-225,-149,-2821,4207,-380,548
580,5195.330675999685,8,-199,-328,-2908,5106,-384,622
581,5204.196597999726,8,-322,-472,-2836,5571,-207,665
582,5213.102517999687,8,-379,-794,-2701,5704,-78,625
583,5222.0394390001275,8,-383,-1214,-2552,6050,50,461
584,5230.94035899976,8,-239,-1252,-2240,6633,148,180
585,5239.781280999978,8,-213,-1288,-2053,6639,502,-15
586,5248.698201000025,8,-381,-1780,-1893,6813,415,-268
587,5257.542121999904,8,-759,-2278,-1844,7088,535,-144
588,5266.47904299989,8,-822,-1874,-1855,7107,559,13
589,5275.408962999791,8,-964,-2771,-1670,6939,673,160
590,5284.269883999968,8,-804,-2025,-1408,6463,1079,110
591,5293.134804999681,8,-652,-3259,-1096,5740,1266,130
592,5302.014725999925,8,-822,-4156,-1413,4801,1234,-14
593,5310.914647000118,8,-855,-4542,-1289,3963,1293,-375
594,5319.868566999958,8,-717,-4639,-1245,3475,1339,-1010
595,5328.819487999681,8,-737,-4584,-1013,3054,1291,-1187
596,5337.705407999692,8,-693,-4303,-748,2798,1252,-1417
597,5346.494330000041,8,-1400,-3967,-576,2743,808,-1302
598,5355.36625099985,8,-970,-3646,-405,2646,827,-815
599,5364.266172000043,8,-971,-3753,-391,2123,813,-809
600,5373.143092999726,8,-925,-3899,-273,1979,883,-648
601,5381.976013999974,8,-877,-4207,8,1072,955,-535
602,5390.890934999788,8,-777,-4572,350,138,930,-473
603,5399.735856000007,8,-689,-4745,654,-860,782,-490
604,5408.5857770000985,8,-652,-4877,871,-2032,483,-540
605,5417.526697000085,8,-794,-4409,700,-2574,-195,-570
606,5426.319618999969,8,-729,-4291,656,-2972,-414,-481
607,5435.248539999975,8,-774,-4103,-1355,-3353,-847,-260
608,5444.0604609999355,8,-309,-4256,-100,-4073,-1378,5
609,5452.983381999729,8,-595,-3133,-347,-4338,-1484,105
610,5461.852302999887,8,-37,-3491,-257,-4657,-1654,299
611,5470.802222999737,8,45,-3708,-944,-5017,-1830,531
612,5479.600144999949,8,12,-3583,-1378,-5214,-2014,477
613,5488.4160659999,8,-107,-3310,-1882,-5364,-2175,264
614,5497.281986999951,8,-169,-3154,-2558,-5346,-2215,68
615,5506.199907999871,8,-236,-2709,-2657,-5114,-2100,-125
616,5515.0378289999935,8,-302,-2332,-2834,-4436,-1923,-230
617,5523.870749999787,8,-311,-2111,-2718,-4174,-1736,-267
618,5532.763670999884,8,-442,-1953,-2616,-3903,-1632,-292
619,5542.284585999823,9,-540,-1710,-2556,-3638,-1639,-316
620,5551.73250200005,9,-641,-1508,-2983,-3458,-1723,-352
621,5560.99641999981,9,-801,-1338,-3318,-3015,-1809,-392
622,5570.377336000092,9,-1071,-1139,-4323,-2050,-1778,-458
623,5579.559253999832,9,-1116,-947,-4911,-638,-1518,-624
624,5588.79817199977,9,-1045,-801,-5424,862,-770,-1024
625,5598.075088999849,9,-910,-819,-5776,2627,30,-970
626,5607.26800700013,9,-941,-1081,-5459,4066,1107,-1054
627,5616.5129249998245,9,-659,-1317,-4612,4959,1803,-1136
628,5625.787843000126,9,-429,-1644,-4040,5424,2522,-1118
629,5635.036759999821,9,-53,-2262,-3411,5613,2505,-1005
630,5644.771672999923,9,114,-2647,-2753,5183,2528,-836
631,5653.756592999798,8,-10,-3190,-2678,5144,2355,-668
632,5662.596514999677,8,49,-3559,-2306,5098,2207,-546
633,5671.674434000124,9,-168,-3833,-2299,5007,2291,-496
634,5680.52135500011,8,-321,-4118,-2178,4898,2473,-521
635,5689.396276000025,8,-449,-4358,-1923,4894,2640,-554
636,5698.269196999718,8,-400,-4521,-1514,4800,2730,-573
637,5707.09511799987,8,-247,-4726,-948,4581,2779,-549
638,5716.0760379997555,8,-172,-4784,-626,4122,2694,-457
639,5724.918959999741,8,-75,-4904,-331,3549,2477,-29
640,5733.880880000015,8,-126,-5017,217,2819,2291,-62
641,5742.758801000036,8,-147,-5119,122,1888,2099,109
642,5751.692720999927,8,-377,-5237,224,1298,1916,301
643,5760.59264200012,8,-529,-5686,172,366,1471,535
644,5769.495562999964,8,-725,-5147,265,-208,1397,692
645,5778.353484000036,8,-291,-5554,473,-1218,1226,904
646,5787.316403999739,8,-611,-5771,360,-2109,932,1168
647,5796.157324999967,8,-658,-5412,166,-2989,495,1360
648,5805.074246000004,8,-682,-5273,-225,-3872,140,1626
649,5813.89316700006,8,-906,-5021,-667,-4774,-152,1831
650,5822.72508799997,8,-1121,-4368,-1078,-4840,-381,1994
651,5831.656008999744,8,-1307,-4239,-1752,-4769,-497,2085
652,5840.4629299998305,8,-1447,-4042,-1873,-4570,-431,1960
653,5849.257851999937,8,-1398,-3627,-1969,-4264,-278,1793
654,5858.002773999942,8,-1247,-3410,-1756,-4129,-199,1741
655,5866.866694999771,8,-1113,-3316,-1679,-4293,-504,1711
656,5875.765616000081,8,-1064,-3024,-1689,-4469,-449,1657
657,5884.604537000087,8,-926,-2814,-1552,-4756,-639,1669
658,5893.411458999708,8,-1055,-2408,-1697,-5035,-850,1645
659,5902.405378999902,8,-1125,-1932,-1911,-5130,-1036,1582
660,5911.198299999796,8,-1188,-1521,-2184,-5006,-1095,1459
661,5920.195220000096,8,-1246,-1281,-2456,-4736,-1018,1202
662,5929.056140999819,8,-1027,-795,-2668,-4231,-886,966
663,5937.940062000052,8,-1258,-871,-2790,-3774,-735,524
664,5946.798983000008,8,-1189,-739,-2737,-3322,-506,647
665,5955.676904000029,8,-1050,-669,-2597,-2948,-370,552
666,5964.627824999752,8,-996,-653,-2592,-2604,-366,507
667,5973.560744999759,8,-1004,-600,-2705,-2316,-489,468
668,5982.455666000078,8,-1092,-529,-3327,-1855,-641,408
669,5991.34458699973,8,-1198,-488,-3618,-888,-689,349
670,6000.283506999949,8,-1333,-655,-4082,89,-574,293
671,6009.140427999682,8,-1561,-1068,-4822,1375,-358,165
672,6018.121348000022,8,-1587,-1430,-5051,2680,-101,-156
673,6026.967269000124,8,-1396,-2218,-5328,4052,171,-519
674,6036.010189000081,9,-1864,-2694,-5533,4536,280,-768
675,6044.87410999991,8,-1567,-3070,-4886,4799,611,-1234
676,6053.834029999962,8,-1664,-3262,-4679,4736,1013,-1222
677,6062.6739509998515,8,-1445,-3866,-4522,4878,1297,-1211
678,6071.672870999919,8,-1613,-4040,-4420,4776,1789,-1161
679,6080.519792999894,8,-1661,-4128,-4341,4703,1738,-1046
680,6089.457712999774,8,-1562,-4534,-3893,4395,1728,-1014
681,6098.310633999972,8,-2071,-4201,-3692,4522,1864,-1174
682,6107.157554999958,8,-1887,-4371,-3301,4782,1911,-1248
683,6115.973476999898,8,-1867,-4331,-2632,5116,2048,-1255
684,6124.884397999722,8,-1745,-4482,-2308,5327,2238,-1328
685,6133.805317999759,8,-1711,-4292,-1703,5174,2346,-1375
686,6143.105234999894,9,-1546,-4148,-997,4752,2379,-1335
687,6151.952156999869,8,-1357,-4054,-153,3886,2295,-1080
688,6160.83807699988,8,-1154,-3927,405,3170,1816,-768
689,6169.692998999835,8,-919,-3810,898,2268,1724,-425
690,6178.5669199998665,8,-789,-3864,1171,1028,1140,-99
691,6187.4658399997315,8,-644,-3887,1094,-611,567,223
692,6196.261761999722,8,-621,-3743,791,-1977,-256,455
693,6205.196681999951,8,-586,-3573,374,-3097,-714,658
694,6213.973603999875,8,-590,-3286,-119,-3810,-857,785
695,6222.905524999987,8,-541,-2970,-566,-4239,-1023,863
696,6231.734445999791,8,-590,-2621,-895,-4809,-1099,866
697,6240.536367999994,8,-492,-2051,-1111,-4901,-1100,862
698,6249.388288999853,8,-549,-1938,-1294,-5112,-1082,859
699,6258.208210999783,8,-453,-1591,-1325,-5247,-1051,845
700,6267.079131999708,8,-338,-1365,-1330,-5340,-1024,858
701,6276.058051999826,8,-193,-814,-1344,-5354,-1030,862
702,6284.956971999691,8,-61,-852,-1325,-5349,-1113,874
703,6293.876892999833,8,10,-723,-1392,-5307,-1221,877
704,6302.735813999789,8,49,-585,-1650,-4912,-1360,835
705,6311.647734999951,8,24,-274,-2026,-4729,-1489,759
706,6320.605654999781,8,-190,-425,-3090,-3973,-1583,632
707,6329.431575999934,8,-341,-270,-4171,-2154,-1526,338
708,6338.3244970000305,8,-604,-174,-5090,-367,-1239,42
709,6347.138418999748,8,-644,-338,-5668,1572,-474,-486
710,6356.7423330000565,9,-691,-857,-5924,3586,181,-329
711,6365.833251999902,9,-631,-1600,-5846,4802,589,-174
712,6374.978170999839,9,-655,-2533,-5176,5314,961,-34
713,6384.282087999964,9,-513,-3503,-4940,5204,1184,-142
714,6393.465006000042,9,-414,-5107,-4547,4648,1189,-199
715,6402.6789239997015,9,-576,-5690,-4486,3599,1096,-204
716,6411.923841999851,9,-659,-5964,-4369,2717,949,-277
717,6421.144760000061,9,-716,-5567,-4188,2207,853,-475
718,6430.310677999842,9,-847,-4417,-4643,2255,663,-583
719,6439.566596000077,9,-762,-4859,-4101,2783,702,-567
720,6448.581516000104,9,-1391,-4539,-3949,3598,816,-659
721,6458.273428999746,9,-1524,-4526,-3737,4173,1053,-795
722,6467.081350999706,8,-1750,-4494,-3128,4502,1361,-905
723,6475.9682720000455,8,-1823,-4320,-2702,4650,1585,-879
724,6484.857192999698,8,-1772,-4166,-2019,4609,1708,-732
725,6493.714113999886,8,-1582,-3891,-1030,4415,1681,-441
726,6502.547034999679,8,-1440,-3811,-687,4063,1476,-133
727,6511.3109569997505,8,-1025,-3943,-206,3515,1212,104
728,6520.18587800012,8,-1173,-3975,-9,2814,915,114
729,6528.976799999782,8,-988,-3625,139,1913,621,134
730,6537.810720999914,8,-864,-3649,210,1273,236,186
731,6546.7476419999,8,-759,-3489,181,517,8,286
732,6555.57156299983,8,-730,-3231,45,405,-134,383
733,6564.473483999791,8,-704,-3033,-46,27,-263,514
734,6573.377403999984,8,-634,-2984,-188,-430,-335,671
735,6582.321325000066,8,-554,-2723,-226,-1242,-418,863
736,6591.15824599985,8,-556,-2409,-225,-1597,-539,1047
737,6600.174165999761,9,-490,-2242,-369,-1906,-663,1150
738,6609.021086999746,8,-514,-2352,-586,-2041,-653,989
739,6617.966006999723,8,-270,-2392,-666,-2008,-539,770
740,6626.831927999774,8,-481,-2206,-566,-1883,-488,601
741,6635.718849000114,8,-348,-2173,-364,-1979,-498,604
742,6644.621769999958,8,-421,-2084,-317,-2228,-650,690
743,6653.501690999747,8,-758,-2034,-482,-2454,-872,786
744,6662.425611999879,8,-683,-2001,-853,-2547,-1049,892
745,6671.46953099973,9,-751,-2122,-1478,-2403,-1041,953
746,6680.339451999771,8,-936,-2243,-1693,-1819,-935,913
747,6689.235372999974,8,-1161,-2429,-1981,-1295,-823,771
748,6698.164292999991,8,-1281,-2696,-2207,-661,-698,537
749,6707.017214999723,8,-1414,-3126,-2415,195,-525,244
750,6716.050133999943,9,-1503,-3570,-2481,1355,-375,-114
751,6724.889054999949,8,-1586,-3996,-2537,2141,-1,-384
752,6733.923974999925,9,-1710,-4547,-2555,2851,-158,-622
753,6742.767895999805,8,-1801,-4693,-2446,3294,-23,-796
754,6751.714816999993,8,-1917,-5009,-2140,3444,82,-811
755,6760.559737999756,8,-2054,-5250,-1781,3298,155,-681
756,6769.378658999813,8,-2091,-5488,-1517,2953,164,-472
757,6778.241579999758,8,-2051,-5661,-1037,2507,126,-310
758,6787.121501000001,8,-2015,-5736,-1072,2037,81,-200
759,6795.9794230000625,8,-1965,-5772,-912,1460,20,-159
760,6804.80534399976,8,-1907,-5731,-810,1067,-58,-155
761,6813.676264999685,8,-1871,-5469,-713,743,-157,-186
762,6822.526185999777,8,-1542,-5125,-507,449,-222,-211
763,6831.369106999773,8,-1774,-4746,-389,221,-328,-193
764,6840.209029000107,8,-1787,-4102,-299,14,-424,-166
765,6849.075950000042,8,-1731,-3957,-278,-78,-509,-134
766,6857.952870999725,8,-1569,-3645,-297,-165,-566,-1
767,6866.7807920001,8,-1463,-3342,-231,-306,-629,121
768,6875.532713999746,8,-1356,-3064,-252,-562,-708,217
769,6884.265635999782,8,-1273,-2603,-216,-757,-814,281
770,6893.133558000045,8,-1246,-2612,-199,-907,-873,302
771,6902.019478000057,8,-1202,-2470,-57,-1277,-860,273
772,6910.940399000083,8,-1126,-2338,48,-1101,-856,225
773,6919.871318999867,8,-1128,-2124,210,-1116,-936,206
774,6928.814240000065,8,-1043,-2071,366,-1161,-988,231
775,6937.699160999728,8,-987,-2115,575,-1421,-1045,329
776,6946.718079999755,9,-858,-2074,713,-2080,-1131,496
777,6955.586001000029,8,-836,-2302,906,-3120,-1275,1003
778,6964.518922000025,8,-1035,-2100,633,-4828,-1647,1029
779,6976.025818999915,11,-1302,-1752,216,-5623,-1875,1062
780,6984.911739999916,8,-1407,-1776,-506,-6030,-1826,782
781,6993.83466099971,8,-1511,-1943,-806,-5990,-1578,815
782,7002.7095820000795,8,-1675,-2089,-1184,-5760,-1025,577
783,7011.63950199998,8,-1911,-2300,-1486,-5445,-1097,463
784,7020.602423000128,8,-2161,-2732,-2029,-5328,-1122,396
785,7029.437343999689,8,-2219,-2880,-2061,-5294,-1171,173
786,7038.419263999913,8,-2517,-3033,-2513,-5089,-1302,-52
787,7047.337184999833,8,-2799,-2804,-3233,-4801,-1467,-497
788,7056.228105999708,8,-3084,-2757,-3758,-4587,-1516,-404
789,7065.253024999947,9,-3265,-2418,-4199,-4289,-1396,-728
790,7074.151945999802,8,-3607,-2202,-4663,-3950,-791,-977
791,7083.121866000056,8,-3757,-2148,-5005,-3530,-739,-1278
792,7091.997786999855,8,-3821,-2200,-5108,-3062,-529,-1099
793,7100.936708000063,8,-3811,-2531,-5255,-2406,-346,-1235
794,7109.829627999716,8,-3730,-2400,-5320,-1882,-249,-1430
795,7118.768548999924,8,-3679,-2287,-5111,-1640,-242,-1576
796,7127.565470999798,8,-3413,-2490,-5107,-1722,-360,-1623
797,7136.4113919999,8,-3386,-2272,-5199,-1630,-504,-1752
798,7145.952306999789,9,-3333,-1915,-5235,-1576,-215,-1769
799,7155.403223000121,9,-3209,-1745,-5100,-1541,-176,-1759
800,7164.929137999934,9,-3106,-1757,-5099,-1025,-12,-1775
801,7174.192055999811,9,-2850,-1964,-4976,-1100,279,-1803
802,7183.46897299989,9,-2632,-1691,-4751,-1054,684,-1805
803,7192.663890999938,9,-2420,-1391,-4384,-1076,844,-1754
804,7201.902808999876,9,-2072,-1180,-4076,-1074,894,-1647
805,7211.093726999934,9,-1572,-1031,-3628,-979,891,-1472
806,7220.322645000124,9,-1549,-970,-3293,-773,853,-1332
807,7229.502563000096,9,-1354,-1105,-3180,-644,803,-1190
808,7238.7424809999175,9,-1035,-1501,-3075,-610,723,-1105
809,7247.909400000026,9,-1125,-1438,-2825,-641,695,-1045
810,7257.693311999901,9,-994,-1569,-2674,-745,739,-1044
811,7266.684231999989,8,-810,-1452,-2466,-827,747,-1071
812,7275.608153000121,8,-658,-1551,-2209,-1028,753,-1055
813,7284.5860729999,8,-397,-1823,-1910,-1779,847,-968
814,7293.44199399975,8,-565,-1657,-1841,-2443,909,-924
815,7302.4189140001,8,-713,-1412,-1878,-3265,713,-811
816,7311.270835999949,8,-559,-1071,-2012,-4349,407,-844
817,7320.279754999774,9,-625,-527,-2286,-4608,102,-881
818,7329.084677000083,8,-505,-417,-2530,-4603,-102,-865
819,7338.01259799975,8,-598,-54,-2994,-4283,-133,-764
820,7346.9275180000295,8,-718,114,-2885,-3779,-20,-634
821,7355.8464389998335,8,-544,145,-2812,-3055,108,-701
822,7364.6173610000005,8,-549,144,-2709,-2529,155,-785
823,7373.408283000117,8,-614,242,-2683,-2172,73,-848
824,7382.280203999926,8,-669,384,-2828,-1835,-25,-841
825,7391.004126000098,8,-885,628,-3099,-1489,-187,-772
826,7399.781048000023,8,-1058,879,-3500,-1088,-324,-671
827,7408.555969999725,8,-1234,947,-3875,-825,-388,-559
828,7417.460889999802,8,-1545,694,-4554,-717,-387,-485
829,7426.247811999929,8,-2031,634,-4689,-685,-342,-521
830,7435.230732000036,8,-2041,550,-4874,-727,-304,-576
831,7444.033654000123,8,-2233,472,-5026,-849,-277,-569
832,7452.9425749997245,8,-2345,579,-5130,-919,-249,-567
833,7461.7984960000285,8,-2365,760,-5230,-889,-246,-598
834,7470.655416999762,8,-2384,980,-5206,-798,-252,-584
835,7479.517337999823,8,-2399,1111,-5265,-666,-210,-509
836,7488.436259000082,8,-2345,1105,-5229,-462,-103,-439
837,7497.350179000023,8,-2290,935,-5071,-255,-8,-381
838,7506.235099999685,8,-2157,322,-4922,-167,141,-330
839,7515.159020999818,8,-2058,361,-4858,-303,294,-400
840,7523.9599429996815,8,-1957,224,-4706,-501,357,-652
841,7532.988861999911,9,-1731,316,-4414,-713,418,-835
842,7541.811783999947,8,-1563,318,-4131,-740,408,-962
843,7550.800703999812,8,-1326,470,-3946,-748,438,-1088
844,7559.611624999889,8,-1302,597,-3879,-672,438,-1198
845,7568.460547000086,8,-1006,971,-3681,-688,378,-1258
846,7577.4234669997895,8,-818,971,-3477,-634,363,-1237
847,7586.288387999957,8,-691,983,-3296,-561,306,-1199
848,7595.197309000014,8,-575,736,-3136,-484,275,-1179
849,7604.139228999884,8,-563,698,-3164,-422,262,-1242
850,7613.031150000097,8,-645,641,-3122,-404,189,-1312
851,7621.891070999936,8,-662,430,-2982,-636,173,-1413
852,7630.771992000064,8,-563,434,-2852,-801,157,-1612
853,7639.607912999963,8,-530,623,-2826,-897,74,-1742
854,7648.481833999995,8,-543,860,-2912,-999,-55,-1811
855,7657.3827550000715,8,-620,926,-3140,-1034,-204,-1837
856,7666.215676999855,8,-743,972,-3429,-1074,-178,-1850
857,7675.113596999836,8,-814,1077,-3671,-1102,-131,-1800
858,7683.960518999811,8,-907,1122,-3739,-1004,-79,-1698
859,7692.807439999797,8,-1018,1178,-3919,-945,-63,-1624
860,7701.684360999934,8,-1199,1127,-4008,-850,-27,-1566
861,7710.451283000111,8,-1665,1118,-4225,-788,45,-1476
862,7719.232205000026,8,-1652,1051,-4383,-847,90,-1397
863,7728.077125999789,8,-1806,1169,-4557,-870,125,-1288
864,7736.937047000083,8,-1799,1472,-4640,-841,212,-1193
865,7745.76696899976,8,-1870,1580,-4684,-733,247,-1054
866,7754.595890000019,8,-1817,1704,-4715,-561,262,-935
867,7763.392811999893,8,-1850,1617,-4695,-342,304,-825
868,7772.295731999748,8,-1912,1523,-4682,-215,318,-704
869,7781.132653999975,8,-1943,1415,-4637,-85,275,-599
870,7790.012574999764,8,-1971,1310,-4643,26,219,-539
871,7798.914495999725,8,-2054,1149,-4664,78,184,-473
872,7807.778417000009,8,-1999,1087,-4607,75,199,-455
873,7816.727336999975,8,-1929,1123,-4500,80,160,-436
874,7825.558258000001,8,-1840,1248,-4423,37,105,-390
875,7834.606177999831,9,-1690,1334,-4294,43,65,-315
876,7843.455099000039,8,-1536,1258,-3869,76,83,-236
877,7852.422018999732,8,-1455,1164,-3996,112,90,-182
878,7861.3169400000515,8,-1275,1102,-3874,148,76,-168
879,7870.240860999729,8,-1208,995,-3797,135,37,-157
880,7879.178781000064,8,-1168,912,-3781,81,0,-198
881,7888.136700999894,8,-1067,965,-3788,52,-21,-272
882,7896.832624000126,8,-1025,1259,-3772,22,-48,-306
883,7905.64954599995,8,-957,1114,-3720,-69,-61,-327
884,7914.550466000037,8,-911,1240,-3687,-131,-58,-330
885,7923.420387000078,8,-811,1313,-3715,-188,-42,-284
886,7932.362307999938,8,-796,1448,-3631,-290,-21,-169
887,7941.213228999914,8,-680,1622,-3474,-339,13,-65
888,7950.193148999915,8,-583,1566,-3347,-320,25,4
889,7958.82807199996,8,-640,1407,-3428,-328,24,50
890,7968.496985999991,9,-641,1323,-3395,-393,19,-245
891,7977.7579040001,9,-623,1302,-3459,-413,26,-99
892,7987.080820999836,9,-609,1301,-3513,-453,-29,-123
893,7996.369737999885,9,-577,1583,-3594,-480,-118,-124
894,8005.612655999812,9,-576,1716,-3643,-434,-128,-59
895,8014.903573000083,9,-543,1823,-3737,-430,-83,105
896,8024.093490999803,9,-618,1833,-3766,-445,-21,234
897,8033.322408999993,9,-586,1849,-3706,-437,34,316
898,8042.57732699989,9,-631,1838,-3677,-413,15,370
899,8051.779245000034,9,-623,1719,-3700,-410,-254,375
900,8061.239160999776,9,-707,1619,-3819,-445,-6,326
901,8070.475079000062,9,-802,1669,-3937,-436,-16,261
902,8079.307999999855,8,-829,1876,-4030,-420,-37,507
903,8088.301920000049,8,-874,2091,-4101,-363,-70,353
904,8097.100841999691,8,-832,2281,-4184,-288,-89,485
905,8105.97576300006,8,-941,2397,-4300,-144,-100,635
906,8114.956682999946,8,-964,2421,-4333,9,-73,823
907,8123.806604000038,8,-1006,2291,-4374,136,-71,1002
908,8132.630525999957,8,-1114,2073,-4433,227,-89,1022
909,8141.44844700013,8,-1250,1912,-4528,272,-124,982
910,8150.991361999786,9,-1314,1852,-4612,6,-151,958
911,8159.824284000024,8,-1355,1844,-4694,228,-112,1012
912,8172.873168000024,13,-1339,1914,-4631,196,-48,1091
913,8181.769088999772,8,-1242,1997,-4501,251,35,1195
914,8190.585009999722,8,-1123,1968,-4298,319,92,1311
915,8199.20593300003,8,-1008,1983,-4102,431,116,1429
916,8208.463851000033,9,-883,1926,-3999,567,128,1482
917,8217.379771999731,8,-797,2011,-3964,695,117,1482
918,8226.19269300003,8,-650,2213,-3939,838,85,1484
919,8235.13861399988,8,-272,2454,-3930,1255,63,1544
920,8243.944535000082,8,-514,2571,-4050,1176,78,1681
921,8252.83645599984,8,-560,2554,-4207,1275,229,1870
922,8261.734376999812,8,-490,2519,-4167,1348,469,2049
923,8270.600297999863,8,-397,2435,-4071,1442,619,2155
924,8279.456218999712,8,-254,2421,-3913,1535,726,2284
925,8288.367139999991,8,-172,2342,-3847,1672,794,2417
926,8297.326059999705,8,-175,2379,-3883,1866,772,2448
927,8306.206980999832,8,-116,2446,-3847,2269,754,2436
928,8315.100901999813,8,-14,2505,-3845,2679,723,2449
929,8323.951823999778,8,-133,2599,-4154,3156,675,2487
930,8332.818744999713,8,-894,2309,-4971,3657,788,2639
931,8341.671665999911,8,-1024,2074,-5121,4052,1325,2683
932,8350.605585999801,8,-677,1962,-4800,4248,1945,2705
933,8359.42650800007,8,-543,1447,-4153,4291,2222,2743
934,8368.297428999995,8,-539,1081,-4163,3867,2192,2697
935,8377.133349999895,8,-530,738,-4137,3880,2096,2568
936,8386.119271000098,8,-471,703,-4130,3783,1995,2480
937,8394.949191999785,8,-493,583,-3914,3728,1891,2379
938,8403.798112999993,8,-761,563,-3793,3893,1735,2344
939,8412.532035999902,8,-590,447,-3924,4510,1577,2301
940,8421.44095599997,8,-948,184,-4079,4653,1557,2243
941,8430.262878000121,8,-1072,-229,-4134,4773,1873,2109
942,8438.937801000066,8,-1001,-513,-3978,4759,2160,1976
943,8447.687722999945,8,-862,-768,-3477,4543,2337,1847
944,8456.536643999698,8,-723,-963,-3057,3936,2414,1822
945,8465.359565999734,8,-390,-996,-2617,3629,2072,1892
946,8474.113488000057,8,-301,-928,-2388,3151,1991,1997
947,8483.055407999927,8,-240,-907,-2409,2886,1612,2053
948,8491.820329999882,8,-236,-991,-2624,2834,1277,1989
949,8500.589251999827,8,-208,-1184,-2713,3023,1073,1860
950,8509.39917400001,8,-316,-1546,-2881,3288,1005,1614
951,8518.209094999747,8,-322,-1960,-2946,3539,1010,1367
952,8527.064016999702,8,-285,-2186,-2812,3665,1091,1117
953,8535.993937000057,8,-195,-2300,-2546,3672,1154,1051
954,8544.795858999805,8,24,-2238,-2171,3561,1083,1131
955,8553.796779000095,9,111,-2200,-1892,3409,908,1232
956,8562.59769999997,8,104,-2226,-1599,3274,770,1306
957,8571.51562099989,8,206,-2054,-1286,3061,678,1408
958,8580.344542999683,8,167,-2331,-1044,2879,578,1482
959,8589.216463999946,8,228,-2536,-923,2709,511,1482
960,8598.16338399969,8,173,-2890,-877,2449,492,1181
961,8606.992304999949,8,124,-3230,-930,2153,471,757
962,8616.137223999885,9,120,-3274,-861,2006,471,426
963,8624.989144999745,8,359,-3200,-587,1820,431,240
964,8633.866065999882,8,260,-2894,-577,1699,272,267
965,8642.678987999716,8,394,-2769,-699,1615,159,338
966,8651.692907999859,9,301,-2497,-910,1457,239,416
967,8660.520828999779,8,342,-2344,-1041,1325,403,546
968,8669.39074999982,8,394,-2183,-1064,1369,543,732
969,8678.224671999942,8,337,-2291,-1311,1819,600,940
970,8687.149591999969,8,197,-2407,-1455,2371,849,1071
971,8696.135511999728,8,-1,-3116,-1513,3236,1140,1026
972,8704.982433999703,8,-43,-3961,-1066,3758,1444,700
973,8713.930353999785,8,-55,-4796,-400,3847,1612,341
974,8722.788274999857,8,23,-4827,482,3867,1435,210
975,8731.657196000015,8,120,-5021,604,3365,1179,229
976,8740.53211699993,8,157,-5037,619,2910,1006,322
977,8749.346039000102,8,83,-4639,552,2475,930,416
978,8758.170959999916,8,4,-4460,375,1971,925,561
979,8766.961882000032,8,-94,-4044,245,1594,982,1005
980,8775.800804000028,8,-293,-4060,197,1364,1117,968
981,8784.66672500008,8,-426,-4427,460,1357,1259,935
982,8793.448646999877,8,-493,-5010,810,1398,1293,758
983,8802.313568000045,8,-482,-5164,1187,1359,1177,292
984,8811.162488999798,8,-451,-5323,1482,1130,959,315
985,8819.945410999935,8,-375,-5219,1614,521,701,191
986,8828.814332000093,8,-393,-4933,1572,296,454,142
987,8837.63225299981,8,-415,-4535,1063,41,163,212
988,8846.392175999881,8,-524,-4194,947,-71,86,412
989,8855.314095999802,8,-580,-3760,574,-50,142,553
990,8864.122017999762,8,-616,-3467,449,145,224,634
991,8873.079938000046,8,-605,-3264,444,363,338,702
992,8881.9788589999,8,-606,-3286,640,511,396,810
993,8890.888779999841,8,-578,-3533,763,583,396,829
994,8899.74870099968,8,-535,-4093,881,579,339,702
995,8908.588622000025,8,-563,-4032,959,530,191,555
996,8917.346543999884,8,-508,-3920,911,495,53,465
997,8926.164466000046,8,-555,-3782,782,430,-24,393
998,8935.09938599982,8,-613,-3712,712,413,251,402
999,8943.934307999825,8,-674,-3464,608,424,16,476
1000,8952.791229000013,8,-701,-3213,555,474,73,562
1001,8961.689149999984,8,-651,-3152,602,557,165,657
1002,8970.571070999995,8,-652,-3153,723,762,218,691
1003,8979.374991999975,8,-627,-3460,848,897,349,680
1004,8988.28191299981,8,-611,-3762,988,936,413,601
1005,8997.133834000124,8,-601,-3976,1180,847,401,487
