time,accX,accY,accZ,gyroX,gyroY,gyroZ,temp
1607123570.2483928,9.159744852988332,-0.9140981135766665,1.688694669573333,-16.66058333333334,6.629875000000007,53.81191666666668,0.5189240000000003,0.2458213333333334,0.010961999999999998,18.5,False
1607123570.2601573,9.180701990926666,-0.8671190298633331,1.1745967339633336,-25.567791666666672,-2.809916666666667,48.73516666666668,0.5205480000000002,0.2431613333333334,0.010961999999999998,18.5,False
1607123570.2718825,9.150971170121668,-0.8097909884049999,1.1668200605133336,-23.34704166666667,-2.4158749999999998,48.87895833333335,0.5221066666666668,0.24054800000000004,0.010877999999999997,18.5,False
1607123570.2915635,9.131988110828333,-0.7506683299966664,1.161575790981667,-23.15716666666667,-3.5656250000000003,48.70600000000001,0.5236653333333335,0.23850400000000002,0.010877999999999997,18.5,False
1607123570.3034425,9.125248327171667,-0.6653442641183333,1.1662816754283336,-23.63054166666667,-4.937625000000001,48.04245833333334,0.5247106666666668,0.2359653333333334,0.010751999999999996,18.5,False
1607123570.3233242,9.110113724226666,-0.5861817164349999,1.182592749485,-24.14416666666667,-6.353375,46.676291666666685,0.5257560000000001,0.2334266666666667,0.010751999999999996,18.5,False
1607123570.3444042,9.078568346283333,-0.5444668424416665,1.2330613661566665,-24.326750000000004,-7.417083333333334,44.94641666666667,0.5269320000000001,0.23095333333333334,0.01076133333333333,18.5,False
1607123570.367127,9.044111700843334,-0.5090929483383332,1.278186012355,-24.181791666666673,-7.5343333333333335,43.05758333333334,0.5280986666666667,0.2282933333333333,0.010546666666666664,18.5,False
1607123570.387338,9.003752759656667,-0.4623531468849998,1.2910673740183332,-23.96975000000001,-7.271833333333332,41.47441666666668,0.5287706666666667,0.22578266666666663,0.010565333333333331,18.5,False
1607123570.404003,8.963134596021666,-0.41810586897333324,1.2981461408766666,-23.722125000000005,-7.000291666666666,39.66258333333334,0.52948,0.22334666666666664,0.010546666666666664,18.5,False
1607123570.4196959,8.860542327046666,-0.39916269005666655,1.3318051787833334,-22.773916666666672,-6.639499999999999,37.004333333333335,0.5301893333333333,0.22091066666666662,0.010546666666666664,18.5,False
1607123570.4382818,8.880761678016666,-0.3491726379049999,1.3300903225866667,-22.103666666666673,-6.065499999999999,34.45225000000001,0.5309266666666667,0.21847466666666662,0.010518666666666664,18.5,False
1607123570.4574478,8.863553295484998,-0.3152543775499999,1.3218550248049998,-20.972,-5.101833333333333,31.88004166666667,0.5312533333333334,0.21671066666666663,0.011022666666666663,18.5,False
1607123570.4691594,8.886444631691667,-0.27226333150333326,1.2895120393283335,-20.043333333333337,-4.128833333333333,29.34400000000001,0.53158,0.21494666666666665,0.011022666666666663,18.5,False
1607123570.4807355,8.978129617648333,-0.22759730963666672,1.2581860034566668,-19.606416666666668,-3.406958333333334,27.285416666666674,0.5320280000000001,0.21318266666666666,0.011204666666666665,18.5,False
1607123570.4926884,8.986005992039999,-0.22608185532333328,1.2495917822849998,-19.55741666666667,-2.9887083333333337,25.514708333333342,0.5324760000000002,0.21141866666666667,0.011204666666666665,18.5,False
1607123570.5043082,8.988378874451666,-0.22265214292999996,1.2277772162483334,-19.505208333333336,-2.664666666666668,23.535166666666672,0.5327746666666668,0.21019599999999997,0.010854666666666664,18.5,False
1607123570.51606,9.029296140911667,-0.21345971610833328,1.2189437128166667,-19.242125,-2.4082916666666687,21.878791666666675,0.5330733333333335,0.20897333333333332,0.010854666666666664,18.5,False
1607123570.5276532,9.060881399231667,-0.19696918035666666,1.231904835233333,-19.04904166666667,-2.0623750000000007,20.340541666666674,0.5332226666666667,0.20792799999999997,0.010952666666666664,18.5,False
1607123570.539374,9.096773738231667,-0.176889410705,1.2582258838333331,-18.76875,-1.330875000000001,18.89737500000001,0.5333720000000001,0.20688266666666663,0.010952666666666664,18.5,False
1607123570.550831,9.134460694181666,-0.14638092255500001,1.2625130243249998,-18.139333333333337,-0.41358333333333414,17.39325000000001,0.5335586666666667,0.20552933333333331,0.011162666666666663,18.5,False
1607123570.562612,9.171509564105,-0.12594222951333334,1.249910825298333,-17.26491666666667,0.4899999999999995,15.675916666666671,0.5334186666666667,0.20440000000000003,0.011162666666666663,18.5,False
1607123570.574104,9.204012071088332,-0.12753744458,1.2262019413699998,-16.32079166666667,1.1984583333333325,13.880124999999998,0.5332786666666667,0.2032706666666667,0.011162666666666663,18.5,False
1607123570.5856478,9.211050957569999,-0.150448720975,1.2053245641849997,-15.57441666666667,1.8503333333333325,12.171249999999999,0.5330453333333334,0.20216000000000006,0.010756666666666664,18.5,False
1607123570.597118,9.205048960881665,-0.18013966140333335,1.1850653328383332,-15.126416666666668,2.546833333333333,10.643499999999998,0.5328120000000001,0.20104933333333336,0.010756666666666664,18.5,False
1607123570.6087577,9.188139681174997,-0.20606190623666668,1.1652447856350001,-14.893083333333333,3.2759999999999994,9.232999999999999,0.5327186666666667,0.2000506666666667,0.010667999999999999,18.5,False
1607123570.6201808,9.175736884031664,-0.22727826662333336,1.1455837599383332,-14.566416666666667,4.165583333333333,8.05845833333333,0.5326253333333333,0.199052,0.010667999999999999,18.5,False
1607123570.6328917,9.163832591596664,-0.2387239347266667,1.1154341951783333,-14.021583333333332,5.2132499999999995,6.889750000000001,0.5326253333333333,0.1980253333333333,0.011353999999999998,18.5,False
1607123570.6448677,9.14945571580833,-0.25491536765333334,1.073838962315,-13.474708333333334,6.299708333333333,5.558291666666666,0.5326253333333334,0.19699866666666666,0.011353999999999998,18.5,False
1607123570.6565166,9.136554413956663,-0.26787649007000003,1.0314062415416667,-12.937166666666666,7.431375000000001,4.330083333333334,0.532784,0.19630799999999998,0.011470666666666662,18.5,False
1607123570.6682286,9.125268267359996,-0.27286153715333333,0.9859226719533333,-12.260208333333333,8.547,3.1628333333333334,0.5329426666666667,0.19561733333333328,0.011470666666666662,18.5,False
1607123570.6798134,9.123034966266665,-0.26955146589,0.9350153711383334,-11.468625000000001,9.586208333333333,1.7949166666666676,0.5333253333333333,0.19499199999999994,0.011330666666666663,18.5,False
1607123570.6916435,9.123613231728333,-0.2746162737266667,0.8910073754866669,-10.865458333333331,10.518375,0.4179583333333335,0.5337733333333332,0.19431999999999994,0.011330666666666663,18.5,False
1607123570.7032814,9.11176875985833,-0.2958326341133333,0.8549555149800001,-10.277166666666668,11.459583333333333,-0.9309999999999997,0.5342213333333333,0.193648,0.011330666666666663,18.5,False
1607123570.7149963,9.09834901311,-0.3345564798566667,0.8271389522550002,-9.298041666666672,12.50025,-1.8940833333333331,0.5347346666666667,0.19352666666666665,0.011633999999999997,18.5,False
1607123570.7267432,9.102117708705,-0.3675176111716667,0.7937590769850001,-8.456291666666667,13.684125,-2.3566666666666674,0.535248,0.19340533333333332,0.011633999999999997,18.5,False
1607123570.738491,9.129395886345002,-0.36173495655500004,0.7362316336433334,-7.694458333333334,14.727416666666668,-2.636666666666667,0.5356493333333333,0.19309733333333332,0.011470666666666662,18.5,False
1607123570.750142,9.171948248248333,-0.3510270754200001,0.6830910317350001,-6.8072083333333335,15.197875000000002,-2.878458333333334,0.5360599999999999,0.19297599999999998,0.011470666666666662,18.5,False
1607123570.762154,9.22624538108,-0.3693919888750001,0.6560521363549999,-5.76275,15.483416666666669,-3.494458333333334,0.5365266666666666,0.19323733333333332,0.011680666666666664,18.5,False
1607123570.7737322,9.294660167251665,-0.4114259058816668,0.641934483015,-4.66025,16.041958333333334,-3.8351250000000006,0.536956,0.19342399999999998,0.011680666666666664,18.5,False
1607123570.785461,9.394201587411665,-0.44656051772499994,0.6204589001799999,-3.6715,16.90091666666667,-4.0019583333333335,0.5373946666666666,0.19379733333333335,0.01193733333333333,18.5,False
1607123570.8045578,9.525806830411666,-0.48129632580166665,0.5997609846899999,-2.7719999999999994,17.532083333333336,-3.8284166666666675,0.5378053333333332,0.19417066666666666,0.01193733333333333,18.5,False
1607123570.8163788,9.712506813776665,-0.4788436826366666,0.5945366553466663,-2.3292499999999996,17.651666666666667,-3.584291666666667,0.538608,0.19422666666666666,0.012109999999999998,18.5,False
1607123570.8282506,9.99888779862,-0.4312464530849999,0.6383253089266663,-1.841291666666667,17.332583333333336,-3.5428750000000004,0.5394106666666666,0.19428266666666666,0.012109999999999998,18.5,False
1607123570.8401086,10.324032509583333,-0.335294266825,0.7300900556366663,-1.1780416666666667,16.918125000000003,-3.3518333333333334,0.540288,0.19446933333333336,0.012399333333333328,18.5,False
1607123570.8518388,10.651051598250001,-0.20251255271333335,0.8581658853016665,-0.6063750000000002,16.944958333333336,-2.495791666666668,0.5411653333333333,0.19465600000000005,0.012399333333333328,18.5,False
1607123570.8635726,10.975279060550001,-0.024287149390000005,0.9671390145433331,0.39958333333333357,17.409000000000002,-1.290916666666667,0.5423039999999999,0.19479600000000005,0.01216133333333333,18.5,False
1607123570.8752084,11.304491569933333,0.18845471993833338,1.0085149053349998,2.5272916666666676,17.553375000000003,0.030916666666666023,0.5434426666666667,0.19493600000000008,0.01216133333333333,18.5,False
1607123570.8868713,11.636236483234999,0.4134398649033334,0.9918847882649998,5.350916666666667,17.098666666666666,0.7778749999999999,0.5446746666666668,0.19461866666666677,0.01255333333333333,18.5,False
1607123570.8985233,11.963853777551666,0.6221936965650001,0.9380662199533332,8.472916666666668,16.009875000000005,0.6279583333333334,0.5459066666666667,0.1943013333333334,0.01255333333333333,18.5,False
1607123570.9103222,12.291909756011666,0.7996414325433335,0.8874380817749998,12.230166666666667,14.205916666666667,0.4083333333333332,0.5471013333333334,0.19429200000000008,0.01255333333333333,18.5,False
1607123570.9218783,12.618131237144999,1.0090134100433334,0.8595816386733333,16.20354166666667,12.057208333333335,0.25374999999999986,0.5483053333333334,0.1945533333333334,0.012399333333333328,18.5,False
1607123570.933583,12.948540157828331,1.2250454104466664,0.8127820166549999,19.113208333333333,10.559500000000002,-0.6279583333333335,0.5495093333333334,0.19481466666666675,0.012399333333333328,18.5,False
1607123570.945121,13.149417615098333,1.3577872441816663,0.6383851294916667,19.263125,9.534291666666666,-1.873666666666667,0.5507693333333336,0.19523466666666675,0.012403999999999997,18.5,False
1607123570.959827,13.137373741345,1.4459826971799996,0.37270206013833335,15.532124999999997,7.363416666666662,-2.291625000000001,0.5520293333333335,0.1956546666666667,0.012403999999999997,18.5,False
1607123570.971657,12.874542118923333,1.551227011203333,0.21718853132666663,9.493749999999997,3.173916666666663,-1.911583333333334,0.5530560000000002,0.1962426666666667,0.011960666666666663,18.5,False
1607123570.983343,12.455818104111668,1.7435501276783327,0.28051856947333337,2.8743749999999966,-1.3877500000000016,-2.110500000000001,0.5540826666666668,0.1968306666666667,0.011960666666666663,18.5,False
1607123570.994969,11.856515743753334,1.8672590560983329,0.49445685010166673,-0.6477916666666711,-4.620000000000003,-4.583250000000001,0.5544653333333336,0.19700800000000002,0.011003999999999996,18.5,False
1607123571.0068157,10.997452549976668,1.7974285165549995,0.7323632371066666,0.9902083333333316,-5.604375000000003,-9.752458333333333,0.5548480000000002,0.19718533333333338,0.011003999999999996,18.5,False
1607123571.018458,10.055079249343333,1.3923834709399998,0.7430711182416666,2.967416666666666,-3.8893750000000002,-15.537083333333333,0.5543626666666669,0.19830533333333333,0.010653999999999997,18.5,False
1607123571.0303347,9.115756797525,0.8065806180833327,0.5474977510683333,0.1598333333333315,-1.7494166666666653,-19.607583333333334,0.5538773333333337,0.1994253333333333,0.010653999999999997,18.5,False
1607123571.0421977,8.180841127328334,0.1764906069383328,0.25431716200333343,-4.709250000000005,-0.7609583333333316,-21.489125,0.5531213333333337,0.2007133333333333,0.01108333333333333,18.5,False
1607123571.0542126,7.247440911445,-0.45451665287000037,-0.03838486254166676,-7.551833333333336,-0.6918333333333319,-21.56291666666667,0.5523653333333337,0.2020013333333333,0.01108333333333333,18.5,False
1607123571.0659206,6.3157555517583335,-1.0679566067566668,-0.2577867547733333,-6.949541666666671,-1.262916666666667,-20.55666666666667,0.551730666666667,0.20336399999999996,0.011134666666666663,18.5,False
1607123571.0777395,5.5198628746216665,-1.4680764258533334,-0.41637107258833317,-4.453458333333339,-2.1210000000000013,-18.23995833333333,0.5512173333333337,0.2046706666666666,0.011134666666666663,18.5,False
1607123571.0895355,4.884129790178334,-1.616870111196667,-0.5031906525916666,-1.7640000000000053,-3.269875000000001,-14.831249999999995,0.5507040000000002,0.2059773333333333,0.011134666666666663,18.5,False
1607123571.1018982,4.401597172700002,-1.6543576652633338,-0.55250273834,0.08808333333332759,-4.447333333333335,-11.055041666666666,0.550330666666667,0.2070693333333333,0.011274666666666664,18.5,False
1607123571.11365,4.008695701779999,-1.6591433104633333,-0.5825326619699999,1.4148749999999946,-5.866291666666669,-7.158374999999996,0.5499573333333335,0.20816133333333334,0.011274666666666664,18.5,False
1607123571.1254082,3.6546177775449986,-1.6613766115566668,-0.5934997655533333,2.59933333333333,-7.597625000000002,-2.982291666666666,0.5495933333333336,0.208908,0.011932666666666664,18.5,False
1607123571.136954,3.356910765728331,-1.6206188666033334,-0.5781059401599999,3.4769583333333305,-9.575416666666671,1.2777916666666689,0.5492293333333336,0.20965466666666668,0.011932666666666664,18.5,False
1607123571.148824,3.1174291038449997,-1.5418950030633336,-0.5551547833883334,3.906291666666663,-11.610958333333336,5.265458333333331,0.548818666666667,0.20985066666666669,0.011344666666666664,18.5,False
1607123571.160618,2.9513871555933333,-1.4194223663200003,-0.5204987360649999,4.3341666666666665,-13.239916666666668,8.739791666666665,0.5484080000000002,0.2100466666666667,0.011344666666666664,18.5,False
1607123571.172582,2.8301508105266673,-1.28578322411,-0.4911866592149999,5.592124999999996,-13.782125000000004,11.640416666666669,0.5482866666666669,0.21002800000000002,0.011316666666666664,18.5,False
1607123571.1843767,2.647817728406667,-1.1660822735450003,-0.5166702199050001,7.845249999999998,-13.096125,14.192208333333335,0.5481653333333335,0.21000933333333335,0.011316666666666664,18.5,False
1607123571.1962597,2.4533211314033334,-1.0557731516850004,-0.6310271999966667,10.698916666666667,-11.650916666666669,16.102625000000003,0.5479320000000002,0.2097386666666667,0.01161533333333333,18.5,False
1607123571.2079709,2.2476380887449996,-0.9646664311900003,-0.8280362607300001,13.528375,-10.405791666666667,16.793583333333334,0.5476986666666669,0.20946800000000007,0.01161533333333333,18.5,False
1607123571.2197218,2.0693129844799993,-0.9236295236000004,-1.0356136212799998,15.239875000000003,-9.854833333333334,16.046625000000002,0.5471293333333336,0.20916000000000007,0.01161533333333333,18.5,False
1607123571.2313917,1.957009843786666,-0.9602397093799994,-1.1857831796183333,15.578208333333334,-9.354333333333333,14.042875000000008,0.5467560000000001,0.2092906666666667,0.01197933333333333,18.5,False
1607123571.2430856,1.9217555908133328,-1.0593623855849998,-1.2943774452816668,15.380166666666668,-8.563333333333333,12.501416666666675,0.5464386666666669,0.20970133333333338,0.01197933333333333,18.5,False
1607123571.2548366,1.9005791108033323,-1.149053352708333,-1.3452648059083334,14.286708333333339,-7.975625,12.470208333333341,0.5459813333333335,0.2100186666666667,0.012137999999999998,18.5,False
1607123571.2666624,1.8547764982016655,-1.2031710238449997,-1.3484951164183334,11.245791666666667,-7.03354166666667,12.873291666666676,0.5455240000000001,0.210336,0.012137999999999998,18.5,False
1607123571.2784004,1.7705690828699991,-1.2875778410599996,-1.3385250222516667,7.490291666666668,-5.593000000000003,13.15533333333334,0.5452906666666668,0.21050400000000005,0.012417999999999995,18.5,False
1607123571.2907255,1.6508880724933321,-1.3894123828783334,-1.298265782006667,4.845750000000002,-4.822125000000001,13.92270833333334,0.5450573333333335,0.21067200000000005,0.012417999999999995,18.5,False
1607123571.3025184,1.6732011432383327,-1.4258630471516662,-1.1194022926566662,5.208874999999997,-4.740166666666671,14.68570833333334,0.5448053333333335,0.21066266666666675,0.012259333333333329,18.5,False
1607123571.3144503,1.941316915568332,-1.4550554828716662,-0.8484350733949998,9.784833333333337,-3.678500000000001,14.753958333333339,0.5445533333333334,0.21065333333333344,0.012259333333333329,18.5,False
1607123571.3262591,2.476292228363332,-1.522214037178333,-0.6672186418216665,16.854541666666673,-0.674333333333333,14.404833333333338,0.5443200000000001,0.2107000000000001,0.011927999999999996,18.5,False
1607123571.3381553,3.1299316019299988,-1.6925630661099993,-0.6857231365949998,24.745000000000008,2.813416666666667,14.774083333333335,0.5440866666666667,0.21074666666666678,0.011927999999999996,18.5,False
1607123571.3498502,3.937289887358332,-1.8137196504233328,-0.8464011741849998,29.96058333333334,5.23425,17.69629166666667,0.5443760000000001,0.21130666666666678,0.012417999999999995,18.5,False
1607123571.361834,4.9740002189966654,-1.7436697688083325,-1.045005449985,30.321666666666673,5.546333333333332,23.565499999999997,0.5446653333333334,0.2118666666666668,0.012417999999999995,18.5,False
1607123571.3734899,6.084150264266666,-1.3411172467349994,-1.030189890053333,30.20237500000001,2.796208333333334,29.83254166666667,0.5455053333333334,0.21149333333333345,0.012417999999999995,18.5,False
1607123571.385309,7.1964737900649975,-0.7627321439383332,-0.796151899585,34.27812500000001,-0.8537083333333331,34.27579166666668,0.5464106666666668,0.21125066666666678,0.012473999999999996,18.5,False
1607123571.396932,8.304410474429996,-0.1481555993166667,-0.4347958066083331,39.61183333333335,-3.634166666666666,36.72783333333334,0.5473626666666668,0.2107746666666668,0.012473999999999996,18.5,False
1607123571.4087658,9.34465021940333,0.44835513467499993,-0.039501513088333384,42.805000000000014,-5.301916666666667,37.95808333333334,0.5480813333333334,0.21021466666666677,0.012403999999999997,18.5,False
1607123571.4206297,10.347581872005,1.0169695451883336,0.3023730158866667,42.87733333333334,-6.052958333333334,38.704750000000004,0.5486786666666668,0.20958000000000007,0.012403999999999997,18.5,False
1607123571.4326646,11.179606170401666,1.3959527646516672,0.5844070396733333,41.66370833333335,-6.012708333333332,38.42008333333333,0.5492386666666668,0.20875866666666673,0.012044666666666664,18.5,False
1607123571.4445696,11.82724354728,1.5461223229900005,0.7855835997683334,40.957583333333346,-5.293458333333334,37.06500000000001,0.5497986666666667,0.2079373333333334,0.012044666666666664,18.5,False
1607123571.4564354,12.304731297110001,1.5864613239883338,0.9089535449866666,41.393625000000014,-4.290416666666666,35.08866666666666,0.5505453333333334,0.20725600000000002,0.01237133333333333,18.5,False
1607123571.4775045,12.687463271980002,1.5745769717416669,0.97579305628,42.14583333333335,-3.2955416666666664,32.509458333333335,0.551292,0.20657466666666666,0.01237133333333333,18.5,False
1607123571.5034425,12.993126418941669,1.5360325876933334,0.99984092341,42.66966666666668,-2.433666666666667,29.885625,0.5519453333333334,0.20613599999999999,0.012604666666666663,18.5,False
1607123571.5233681,13.188480444043336,1.4817155146733334,1.0273384431216666,41.78416666666668,-1.703333333333334,28.00525,0.552524,0.20566933333333334,0.01258133333333333,18.5,False
1607123571.5415611,13.28929803625667,1.4424134034683336,1.0539585945466665,40.418000000000006,-0.9709583333333338,26.380958333333336,0.5534106666666666,0.20526799999999998,0.012277999999999996,18.5,False
1607123571.553709,13.288540309100002,1.3956337216383334,1.0768100503766667,39.64858333333335,-0.30391666666666717,24.947125000000007,0.5542973333333333,0.20486666666666667,0.012277999999999996,18.5,False
1607123571.602962,13.170873257744999,1.3153545234083335,1.0975677864316666,39.85712500000001,0.3190833333333334,22.771291666666674,0.5547546666666668,0.204736,0.012739999999999996,18.5,False
1607123571.6237798,12.964412547741665,1.2278569770016665,1.0728020725216667,37.07725000000001,-0.3972500000000011,21.01283333333334,0.5553986666666667,0.20461466666666664,0.01290333333333333,18.5,False
1607123571.6353967,12.75625692173,1.1205787637683333,1.1011570203316667,32.809875000000005,-1.922958333333333,19.637625000000007,0.555772,0.20487599999999997,0.01286133333333333,18.5,False
1607123571.6472235,12.567403398024998,0.9955537829183334,1.19258278384,28.37508333333334,-3.6163749999999992,18.928000000000008,0.5561453333333334,0.2051373333333333,0.01286133333333333,18.5,False
1607123571.6611805,12.357253753179997,0.8893124594783333,1.318245850716667,24.947416666666673,-4.790041666666665,19.085500000000007,0.5567426666666667,0.20561333333333331,0.012921999999999996,18.5,False
1607123571.6731615,12.100025323679997,0.8160721477299998,1.4501302563533334,22.37258333333334,-5.429666666666664,19.866291666666672,0.557144,0.20565066666666662,0.012921999999999996,18.5,False
1607123571.6852074,11.776057083828329,0.7884549868883332,1.5889139671533334,19.86541666666667,-5.727458333333331,20.531000000000006,0.5574986666666667,0.20540799999999995,0.012781999999999996,18.5,False
1607123571.6970372,11.456455745221662,0.7525227675116665,1.708156293386667,17.351250000000004,-5.190791666666665,20.340541666666674,0.5579933333333335,0.20525866666666662,0.012781999999999996,18.5,False
1607123571.7087374,11.172627104484995,0.6933602287266666,1.7746767616666668,15.373750000000003,-4.263874999999999,19.7645,0.5584880000000001,0.20510933333333328,0.012781999999999996,18.5,False
1607123571.720626,10.934640956726662,0.6350551180399998,1.811765511966667,13.552291666666672,-3.373999999999998,19.397291666666668,0.5589266666666667,0.2047546666666666,0.012912666666666663,18.5,False
1607123571.7324693,10.731011753466662,0.5946164160999999,1.836112481921667,11.629333333333335,-2.242624999999997,19.308625000000003,0.5593653333333335,0.20439999999999994,0.012912666666666663,18.5,False
1607123571.7444463,10.51677437001333,0.5683551880650001,1.842812385201667,9.697041666666673,-0.7297499999999988,19.633541666666666,0.5599533333333334,0.20372799999999994,0.012921999999999996,18.5,False
1607123571.756201,10.267821118671662,0.5675575805316666,1.833560137815,7.838250000000005,1.0558333333333334,19.933958333333337,0.5605413333333333,0.20305599999999996,0.012921999999999996,18.5,False
1607123571.768159,10.00810016563,0.5807779253966667,1.7779469525533331,5.808833333333337,2.9715000000000003,20.093500000000006,0.5612226666666668,0.20229999999999995,0.013094666666666662,18.5,False
1607123571.780037,9.793523798974999,0.6249853229316665,1.6863816077266667,2.9682916666666714,4.475333333333335,20.202875000000002,0.5619040000000001,0.20154399999999997,0.013094666666666662,18.5,False
1607123571.7921827,9.626544661871664,0.6958726924566666,1.5844872453433332,-0.9140833333333338,5.2360000000000015,20.091166666666666,0.5628373333333335,0.2004333333333333,0.01309933333333333,18.5,False
1607123571.8041348,9.489336225949996,0.7867999512566665,1.5120445411283332,-5.551291666666667,5.563541666666668,19.84120833333333,0.5637706666666668,0.19932266666666668,0.01309933333333333,18.5,False
1607123571.8161688,9.356933375416665,0.8786843390966668,1.4596018458116664,-10.436125000000004,5.984125000000002,19.72833333333333,0.5647600000000002,0.1982306666666667,0.013472666666666662,18.5,False
1607123571.8279588,9.20831915176833,0.9666205696466666,1.403569916595,-15.138666666666671,6.808666666666668,19.795125,0.5656840000000002,0.19700800000000004,0.013472666666666662,18.5,False
1607123571.8398688,9.050233338661664,1.0636495260766665,1.325224916633333,-19.262541666666674,7.952583333333335,19.890208333333337,0.5666733333333335,0.19527200000000008,0.013341999999999996,18.5,False
1607123571.8516846,8.947680950063331,1.183270715888333,1.2040284519433333,-22.750000000000007,9.036708333333333,19.552750000000003,0.567896,0.19362000000000007,0.013341999999999996,18.5,False
1607123571.8635275,8.872845423248334,1.3337393770516666,1.047537853903333,-25.873166666666677,9.975291666666667,18.494291666666665,0.5691186666666667,0.19196800000000006,0.013341999999999996,18.5,False
1607123571.8755195,8.828937128538335,1.4722239850266665,0.8649256091466665,-29.132833333333345,10.495916666666664,16.851625000000002,0.5704720000000001,0.19051200000000001,0.013033999999999995,18.5,False
1607123571.8872483,8.803313986529998,1.595713571375,0.6761119658183332,-32.89358333333334,10.457999999999998,14.999250000000002,0.5718253333333334,0.189056,0.013033999999999995,18.5,False
1607123571.8988943,8.784729731003331,1.704427478168333,0.5267998355783333,-37.163000000000004,9.921041666666667,13.364166666666666,0.5727119999999999,0.18719866666666668,0.012921999999999996,18.5,False
1607123571.9107113,8.74516839735,1.8253048998449999,0.4254239180916667,-41.685291666666664,9.361041666666669,12.318541666666667,0.5735986666666666,0.18534133333333333,0.012921999999999996,18.5,False
1607123571.9224772,8.718628006678333,1.9827725671133332,0.3554737374183333,-45.92524999999999,9.158041666666666,11.145458333333329,0.5746999999999999,0.18330666666666667,0.013015333333333328,18.5,False
1607123571.9343522,8.726963005401666,2.1385253781849998,0.26089742415333333,-48.151250000000005,9.228625,9.058875,0.5758759999999999,0.18129999999999996,0.013015333333333328,18.5,False
1607123571.946101,8.746703791851665,2.259602201744999,0.15818551404833328,-49.41533333333332,9.366875,6.743333333333337,0.5767159999999999,0.17950799999999995,0.01273533333333333,18.5,False
1607123571.957977,8.760362820859998,2.34365009557,0.031306095683333306,-51.21666666666666,9.318166666666666,4.365083333333333,0.5775559999999998,0.17771599999999996,0.01273533333333333,18.5,False
1607123571.969752,8.778548272619998,2.4160130390316668,-0.1121236789983333,-54.5335,8.576750000000002,2.7918333333333334,0.5782839999999998,0.175868,0.012968666666666663,18.5,False
1607123571.9816551,8.835417689746667,2.4558734755099993,-0.206201487555,-55.682375,8.402625000000002,0.9027083333333316,0.5788253333333332,0.17401066666666667,0.012968666666666663,18.5,False
1607123571.993368,8.860681908364999,2.458046956038333,-0.3103291510316667,-55.875750000000004,8.323875000000003,-1.015583333333335,0.5795999999999999,0.17220933333333335,0.013103999999999996,18.5,False
1607123572.0053208,8.871748712889996,2.458405879428333,-0.43058842687000004,-55.665166666666664,8.356833333333336,-2.919291666666668,0.5803746666666666,0.17040800000000006,0.013103999999999996,18.5,False
1607123572.0170836,8.88008371161333,2.464308175175,-0.5559723311100001,-55.778625,8.186208333333337,-4.738708333333333,0.5809253333333333,0.16839200000000004,0.013103999999999996,18.5,False
1607123572.0290248,8.877132563739996,2.4670001005999995,-0.6844868449183334,-56.29633333333334,7.7840000000000025,-6.561916666666668,0.5814199999999999,0.1664786666666667,0.01302933333333333,18.5,False
1607123572.0408165,8.865686895636664,2.454976167035,-0.8044470179316666,-56.71691666666666,7.188416666666668,-8.538833333333335,0.5819613333333333,0.16484533333333337,0.01302933333333333,18.5,False
1607123572.0528944,8.845327963348332,2.43134704386,-0.9315058979916667,-56.376833333333344,6.463916666666668,-10.596250000000001,0.5824746666666666,0.16340800000000003,0.012590666666666663,18.5,False
1607123572.0647104,8.804091653874998,2.3861426369083327,-1.0500503176333333,-55.24283333333334,5.580166666666668,-12.609333333333334,0.582988,0.16197066666666668,0.012590666666666663,18.5,False
1607123572.0767155,8.748079664846665,2.3232114025283326,-1.168594737275,-53.44266666666667,4.447916666666668,-14.53025,0.583044,0.1609626666666667,0.012660666666666662,18.5,False
1607123572.0884795,8.693383728248332,2.2459431727366663,-1.2743973765716665,-51.15425000000002,3.0123333333333338,-16.31904166666667,0.5831000000000001,0.1599546666666667,0.012660666666666662,18.5,False
1607123572.1005504,8.641718700276666,2.175155504153333,-1.3595220405666664,-48.820916666666676,1.314541666666667,-18.025583333333337,0.5825306666666668,0.15965600000000002,0.01259533333333333,18.5,False
1607123572.113372,8.603832342443331,2.1089740190749997,-1.4084153823599996,-47.21645833333335,-0.4097916666666675,-19.73416666666667,0.5819613333333336,0.15935733333333335,0.01259533333333333,18.5,False
1607123572.1253464,8.576613985368333,2.032722738888333,-1.421775308543333,-46.356916666666685,-1.9769166666666662,-21.204458333333335,0.5815320000000003,0.15947866666666669,0.01238533333333333,18.5,False
1607123572.1370323,8.540781466933332,1.9446469270199993,-1.4053047129799998,-45.410750000000014,-3.198416666666667,-22.44579166666667,0.5811026666666669,0.15960000000000002,0.01238533333333333,18.5,False
1607123572.148885,8.497451437684997,1.8569499787299992,-1.3630115735249997,-43.69020833333334,-3.7450000000000006,-23.40975,0.5804306666666669,0.159936,0.012483333333333329,18.5,False
1607123572.160702,8.467381633678333,1.7725830418916657,-1.3212767593433332,-41.01766666666668,-3.556583333333334,-24.151458333333338,0.579758666666667,0.160272,0.012483333333333329,18.5,False
1607123572.1728158,8.432286902211667,1.6897315593666657,-1.2911271945833331,-37.53516666666667,-2.7396249999999998,-24.60879166666667,0.5790306666666669,0.1605893333333333,0.012483333333333329,18.5,False
1607123572.187583,8.413722586873332,1.6345171778716658,-1.2792029619599998,-33.61925,-1.3650000000000004,-24.647875000000006,0.5784893333333336,0.16109333333333328,0.012786666666666663,18.5,False
1607123572.199444,8.424909032528332,1.6203995245316662,-1.288714431795,-29.940166666666673,0.1726666666666664,-24.549291666666672,0.5782000000000003,0.16198933333333335,0.01244133333333333,18.5,False
1607123572.211216,8.509654832944998,1.6510276538116664,-1.2794023638433332,-26.989666666666675,1.715291666666667,-24.531791666666674,0.577910666666667,0.16288533333333335,0.01244133333333333,18.5,False
1607123572.2229788,8.692865283351665,1.716212129473333,-1.256770250085,-24.702416666666675,3.3308333333333335,-24.504666666666672,0.5776213333333335,0.16378133333333336,0.01244133333333333,18.5,False
1607123572.2347026,8.949515447389997,1.8032709917366665,-1.2197014399733328,-22.638583333333333,4.888625,-24.367291666666677,0.5777146666666668,0.1642946666666667,0.013192666666666663,18.5,False
1607123572.2467206,9.274879500424998,1.8958134057916662,-1.1833504766416667,-21.233333333333338,6.358041666666667,-24.20687500000001,0.5778080000000002,0.16480800000000004,0.013192666666666663,18.5,False
1607123572.2583904,9.637691227149997,1.9836698755883329,-1.1720443898566666,-21.190458333333343,7.084000000000001,-24.097791666666673,0.5780693333333335,0.16562000000000004,0.013117999999999996,18.5,False
1607123572.2702656,10.013105152901666,2.047877282021666,-1.1578469757633334,-22.177166666666665,6.803416666666666,-23.986375000000006,0.5783306666666668,0.16643200000000005,0.013117999999999996,18.5,False
1607123572.2820995,10.39824989056,2.1076978470216665,-1.1202198403783334,-22.721708333333336,6.1693333333333324,-23.447375000000008,0.5785640000000002,0.1668613333333334,0.013215999999999997,18.5,False
1607123572.2941122,10.788120452853333,2.2058633941866663,-1.1237891340900001,-21.595000000000002,5.609916666666667,-21.38237500000001,0.5787973333333336,0.1672906666666667,0.013215999999999997,18.5,False
1607123572.3057911,11.174082738233333,2.384407840523333,-1.1765309322316668,-18.52520833333334,3.9462499999999987,-17.19841666666667,0.5797586666666669,0.1673653333333334,0.013136666666666663,18.5,False
1607123572.3176632,11.549038039653333,2.762413990758333,-1.23493574386,-16.121583333333337,0.5454166666666651,-10.326166666666673,0.5807200000000002,0.16744,0.013136666666666663,18.5,False
1607123572.3294291,11.919147875308333,3.2887950823816667,-1.2464212923399998,-15.288,-4.247541666666668,-3.0992500000000045,0.5819146666666668,0.16633866666666666,0.012487999999999997,18.5,False
1607123572.341371,12.286545845349998,3.826781363615,-1.2022737153699998,-15.891166666666665,-9.69004166666667,2.6879999999999966,0.5831093333333334,0.16523733333333332,0.012487999999999997,18.5,False
1607123572.353029,12.663933849746664,4.390071743843333,-1.1289735830566665,-18.45229166666667,-15.11941666666667,6.097874999999994,0.5842573333333333,0.16381866666666667,0.012487999999999997,18.5,False
1607123572.364949,13.047403611584999,4.963531620121667,-1.0548359628333333,-22.89379166666667,-20.19120833333334,6.497458333333335,0.5852653333333334,0.1611213333333333,0.01167133333333333,18.5,False
1607123572.377043,13.427543361971667,5.436692349083334,-0.9652446966516667,-26.892833333333336,-24.955583333333337,4.506541666666667,0.5862733333333334,0.158424,0.01167133333333333,18.5,False
1607123572.388938,13.447463610116667,5.591208868478333,-0.7584051230699999,-29.880666666666674,-29.649375000000006,1.5172500000000013,0.5873746666666669,0.15499866666666665,0.01052333333333333,18.5,False
1607123572.4008038,13.119028768078335,5.5251270843416656,-0.41461633601500003,-33.32408333333334,-33.28004166666667,-1.715291666666665,0.5884760000000002,0.15157333333333334,0.01052333333333333,18.5,False
1607123572.412994,12.422537929783337,5.486502939539999,-0.030209385324999852,-37.655333333333346,-34.53595833333334,-5.399916666666664,0.5889426666666667,0.1481573333333333,0.009977333333333331,18.5,False
1607123572.4248097,11.508838619973337,5.120899586448333,0.02576272332666696,-44.19100000000001,-34.33004166666667,-12.820208333333335,0.5894093333333336,0.14474133333333328,0.009977333333333331,18.5,False
1607123572.4368198,10.580403510985002,4.475994015371666,-0.1795015753766665,-52.517791666666675,-35.71166666666668,-20.391875000000006,0.5898293333333334,0.14147466666666667,0.009701999999999997,18.5,False
1607123572.4486835,9.651769000113337,3.8453257387649993,-0.35128629786833315,-60.25920833333335,-38.92554166666668,-28.070000000000004,0.5902493333333333,0.138208,0.009701999999999997,18.5,False
1607123572.4606705,8.730013854216669,3.220081193384999,-0.2732802811083332,-65.20412500000002,-40.43841666666667,-33.687208333333345,0.590212,0.135744,0.00919333333333333,18.5,False
1607123572.4727545,7.808238768131668,2.6025933812666655,-0.19842481410499996,-63.594416666666675,-37.284625,-32.84545833333333,0.5901746666666666,0.13328,0.00919333333333333,18.5,False
1607123572.4846385,6.879245333870002,1.9962920148033325,-0.23852453284333328,-55.09058333333334,-32.382875,-27.763458333333336,0.5904079999999999,0.130816,0.00965533333333333,18.5,False
1607123572.4964812,5.944987689888334,1.8738193780599988,-0.31633114771999993,-44.44416666666667,-27.649124999999994,-20.338791666666673,0.5906413333333332,0.128352,0.00965533333333333,18.5,False
1607123572.5083783,5.144289427363334,2.1178474028833323,-0.4630510534766665,-34.39041666666667,-24.281833333333328,-12.582791666666674,0.5932826666666666,0.125832,0.010653999999999997,18.5,False
1607123572.5202942,4.506043879190001,2.484846569158333,-0.5860620753049998,-28.662958333333343,-23.903541666666662,-5.809708333333338,0.5950559999999999,0.12331200000000002,0.010653999999999997,18.5,False
1607123572.5322392,3.9815969858350004,2.752902520923333,-0.5977071452916665,-26.02133333333334,-26.14295833333334,-0.5655416666666715,0.5968293333333334,0.12079200000000001,0.010653999999999997,18.5,False
1607123572.5438251,3.432823062713335,2.8597819303899996,-0.46350967780833313,-24.664791666666677,-29.814166666666665,3.801291666666662,0.59822,0.11796400000000001,0.011167333333333331,18.5,False
1607123572.555622,2.945444979470003,2.9740192693516656,-0.19336000626833327,-23.723583333333345,-33.34975,8.007124999999997,0.5992933333333333,0.11525733333333335,0.011167333333333331,18.5,False
1607123572.567337,2.5190439921500025,3.098286523044999,0.08931210354500001,-22.88650000000001,-36.152083333333344,11.324833333333334,0.6002453333333333,0.112308,0.010835999999999997,18.5,False
1607123572.5802398,2.1070797011833338,3.149971491204999,0.3089931584133334,-21.940041666666676,-38.129875,12.98995833333333,0.6011973333333333,0.10935866666666666,0.010835999999999997,18.5,False
1607123572.592134,1.6181861636266666,3.0348567839566654,0.42841494634166677,-21.11229166666667,-39.675125,13.387791666666667,0.6011786666666664,0.106624,0.010616666666666663,18.5,False
1607123572.6037548,1.0192826070349994,2.7232514608716656,0.4664408854933334,-19.578125000000007,-41.333541666666655,13.773374999999996,0.6011599999999998,0.10388933333333332,0.010616666666666663,18.5,False
1607123572.615682,0.4009174266299993,2.351167546571666,0.5053641331200001,-16.406833333333342,-42.40133333333332,15.154124999999995,0.6009733333333334,0.10182666666666666,0.010835999999999997,18.5,False
1607123572.6405847,-0.028614170258334,2.0627925428949987,0.5258626467266667,-12.52329166666667,-42.81462499999999,17.465875,0.6007399999999999,0.09970799999999999,0.01031333333333333,18.5,False
1607123572.6575086,-0.4011965892666674,1.8164913366016664,0.5281757085733335,-9.831208333333343,-43.21799999999999,19.637624999999996,0.6004039999999998,0.09793466666666666,0.01031333333333333,18.5,False
1607123572.6737814,-0.7931409311466677,1.5856836566433326,0.5951946815616667,-9.180500000000004,-43.66804166666667,20.100499999999993,0.5997413333333333,0.09609599999999999,0.010597999999999998,18.5,False
1607123572.6976674,-1.1800603455666667,1.2826127341649993,0.7485546700333334,-8.24862500000001,-42.20737499999999,16.96245833333333,0.597884,0.09505999999999998,0.010457999999999997,18.5,False
1607123572.7174234,-1.3408580242866668,0.8073383452399997,0.8321838199033336,-6.546750000000009,-38.31595833333333,12.368708333333336,0.5961573333333334,0.09409866666666665,0.010373999999999998,18.5,False
1607123572.7356212,-1.5120046607516668,0.26859433684999995,0.8459226096650004,-4.838458333333337,-33.664166666666674,8.780916666666656,0.5942253333333335,0.09447200000000001,0.010373999999999998,18.5,False
1607123572.7600121,-1.7207385522249992,-0.1990828403200004,0.873360308811667,-3.8249166666666765,-29.42100000000001,5.8353749999999955,0.5925360000000001,0.09484533333333335,0.010406666666666665,18.5,False
1607123572.777437,-1.8916259662416655,-0.708913575626667,0.9758728170333336,-2.929500000000004,-25.298875000000013,4.595791666666665,0.5906693333333334,0.09483600000000002,0.009855999999999998,18.5,False
1607123572.7910259,-2.028156435759999,-1.2089337382733338,1.139202899671667,-0.8429166666666703,-20.750041666666675,7.1671249999999995,0.5889426666666668,0.09610533333333333,0.009855999999999998,18.5,False
1607123572.8028786,-2.185963086229999,-1.5613965072533333,1.3114661866833337,1.8270000000000015,-15.216541666666664,12.480708333333324,0.5869266666666668,0.09727200000000003,0.009533999999999996,18.5,False
1607123572.8150158,-1.9993229234299998,-1.5293526246016662,1.3471391836116666,5.3643333333333345,-8.598625,18.552624999999995,0.5848733333333335,0.09906400000000003,0.009533999999999996,18.5,False
1607123572.8297577,-1.4626526946266671,-1.2417353480816657,1.2215558774883333,11.482625000000004,-2.2682916666666655,23.673416666666675,0.5826706666666667,0.10019333333333336,0.01007533333333333,18.5,False
1607123572.8416948,-0.6094519162199996,-0.9776873741716667,1.0289535983766664,19.364333333333335,2.000833333333335,28.552125,0.5811306666666667,0.10111733333333335,0.01007533333333333,18.5,False
1607123572.8534136,0.43948175086666746,-0.36430724085000016,1.1634102883083333,29.112708333333334,4.954541666666669,36.88183333333334,0.57988,0.10262933333333338,0.010485999999999997,18.5,False
1607123572.8652825,1.505863082745001,0.5455635527999994,1.5558730750849998,39.87666666666668,9.992208333333336,45.063375000000015,0.578956,0.10364666666666669,0.010485999999999997,18.5,False
1607123572.8770635,2.569273326561667,1.4598610682599997,1.8910277605916666,49.732375000000026,17.607333333333333,53.20262500000001,0.5781626666666668,0.10516800000000005,0.010807999999999996,18.5,False
1607123572.8889444,3.636691548233334,2.3646670540733328,1.903450497923333,56.65245833333336,24.031000000000002,59.14737500000001,0.5783586666666667,0.10549466666666672,0.010807999999999996,18.5,False
1607123572.9006386,4.7362134731216665,3.257967551218333,1.8440486768783335,56.71575000000003,25.23033333333333,58.296875000000014,0.578816,0.10613866666666673,0.01169933333333333,18.5,False
1607123572.9125433,5.8408400862233325,4.122952980929999,1.868136424385,49.33133333333337,23.68595833333334,52.57816666666669,0.5789373333333334,0.10644666666666673,0.01169933333333333,18.5,False
1607123572.9241533,6.943751843128331,4.4659441604516665,1.9227326600416668,39.17900000000001,21.352625000000003,44.19508333333336,0.5795906666666666,0.10715600000000007,0.01259533333333333,18.5,False
1607123572.936176,7.895736314538332,4.396412723733333,2.0536798768266666,28.898041666666675,19.33954166666667,35.48562500000001,0.5778546666666666,0.1079866666666667,0.01259533333333333,18.5,False
1607123572.94829,8.732187334744998,4.185445531166666,2.180000969918333,22.2355,19.475750000000005,28.114625000000004,0.5767066666666667,0.1088266666666667,0.012590666666666663,18.5,False
1607123572.960151,9.540203646388331,4.101616979413333,2.217648045491666,18.02675,21.798291666666675,22.631583333333335,0.5755586666666667,0.1096666666666667,0.012590666666666663,18.5,False
1607123572.97203,10.418568942471666,4.186881224726665,2.11465697275,15.236083333333333,25.359250000000007,17.938666666666666,0.5746066666666667,0.11062800000000002,0.012800666666666663,18.5,False
1607123572.9839509,11.251550369908333,4.260919144008333,1.877548193278333,13.518166666666666,28.411541666666672,13.427750000000001,0.5742706666666667,0.111496,0.012800666666666663,18.5,False
1607123572.995622,11.962158861543333,4.338745699073333,1.6169698121383331,12.130416666666669,30.135583333333336,9.785125000000004,0.5740560000000001,0.11260666666666666,0.012800666666666663,18.5,False
1607123573.0074608,12.569457237423332,4.511487550605,1.4298710250066664,10.360583333333336,30.275583333333337,7.723916666666665,0.5737293333333333,0.11367999999999998,0.012977999999999996,18.5,False
1607123573.0193126,13.175619022568332,4.854498670315,1.369950759065,8.801625000000003,29.838666666666672,6.627833333333334,0.5738973333333333,0.11491199999999999,0.012977999999999996,18.5,False
1607123573.0313618,13.815738948444999,5.373900696021667,1.4040285409266666,7.956083333333337,30.148416666666673,5.586000000000001,0.5741493333333332,0.11577999999999998,0.012487999999999997,18.5,False
1607123573.0453596,14.43410412885,5.977330675365,1.4281162884333332,8.331750000000001,30.47391666666667,4.238500000000002,0.5745226666666665,0.11627466666666665,0.012487999999999997,18.5,True
1607123573.0571635,14.863635725738334,6.621219296836666,1.41954200745,10.036250000000003,30.491416666666673,2.1612499999999994,0.5752133333333332,0.11664799999999996,0.012725999999999996,18.5,True
1607123573.0690753,15.236218144746665,7.3068227923016655,1.3728221461849999,11.365666666666668,30.599916666666672,-0.4678333333333334,0.5759039999999997,0.11702133333333332,0.012725999999999996,18.5,True
1607123573.0813305,15.628162486626666,7.976853000678332,1.224247802913333,11.059125000000002,30.41558333333334,-3.5460833333333355,0.5773039999999998,0.11745066666666665,0.01294533333333333,18.5,True
1607123573.0930784,16.015081901046667,8.631429563096667,1.0136594739249998,6.574166666666668,28.25375,-6.253916666666665,0.579236,0.11751599999999998,0.01294533333333333,18.5,True
1607123573.1049802,16.175879579766665,9.256375005651666,0.9862616551549996,-0.2563749999999994,24.738875000000007,-11.456666666666667,0.5807666666666668,0.117796,0.012571999999999996,18.5,True
1607123573.1168442,16.347026216231665,9.707860749894998,1.1350154601216667,-7.797124999999999,22.125833333333336,-19.494125,0.5822973333333332,0.11807600000000001,0.012571999999999996,18.5,True
1607123573.1301043,16.28483276882,9.923852869921665,1.3642478652016665,-14.019250000000003,21.149041666666662,-27.374958333333336,0.5831933333333333,0.11897200000000001,0.011890666666666662,18.5,True
1607123573.1423364,15.785889376343333,9.923673408226668,1.5708082761466666,-17.670333333333335,22.01558333333333,-34.95858333333334,0.5842666666666667,0.12025066666666667,0.011890666666666662,18.5,True
1607123573.154138,14.92176137473,9.58875800498,1.6138591427583333,-20.226791666666667,23.323416666666663,-42.91991666666668,0.5847800000000001,0.12210800000000001,0.01164333333333333,18.5,True
1607123573.166002,13.918171695913333,9.10445071074,1.5564912209233337,-22.997916666666658,23.18895833333333,-49.63495833333334,0.5855826666666667,0.124068,0.01164333333333333,18.5,True
1607123573.177564,12.904133358409998,8.674699771780002,1.5264812374816672,-28.06970833333333,21.76387499999999,-57.01587500000001,0.5863853333333334,0.126028,0.01164333333333333,18.5,True
1607123573.189376,11.759925471466666,8.258548041263333,1.5597813519983332,-36.089958333333335,19.687791666666673,-66.47929166666668,0.5871879999999999,0.12894933333333333,0.011008666666666665,18.5,True
1607123573.20114,10.657711621153334,7.527939540730002,1.61766771873,-44.12275,17.66158333333334,-75.14820833333333,0.5879906666666666,0.13187066666666666,0.011008666666666665,18.5,True
1607123573.212983,9.586704165581667,6.614738735628333,1.5649059803999998,-49.700874999999996,16.04954166666667,-83.51845833333333,0.5873466666666665,0.1358,0.01038333333333333,18.5,True
1607123573.2247117,8.520322833703334,5.704867941978332,1.313599786835,-53.968250000000005,14.917583333333338,-90.35279166666669,0.5867026666666664,0.13972933333333334,0.01038333333333333,18.5,True
1607123573.2364767,7.456912589886666,4.7905704265183315,1.0074580753533333,-57.764291666666665,13.398291666666667,-93.97995833333334,0.5856386666666665,0.14385466666666666,0.010747333333333331,18.5,True
1607123573.2482476,6.456573161768333,3.885764440704999,0.7397012264133335,-55.51554166666667,12.32116666666667,-91.11958333333335,0.5845746666666666,0.14798,0.010747333333333331,18.5,True
1607123573.2616425,5.542754210828332,3.1327032881083334,0.42622152562500015,-47.586875,11.165000000000004,-81.77283333333334,0.5834546666666667,0.15209599999999998,0.011498666666666662,18.5,True
1607123573.2733326,4.7768715171333325,2.97691059666,0.12418749294000016,-38.30925,8.015875000000003,-71.85354166666666,0.5823346666666666,0.156212,0.011498666666666662,18.5,True
1607123573.2851884,4.025764502993331,2.8765915091549994,-0.16059827683666636,-29.990041666666674,2.3476250000000047,-64.505875,0.5816719999999999,0.15989866666666666,0.012907999999999998,18.5,True
1607123573.2969954,3.2041290427183315,2.6667010867583323,-0.3393820054333332,-26.48508333333333,-5.188458333333331,-57.925583333333336,0.5810093333333332,0.16358533333333333,0.012907999999999998,18.5,True
1607123573.3089733,2.2923041106116653,2.4503500433416665,-0.33597223322833325,-25.840208333333344,-14.308875,-50.546416666666666,0.5802533333333332,0.16658133333333333,0.012044666666666664,18.5,True
1607123573.3211112,1.3759328155650006,2.303311094571667,-0.15577275125999976,-26.26458333333333,-23.510958333333335,-43.04387499999999,0.5794973333333332,0.16957733333333333,0.012044666666666664,18.5,True
1607123573.333147,0.5056632359450004,2.1715862104416654,0.1476371544200002,-26.744666666666674,-31.502041666666667,-36.754083333333334,0.5784146666666667,0.171892,0.01101333333333333,18.5,True
1607123573.344918,-0.32177481913499956,1.9432710540249984,0.46873400715166674,-25.89416666666667,-37.27033333333334,-32.31345833333333,0.5767160000000001,0.1743,0.01101333333333333,18.5,True
1607123573.356945,-1.0871789483099996,1.5835301163033317,0.7208776886266667,-23.077541666666665,-40.942125000000004,-28.94383333333332,0.5750173333333335,0.17670800000000003,0.01101333333333333,18.5,True
1607123573.368854,-1.8167106786733336,1.0992627024399995,0.8639684801066667,-18.783041666666666,-42.82600000000001,-25.75533333333332,0.5730573333333334,0.17848133333333335,0.01021533333333333,18.5,True
1607123573.3808389,-2.482134703545,0.5509274634616668,0.9099106740266668,-15.128166666666674,-44.12245833333334,-22.00070833333332,0.5710973333333332,0.18025466666666673,0.01021533333333333,18.5,True
1607123573.3927639,-3.0410382423399995,0.0492722053716653,0.9009774696533335,-13.489000000000006,-45.647000000000006,-17.842708333333317,0.5691,0.1822613333333334,0.010196666666666663,18.5,True
1607123573.407832,-3.4555748176016654,-0.3981856208283335,0.8959724823816669,-14.55475000000001,-47.02745833333334,-14.176749999999986,0.5671026666666668,0.18426800000000004,0.010196666666666663,18.5,True
1607123573.4197497,-3.749752416083333,-0.8520043671066669,0.9345766869950004,-16.771416666666674,-47.616625000000006,-10.729541666666655,0.5650120000000001,0.1862933333333334,0.010252666666666663,18.5,True
1607123573.4318187,-4.009393608371667,-1.3568500553300005,1.0136395337366668,-17.723124999999996,-47.91091666666667,-7.4322499999999785,0.5629213333333334,0.18831866666666672,0.010252666666666663,18.5,True
1607123573.4435656,-4.244308967126667,-1.8815561711333328,1.2082757120583334,-16.821875000000002,-47.966625,-4.106083333333315,0.560392,0.1899706666666667,0.00992133333333333,18.5,True
1607123573.4560826,-4.463810560299999,-2.4107089489349987,1.4443276615483331,-14.387916666666664,-46.509458333333335,-0.21379166666664892,0.5578626666666667,0.1916226666666667,0.00992133333333333,18.5,True
1607123573.4677267,-4.604947213323332,-2.9323043953583325,1.5808980114433335,-10.669166666666676,-43.970499999999994,4.885125000000014,0.5557160000000001,0.1925373333333334,0.009636666666666663,18.5,True
1607123573.4796906,-4.674139666839998,-3.329293604886666,1.5823735853799998,-5.38533333333334,-41.33208333333333,12.008208333333332,0.5535693333333335,0.1934520000000001,0.009636666666666663,18.5,True
1607123573.4914455,-4.454598193289998,-3.5173096406816664,1.4790235892483339,0.6574166666666541,-38.74791666666667,20.451374999999995,0.5517493333333334,0.19357333333333343,0.009771999999999998,18.5,True
1607123573.5032194,-3.7893137497366647,-3.4084362123816665,1.2994223129300002,5.919083333333332,-37.410333333333334,29.19349999999999,0.5499293333333334,0.1936946666666667,0.009771999999999998,18.5,True
1607123573.5148714,-2.8075186967683328,-2.970609497146666,1.2529217937366666,9.817791666666665,-37.234458333333336,36.589583333333316,0.5486040000000002,0.19288266666666673,0.00971133333333333,18.5,True
1607123573.526863,-1.6931213913833327,-2.454377961384999,1.3112269044233333,12.231625000000008,-36.59075,41.698125,0.5472786666666668,0.1920706666666667,0.00971133333333333,18.5,True
1607123573.5386002,-0.5794618729666643,-2.0418154647683324,1.40111727343,15.135458333333338,-35.086041666666674,47.738249999999994,0.5459533333333335,0.19125866666666666,0.00971133333333333,18.5,True
1607123573.550491,0.6817949194933333,-1.625384571614999,1.4567304586916663,20.127625000000005,-32.284291666666675,57.31454166666666,0.5447306666666668,0.19001733333333334,0.009729999999999997,18.5,True
1607123573.562389,1.9388044518383332,-0.8564111487283329,1.4800006584766665,26.201291666666673,-28.51741666666667,66.91416666666665,0.543508,0.18877599999999997,0.009729999999999997,18.5,True
1607123573.574207,3.1974490796266664,0.10213364464333363,1.5205390613583327,31.69570833333335,-24.436416666666666,76.20579166666667,0.5441893333333334,0.18571466666666667,0.010261999999999997,18.5,True
1607123573.585993,4.482853440158334,1.0480762389883327,1.7069000615216667,36.37637500000001,-22.005666666666666,83.68091666666668,0.5448706666666667,0.1826533333333334,0.010261999999999997,18.5,True
1607123573.599262,5.735894875025,1.947498373951666,1.9528822248016662,39.26008333333335,-20.706000000000007,87.44779166666666,0.5462240000000002,0.17923733333333333,0.011129999999999998,18.5,True
1607123573.6112087,6.844449705228333,2.758764936293333,2.2237098627449994,34.414916666666684,-20.967041666666667,84.91641666666666,0.5475773333333335,0.17582133333333333,0.011129999999999998,18.5,True
1607123573.6229815,7.793463088576666,3.4010583426983323,2.5908884907150003,24.069208333333343,-20.963250000000006,76.72379166666666,0.5488466666666668,0.172256,0.011885999999999997,18.5,True
1607123573.6348996,8.601898144175,3.4785060341849987,2.948336306778333,13.940791666666676,-18.223333333333333,68.6618333333333,0.5501160000000003,0.16869066666666666,0.011885999999999997,18.5,True
1607123573.6468866,9.417292325501666,3.56375033931,3.2596824074149997,6.7547083333333315,-12.264291666666667,63.28233333333333,0.550862666666667,0.16497599999999996,0.012179999999999996,18.5,True
1607123573.6587687,10.321659627171666,3.8383466728483326,3.4153355175450004,6.512333333333333,-3.860499999999997,58.34995833333333,0.5516093333333335,0.1612613333333333,0.012179999999999996,18.5,True
1607123573.6705945,11.315478613704999,4.167858285056666,3.3610583249016672,10.843,5.691583333333341,51.877875,0.5530280000000001,0.15854533333333334,0.012646666666666664,18.5,True
1607123573.6826146,12.287722316461664,4.4582871281316665,3.1672396943016663,16.310291666666664,14.58333333333334,44.207041666666676,0.5544466666666669,0.15582933333333332,0.012646666666666664,18.5,True
1607123573.6944704,13.185908159748331,4.716053942716666,2.898685237828333,20.325375,22.245416666666667,36.53970833333334,0.5562106666666669,0.15404666666666664,0.013005999999999997,18.5,True
1607123573.7064605,14.013346214828333,4.993741005446666,2.6143381521949993,21.354666666666667,28.486499999999996,30.03875,0.5579746666666667,0.15226399999999998,0.013005999999999997,18.5,True
1607123573.7182722,14.778750344003331,5.297071150373332,2.334258266864999,19.976541666666666,33.37629166666667,25.1125,0.5597386666666667,0.1504813333333333,0.013005999999999997,18.5,True
1607123573.730276,15.508282074366665,5.646363429408333,2.0817556619999995,16.839083333333335,36.21129166666666,20.90316666666667,0.5619786666666667,0.14937066666666662,0.013327999999999996,18.5,True
1607123573.7421832,16.173706099238334,6.064349657251665,1.876172320283333,13.49658333333333,37.079583333333325,16.39429166666667,0.5642186666666666,0.14825999999999998,0.013327999999999996,18.5,True
1607123573.754192,16.73260963803333,6.476274067841664,1.7579668838433329,10.974541666666665,36.35916666666667,11.696125000000007,0.566552,0.147252,0.013122666666666663,18.5,True
1607123573.7662032,17.147146213295,6.831807625824997,1.7326229044716661,9.721249999999998,35.63904166666667,7.461708333333331,0.5688853333333334,0.146244,0.013122666666666663,18.5,True
1607123573.778239,17.441323811776666,7.120082928559998,1.6908083295366663,9.481208333333335,35.523541666666674,3.3016666666666628,0.5712653333333334,0.14537600000000003,0.01333733333333333,18.5,True
1607123573.7967927,17.700965004064997,7.414120945723331,1.5762718877499997,8.806875,35.84437500000001,-0.9511250000000007,0.5736453333333333,0.144508,0.012917333333333331,18.5,True
1607123573.8133998,17.93588036282,7.671807999554998,1.3482558341583333,5.101541666666666,35.57050000000001,-5.542541666666668,0.5760813333333333,0.1440506666666667,0.012917333333333331,18.5,True
1607123573.8368838,18.155381955993334,7.906264733978331,1.2139387255449998,-1.9684583333333336,34.82441666666667,-11.235583333333334,0.5781533333333333,0.1439106666666667,0.012380666666666663,18.5,True
1607123573.8579776,18.03960922253,7.898428239963333,1.349272783763333,-7.131541666666669,34.985125000000004,-16.636666666666667,0.5793946666666667,0.14434933333333333,0.01154533333333333,18.5,True
1607123573.8773215,17.310974800641667,7.709455075128332,1.5889737877183332,-9.548875000000002,37.088333333333345,-22.778875000000003,0.5805986666666667,0.14539466666666664,0.011442666666666663,18.5,True
1607123573.8972774,16.173885560933336,7.375775963558331,1.6526228688783329,-9.181083333333335,40.046125,-31.58429166666667,0.581868,0.14661733333333332,0.011442666666666663,18.5,True
1607123573.9174244,14.871791262766667,6.736912269546665,1.527298785203333,-8.124666666666666,41.481708333333344,-41.558125000000004,0.5829226666666667,0.14847466666666667,0.011848666666666664,18.5,True
1607123573.9403331,13.584014019823336,6.016732487511664,1.404905909213333,-8.244541666666667,44.2855,-51.10029166666667,0.5834639999999999,0.1523946666666667,0.012492666666666662,18.5,True
1607123573.9521792,12.324372382618334,5.125465889576664,0.9406584444366664,-9.681583333333338,48.27316666666668,-59.45858333333334,0.5833799999999999,0.1570426666666667,0.012450666666666664,18.5,True
1607123573.964162,11.084032847720001,4.224687821806665,0.27415764939499976,-5.539041666666663,49.477750000000015,-63.93508333333334,0.5832959999999999,0.1616906666666667,0.012450666666666664,18.5,True
1607123573.975952,9.987162967880002,3.2850064465983317,-0.41180476946000005,3.4807499999999956,46.25570833333333,-62.95712500000001,0.5832586666666665,0.16646933333333339,0.012450666666666664,18.5,True
1607123573.988022,9.02098108237667,2.7047270259099987,-0.9180861512433334,12.267499999999995,38.52741666666666,-56.64254166666668,0.5831746666666665,0.17189200000000004,0.01322533333333333,18.5,True
1607123573.9998617,8.088378474026669,2.4194826318016665,-1.160678482506667,18.750375000000005,28.265124999999994,-49.07904166666667,0.5823439999999998,0.17753866666666668,0.01322533333333333,18.5,True
1607123574.0118248,7.106822703318335,2.1857836245349986,-1.2693126285466667,20.572125000000003,18.514125000000003,-42.30625,0.5819333333333331,0.182728,0.014144666666666663,18.5,True
1607123574.0241578,6.136154275440002,1.9340387468266658,-1.3279168420583332,19.467583333333337,9.089500000000005,-35.46258333333334,0.5811399999999997,0.187572,0.014144666666666663,18.5,True
1607123574.0362706,5.258108022370002,1.7850655997883331,-1.2789038591349997,17.957916666666673,-0.6976666666666641,-28.372166666666676,0.5805799999999997,0.19190266666666667,0.013388666666666663,18.5,True
1607123574.0512197,4.4689750690783345,1.7137993666849993,-1.1107083705433332,16.74866666666667,-9.918999999999999,-21.97970833333334,0.5798986666666665,0.19607466666666665,0.013388666666666663,18.5,False
1607123574.0631435,3.749572954388335,1.6526826894433329,-0.8883154500616665,16.03408333333334,-18.003125,-16.998333333333346,0.5789559999999999,0.1996026666666667,0.012226666666666663,18.5,False
1607123574.0749094,3.0751957849550005,1.5061223051933328,-0.6912864491399998,15.622833333333336,-25.30004166666667,-13.27054166666667,0.5775466666666667,0.203308,0.012226666666666663,18.5,False
1607123574.0868165,2.4604995992033354,1.2715858100166662,-0.50739803233,14.563791666666669,-32.29683333333333,-10.16516666666668,0.5761186666666666,0.20646266666666666,0.01132133333333333,18.5,False
1607123574.0987175,1.8542779934933336,0.9766704245666663,-0.3197608601133332,12.185249999999998,-38.24975000000001,-7.138250000000007,0.5743919999999999,0.20929999999999999,0.01132133333333333,18.5,False
1607123574.1105855,1.2802597919416665,0.6404987894550002,-0.1897308919916664,8.75495833333333,-42.62883333333334,-3.6295000000000095,0.5722453333333333,0.21180133333333334,0.01095733333333333,18.5,False
1607123574.1225011,0.7877969606733333,0.32951161220833297,-0.13391830484666659,4.383166666666669,-46.386375000000015,0.8586666666666545,0.5700799999999998,0.2140506666666667,0.01095733333333333,18.5,False
1607123574.1351972,0.43728833014999974,0.11090732751000028,-0.08422735551999996,-0.6967916666666635,-49.965416666666684,5.647833333333334,0.5677746666666666,0.2158146666666667,0.010266666666666665,18.5,False
1607123574.147267,0.21431714420666642,-0.01878365740999947,0.04231307964333331,-5.740291666666667,-53.33912500000001,9.408874999999995,0.5654693333333333,0.2175786666666667,0.010266666666666665,18.5,False
1607123574.1588662,0.02522433824166619,-0.12348958634833283,0.24729821571,-9.242916666666664,-55.251875000000005,12.144999999999998,0.562744,0.21872666666666668,0.009855999999999998,18.5,False
1607123574.17077,-0.14530415238499975,-0.26504498332666604,0.46985065769833334,-10.410749999999997,-54.716666666666676,14.190749999999996,0.5600186666666667,0.21987466666666666,0.009855999999999998,18.5,False
1607123574.182803,-0.29601209580833365,-0.43748773203333335,0.6465606067083333,-9.825375,-52.22758333333335,15.392416666666662,0.5571533333333334,0.22105066666666667,0.009855999999999998,18.5,False
1607123574.194723,-0.34289147858000024,-0.6574479495383334,0.7333203661466668,-8.484874999999997,-49.131250000000016,15.136333333333331,0.5546893333333334,0.22189999999999996,0.010037999999999997,18.5,False
1607123574.2066007,-0.34289147858000013,-0.9554740043683331,0.8239086417450001,-8.626916666666665,-46.85129166666669,14.626791666666666,0.5520013333333332,0.222768,0.010037999999999997,18.5,False
1607123574.2184508,-0.34289147857999963,-1.3309876310616664,1.0070991519633332,-9.86825,-45.103625000000015,15.271958333333325,0.5492760000000001,0.223776,0.010191999999999998,18.5,False
1607123574.2302666,-0.34289147858000013,-1.6677574718233328,1.289870962718333,-8.628375000000005,-42.37858333333336,17.647875000000003,0.5465506666666667,0.224756,0.010191999999999998,18.5,False
1607123574.2420776,-0.3432902823466667,-1.9363717488616672,1.4815360529783328,-2.640166666666672,-39.081583333333356,22.146250000000006,0.5440866666666667,0.22522266666666665,0.00985133333333333,18.5,False
1607123574.2537625,-0.09290133744499846,-1.9529819257433343,1.4023934454833331,3.3699166666666724,-36.51550000000002,26.57608333333335,0.5423413333333333,0.22555866666666666,0.00985133333333333,18.5,False
1607123574.2656825,0.7016553470733349,-1.7960725837483342,1.1990234646716667,7.144958333333339,-36.43412500000002,31.436708333333343,0.5407453333333333,0.22539066666666668,0.009925999999999997,18.5,False
1607123574.2774205,1.8810377262366664,-1.5039687648533338,1.1537392969666664,7.51712500000001,-37.78337500000002,37.93416666666668,0.5391493333333333,0.22522266666666665,0.009925999999999997,18.5,False
1607123574.2893944,3.144627520731667,-0.9574082026366665,1.3012767504450002,7.650416666666678,-37.93416666666669,44.88866666666668,0.538048,0.22441066666666662,0.010593333333333331,18.5,False
1607123574.3013144,4.405026885093333,-0.3877967827066665,1.3895519641966665,10.546375000000012,-39.05008333333335,51.87670833333333,0.5375253333333332,0.22189066666666662,0.010593333333333331,18.5,False
1607123574.3132384,5.64502743679,0.34711879850666655,1.7481961915599995,16.00404166666668,-41.48258333333336,58.83004166666667,0.5377306666666666,0.2192213333333333,0.010975999999999996,18.5,False
1607123574.3250163,6.849115709298333,1.0899506344883332,2.237368891753333,15.972250000000015,-41.938166666666696,62.39566666666667,0.537936,0.21655199999999997,0.010975999999999996,18.5,False
1607123574.3369021,7.864290637536667,1.8655441999016666,2.7086552430116666,9.556458333333342,-39.5135416666667,60.63924999999999,0.5381413333333334,0.2138826666666666,0.010975999999999996,18.5,False
1607123574.348769,8.721938077941667,2.2690737912033327,3.000779002095,0.4479999999999995,-34.18304166666669,53.41320833333334,0.5385240000000001,0.21072799999999994,0.011559333333333331,18.5,False
1607123574.3607402,9.512606425735003,2.3601007509449996,3.096172863081667,-9.400999999999998,-27.608875000000022,44.748374999999996,0.5389066666666668,0.20757333333333328,0.011559333333333331,18.5,False
1607123574.3726988,10.289456223013335,2.376352004436667,3.094916631216667,-15.561583333333333,-21.08312500000002,36.95912500000001,0.5390466666666668,0.20491333333333325,0.012114666666666662,18.5,False
1607123574.384693,11.043095641071668,2.4110080517599997,3.0537999628733337,-17.416875,-14.404541666666686,29.423625,0.5391866666666666,0.20225333333333326,0.012114666666666662,18.5,False
1607123574.3964918,11.748100939785001,2.3975883050116664,2.91134725742,-16.336541666666665,-7.234499999999997,21.784000000000006,0.538748,0.2001533333333333,0.01203533333333333,18.5,False
1607123574.408561,12.395339512896669,2.32785746641,2.6672195316550003,-14.151666666666666,-0.5999583333333212,14.682791666666676,0.5383093333333334,0.19805333333333333,0.01203533333333333,18.5,False
1607123574.4203596,12.967164293731667,2.248455636466667,2.38600305559,-12.454458333333331,4.9837083333333405,8.863166666666682,0.5383373333333333,0.196812,0.011787999999999996,18.5,False
1607123574.4325767,13.476057840186668,2.24039980038,2.1475383433116666,-12.48245833333333,9.96420833333334,4.294500000000013,0.5383653333333335,0.1955706666666667,0.011787999999999996,18.5,False
1607123574.4443865,13.90132223677167,2.284746779233333,1.9339390458849999,-14.313833333333331,14.804125000000008,0.3712916666666646,0.5381226666666667,0.195356,0.011927999999999996,18.5,False
1607123574.4584954,14.257055196638335,2.3276780047149996,1.71517523968,-17.018166666666666,19.262541666666674,-3.4626666666666717,0.5378800000000001,0.19514133333333336,0.011927999999999996,18.5,True
1607123574.4702106,14.513705360676669,2.3175683292300002,1.5084752474166663,-18.834375,22.61087500000001,-7.396083333333338,0.5382626666666668,0.19513200000000006,0.011871999999999995,18.5,True
1607123574.4822936,14.658451187788334,2.248515457031666,1.3554143617699999,-18.246374999999997,24.713500000000007,-11.452291666666673,0.5386453333333334,0.19512266666666675,0.011871999999999995,18.5,True
1607123574.4940574,14.658072324210002,2.1174087187399997,1.2458829072550002,-15.280125,25.959791666666675,-15.050291666666668,0.5390186666666668,0.1956546666666667,0.011829999999999997,18.5,True
1607123574.5058563,14.550036383820004,1.945025790598333,1.1400403875816667,-11.540666666666668,26.96895833333334,-17.700375,0.539392,0.19618666666666668,0.011829999999999997,18.5,True
1607123574.5175233,14.418231738936669,1.769452432323333,1.019282607035,-8.568000000000001,27.67362500000001,-19.565,0.5400826666666667,0.19733466666666669,0.011829999999999997,18.5,True
1607123574.5298822,14.266187802895,1.5901701990183328,0.8869196368783333,-7.377416666666667,27.649708333333344,-20.762583333333335,0.5406333333333334,0.19873466666666667,0.011829999999999997,18.5,True
1607123574.54168,14.090734085749999,1.3934403009216665,0.7580461996800003,-7.682500000000001,26.92316666666668,-21.51391666666667,0.541184,0.20013466666666666,0.011829999999999997,18.5,True
1607123574.553441,13.799886498719998,1.2132208787649998,0.6593422674300001,-8.848875,25.60687500000001,-21.52266666666667,0.5412213333333332,0.20171200000000003,0.011694666666666662,18.5,True
1607123574.565106,13.443036888306665,1.062971559673333,0.5760122203849999,-9.309416666666667,24.362916666666674,-21.209124999999997,0.5412586666666667,0.20328933333333335,0.011694666666666662,18.5,True
1607123574.576931,13.090135435183331,0.9451449868116664,0.4801996154433334,-8.472625,23.18254166666668,-21.301875,0.5411933333333334,0.204904,0.01150333333333333,18.5,True
1607123574.588641,12.736595896033329,0.8137391456949994,0.36386855670666673,-7.19075,21.721000000000007,-21.746666666666666,0.541128,0.20651866666666666,0.01150333333333333,18.5,True
1607123574.6011229,12.398649584159996,0.6535197324366661,0.23266211747333326,-6.838708333333335,19.75225000000001,-22.17279166666667,0.5411,0.20837599999999998,0.011218666666666663,18.5,True
1607123574.6131558,12.07952681007333,0.4927619340933326,0.11146565278333338,-7.446833333333335,17.238958333333343,-22.437041666666666,0.541072,0.21023333333333333,0.011218666666666663,18.5,True
1607123574.6281087,11.748659265058329,0.339202543738333,-0.009591230588333315,-7.409500000000002,14.921958333333345,-22.846541666666663,0.5407826666666666,0.211932,0.011190666666666663,18.5,True
1607123574.6401086,11.42562821405833,0.11082756675666673,-0.12983056623833325,-6.668958333333335,12.572875000000007,-23.047208333333334,0.5404933333333333,0.21363066666666666,0.011190666666666663,18.5,True
1607123574.6521525,11.120104648415001,-0.1204586777216665,-0.266261334815,-6.179541666666667,10.341916666666664,-22.263208333333335,0.5400173333333333,0.21555333333333335,0.011227999999999997,18.5,True
1607123574.6639805,10.812487362996666,-0.31565318131666653,-0.3876572013883334,-6.476750000000001,7.884916666666664,-20.739249999999995,0.5395413333333334,0.21747599999999997,0.011227999999999997,18.5,True
1607123574.6756606,10.529795312994999,-0.4816353090033331,-0.47499522628833335,-7.533166666666669,5.267791666666665,-19.440166666666666,0.53886,0.21894133333333332,0.011344666666666664,18.5,True
1607123574.6875424,10.291210959586664,-0.65096738833,-0.5385047261299999,-9.028833333333333,2.752750000000002,-18.33825,0.5381786666666667,0.22040666666666667,0.011344666666666664,18.5,True
1607123574.6993864,10.086345464649996,-0.8434699665000001,-0.565005236425,-10.645541666666668,0.3010000000000012,-17.364666666666665,0.5375160000000001,0.2217693333333333,0.011204666666666665,18.5,True
1607123574.7114553,9.918229736811663,-1.0376275803016664,-0.5468796052299999,-11.552041666666666,-1.874833333333334,-16.15775,0.5367226666666667,0.22297333333333333,0.011204666666666665,18.5,True
1607123574.7230952,9.776295476254997,-1.2188639520633333,-0.5001198635883334,-11.175791666666667,-3.528,-14.439541666666667,0.5359293333333335,0.2241773333333333,0.011204666666666665,18.5,True
1607123574.7350812,9.653065112354996,-1.37192483771,-0.4420939155383333,-9.545958333333335,-4.816583333333335,-12.273624999999997,0.5351640000000002,0.22520400000000002,0.011199999999999996,18.5,True
1607123574.7469192,9.566365173481664,-1.4569099203866667,-0.4089932029050001,-7.669958333333337,-5.663,-9.781624999999998,0.5343986666666668,0.22623066666666664,0.011199999999999996,18.5,True
1607123574.758837,9.510173722758331,-1.5203197192866669,-0.3686741420950001,-6.904625000000002,-5.904208333333333,-7.518874999999999,0.5339226666666668,0.22711733333333334,0.011465999999999997,18.5,True
1607123574.770804,9.470393047033332,-1.5662419730183335,-0.3486940733850001,-7.176458333333337,-5.984999999999999,-5.651916666666666,0.5334466666666667,0.228004,0.011465999999999997,18.5,True
1607123574.782873,9.42329432219,-1.6098910452800002,-0.3225724266683334,-7.923708333333337,-6.204916666666667,-4.221875,0.53284,0.22837733333333335,0.011489333333333329,18.5,True
1607123574.7946,9.376813743185,-1.6640884771700002,-0.28646074559666673,-8.414583333333336,-6.715333333333333,-3.1724583333333327,0.5322333333333334,0.22875066666666666,0.011489333333333329,18.5,True
1607123574.806769,9.342995183771666,-1.7244274870666667,-0.2270988049283333,-8.055833333333336,-7.358458333333333,-2.214041666666669,0.53186,0.22867600000000005,0.011185999999999998,18.5,True
1607123574.818446,9.310731959048333,-1.770389621175,-0.15567305031833326,-6.7415833333333355,-7.928083333333333,-1.1401250000000005,0.5314866666666667,0.22860133333333335,0.011185999999999998,18.5,True
1607123574.8304837,9.28726235738,-1.7759329935316666,-0.08749754640666668,-4.953958333333334,-8.05525,0.020708333333332055,0.531048,0.22872266666666666,0.011661999999999997,18.5,True
1607123574.8422556,9.267720972813331,-1.7516259039533333,-0.039162529886666665,-3.484250000000001,-7.692125000000002,1.2445416666666669,0.5306093333333333,0.22884400000000002,0.011661999999999997,18.5,True
1607123574.8541486,9.252725951186667,-1.7069997624633333,-0.01814557138333334,-2.6839166666666676,-7.102083333333335,2.1632916666666673,0.5300119999999999,0.2290026666666667,0.01088733333333333,18.5,True
1607123574.8659384,9.229874495356665,-1.6507684313633333,-0.0027716861783333322,-2.3555,-6.621125,2.6034166666666674,0.5294146666666666,0.2291613333333333,0.01088733333333333,18.5,True
1607123574.8777454,9.228438801796665,-1.6016756876866665,0.016450655374999987,-2.0267916666666674,-6.3665,2.746333333333334,0.5288173333333333,0.22931999999999997,0.01088733333333333,18.5,True
1607123574.8902276,9.25005396595,-1.5506686859299998,0.06225326797666665,-1.4072916666666668,-6.156208333333335,2.9271666666666674,0.528668,0.22889066666666666,0.01154533333333333,18.5,True
1607123574.9021432,9.309475727183331,-1.4856038513983332,0.12616157158499997,-0.7452083333333335,-5.726291666666668,3.5393749999999997,0.5285186666666667,0.22846133333333335,0.01154533333333333,18.5,True
1607123574.9138153,9.429735003021664,-1.3990634340316666,0.20103697877666662,-0.27008333333333406,-5.016958333333335,4.57625,0.5281453333333334,0.22831200000000001,0.01111133333333333,18.5,True
1607123574.9256763,9.627641372229997,-1.2694322696766662,0.2889133887616666,0.09916666666666704,-4.027916666666668,5.696541666666666,0.527772,0.22816266666666668,0.01111133333333333,18.5,True
1607123574.937422,9.911131029764999,-1.1242078780449996,0.35210384559,0.7032083333333335,-2.7822083333333336,6.819166666666667,0.5280706666666667,0.227724,0.011246666666666663,18.5,True
1607123574.962146,10.264670568915,-0.9786843835883329,0.38576288349666665,1.543791666666667,-2.1723333333333334,8.636833333333334,0.528584,0.22691200000000003,0.011353999999999998,18.5,True
1607123574.977529,10.603015684555,-0.7849455137416665,0.4558526454883334,0.8802500000000002,-2.9688749999999997,10.910666666666666,0.5291626666666667,0.22605333333333336,0.011353999999999998,18.5,True
1607123574.995391,10.928658900226663,-0.5185047172316666,0.5618347464800001,-0.7732083333333338,-4.1335,13.120625,0.5298906666666666,0.22468133333333337,0.011339999999999996,18.5,True
1607123575.0189507,11.262796636128332,-0.219601294115,0.6654639052483333,-0.4027916666666671,-5.190791666666667,15.260291666666667,0.5310293333333334,0.22282400000000008,0.010695999999999999,18.5,True
1607123575.0375185,11.594920413008332,0.1315653626233333,0.6705486532733332,2.023,-6.724083333333334,17.350083333333334,0.5321586666666668,0.22087333333333342,0.010989999999999998,18.5,True
1607123575.0565524,11.943494845263332,0.489870606785,0.6723831506,2.256041666666667,-9.111083333333333,18.57304166666667,0.5331946666666668,0.21870800000000004,0.010989999999999998,18.5,True
1607123575.0781264,12.297353427426666,0.8785447577783333,0.7437490846449999,-3.949166666666667,-11.241125,18.379083333333334,0.5342306666666669,0.21648666666666677,0.010621333333333332,18.5,True
1607123575.1007903,12.526486131565,1.3303096646583332,0.8596414592383332,-11.665500000000002,-12.699166666666667,16.455541666666665,0.5352853333333335,0.21356533333333344,0.009972666666666663,18.5,True
1607123575.1128232,12.226485998089998,1.5595620099266665,1.0581859144733332,-16.302708333333335,-14.246166666666669,10.986791666666667,0.5359666666666667,0.21036400000000008,0.009426666666666663,18.5,True
1607123575.124731,11.639945358265,1.5677574273316666,1.3071391658149998,-17.496208333333335,-15.125250000000001,4.8822083333333355,0.5366293333333334,0.20726533333333344,0.009426666666666663,18.5,True
1607123575.1366732,10.865049699443334,1.499542043043333,1.5679767694033333,-16.881666666666668,-14.067083333333336,-1.7406666666666666,0.5372920000000001,0.20514666666666675,0.009561999999999996,18.5,True
1607123575.149784,9.90736233417,1.338505082063333,1.6623138004083333,-17.016125,-10.444000000000004,-9.565499999999998,0.5376000000000001,0.20302800000000013,0.009561999999999996,18.5,True
1607123575.16159,8.949894310968334,1.2116057235100002,1.6154144774483332,-20.420458333333332,-6.465083333333337,-18.88454166666667,0.5377026666666667,0.20104933333333347,0.009561999999999996,18.5,True
1607123575.173228,8.000581824795,0.9506883591683334,1.5448262107483333,-26.338083333333334,-3.3815833333333347,-28.96366666666667,0.5379080000000002,0.20002266666666674,0.009748666666666664,18.5,True
1607123575.1849408,7.054180606118335,0.4562913296316665,1.45028977786,-32.31579166666667,-1.2235416666666685,-39.12562500000001,0.5381693333333335,0.1990893333333334,0.009748666666666664,18.5,True
1607123575.19666,6.101139304726669,-0.1393220958849998,1.3152348822783333,-37.27879166666667,0.7209999999999968,-49.39083333333334,0.5374880000000001,0.19917333333333342,0.009468666666666663,18.5,True
1607123575.208474,5.148636388420001,-0.7417949461883332,1.1049257159266668,-39.46833333333334,2.795624999999997,-57.71675000000001,0.5367320000000001,0.19955600000000004,0.009468666666666663,18.5,True
1607123575.2201178,4.3502910681183335,-1.355234900075,0.8860821489683335,-36.767208333333336,5.658333333333331,-57.70654166666667,0.5358080000000001,0.20052666666666674,0.009748666666666664,18.5,True
1607123575.2320907,3.6066018040383336,-1.9770297928733327,0.6782056855933334,-27.963833333333334,7.803249999999997,-49.66820833333334,0.5349400000000002,0.20146933333333336,0.009748666666666664,18.5,True
1607123575.2436936,2.935295423608333,-2.1185453094749995,0.5396413168650002,-18.70516666666667,8.608249999999998,-40.344208333333334,0.5350893333333334,0.20214133333333337,0.01050933333333333,18.5,True
1607123575.2555387,2.3151356262533325,-2.0008583179316664,0.43674994506500003,-13.05208333333333,7.970374999999999,-30.980541666666674,0.5350986666666667,0.20274800000000004,0.01050933333333333,18.5,True
1607123575.2704365,1.67964182407,-1.932343830818333,0.35613176363333326,-12.178541666666662,5.099791666666666,-23.669916666666676,0.5355186666666668,0.202804,0.01063533333333333,18.5,True
1607123575.2825406,0.935015371138333,-2.029392727436666,0.37836507362500005,-11.783333333333335,0.4342916666666658,-16.8245,0.5362466666666668,0.2027666666666667,0.01063533333333333,18.5,True
1607123575.2942474,0.15495520353833256,-2.1459431282449994,0.5337789014950002,-10.830458333333329,-4.837875000000001,-9.270333333333332,0.5366946666666668,0.20182400000000003,0.010037999999999997,18.5,True
1607123575.3062413,-0.5778267775233336,-2.184447631916666,0.7837092220650003,-9.935916666666666,-9.276458333333334,-1.3530416666666734,0.5371426666666667,0.20088133333333336,0.010037999999999997,18.5,True
1607123575.3180203,-1.243210922018333,-2.1875383611083326,1.0211968651150003,-8.986249999999995,-12.490625000000003,5.708208333333328,0.5372546666666665,0.1991733333333334,0.009585333333333331,18.5,True
1607123575.3300922,-1.8571294404249996,-2.187458600354999,1.1932408100549998,-7.634958333333331,-14.570208333333337,11.139625000000002,0.5373666666666667,0.1974653333333334,0.009585333333333331,18.5,True
1607123575.342024,-2.4224537198633325,-2.188455609771666,1.2896316804583334,-5.832166666666665,-16.139958333333336,15.35975,0.5378146666666666,0.19562666666666675,0.009585333333333331,18.5,True
1607123575.353816,-2.9318058906499997,-2.195195393428333,1.3147164373816669,-3.9987499999999967,-17.525375000000004,18.745708333333337,0.538384,0.1935453333333334,0.009809333333333331,18.5,True
1607123575.36562,-3.3987652210400006,-2.191067774443334,1.3059028741383334,-2.957500000000002,-18.774875,21.567291666666673,0.5384213333333333,0.19157600000000005,0.009809333333333331,18.5,True
1607123575.3774002,-3.802554034789999,-2.1572492150300002,1.2983056623833333,-2.9370833333333386,-19.36345833333333,23.317000000000007,0.5380759999999999,0.1896253333333334,0.009977333333333331,18.5,True
1607123575.389104,-4.087599027015002,-2.118804531923333,1.2566107285783334,-1.8608333333333278,-18.573624999999996,24.397333333333336,0.5377306666666666,0.1876746666666667,0.009977333333333331,18.5,True
1607123575.4011827,-4.276412670343333,-2.1172491972333334,1.1909277482083336,0.16741666666666621,-17.118500000000004,24.74266666666667,0.5375533333333333,0.18561200000000003,0.009561999999999996,18.5,True
1607123575.4129376,-4.398446622943334,-2.1669002661833336,1.124925724825,0.3351250000000011,-15.050291666666672,24.417458333333336,0.5371146666666667,0.18409066666666668,0.009561999999999996,18.5,True
1607123575.4250307,-4.493680962423334,-2.2081764560333346,1.125125126708333,-0.8828750000000006,-11.898833333333338,24.014666666666663,0.5368533333333333,0.1825226666666667,0.00979533333333333,18.5,True
1607123575.4390898,-4.535894341124999,-2.237568293636668,1.0997612071483331,0.8677083333333308,-7.786625,23.77025000000002,0.5365920000000001,0.18095466666666665,0.00979533333333333,18.5,True
1607123575.4513776,-4.535894341124999,-2.277109687101668,1.0101500007783333,8.70683333333334,-4.705750000000001,24.206874999999993,0.5361626666666669,0.1795453333333333,0.010098666666666664,18.5,True
1607123575.4632375,-4.415694885851666,-2.4015962828666684,0.8982456638516667,16.845791666666674,-2.7722916666666673,25.80900000000001,0.5358173333333335,0.17871466666666663,0.010098666666666664,18.5,False
1607123575.4798164,-3.774558010369999,-2.3439890787716684,0.7525028273233335,20.549083333333343,-1.0931666666666684,31.015249999999995,0.5358640000000002,0.17841599999999996,0.010191999999999998,18.5,False
1607123575.4917352,-2.8560730553599996,-2.0822940470850013,0.6110072509099999,19.509291666666673,0.20241666666667016,37.748958333333334,0.5359106666666668,0.17811733333333332,0.010191999999999998,18.5,False
1607123575.5036824,-1.7661623012483314,-1.749811346815001,0.47134617182333327,16.748666666666676,-0.3018749999999957,45.28504166666668,0.5356400000000002,0.1765773333333333,0.009958666666666664,18.5,False
1607123575.5155263,-0.5302694283483331,-1.3024731617450012,0.5221338315083331,15.260875000000006,-3.3836250000000034,54.03883333333335,0.5357240000000002,0.17503733333333332,0.009958666666666664,18.5,False
1607123575.527611,0.6954938288783339,-0.8477571069916681,0.7501498850999998,17.818791666666666,-6.731666666666669,64.20312500000003,0.5359200000000003,0.17324533333333333,0.009813999999999996,18.5,False
1607123575.5400531,1.8906887773900005,-0.2521038010983341,1.0385847093416667,23.895083333333336,-8.588708333333333,75.03620833333335,0.5360133333333336,0.1705013333333333,0.009813999999999996,18.5,False
1607123575.552427,3.0699315752349987,0.5996612837483333,1.2996815353783333,31.413666666666668,-8.96524999999999,85.68933333333332,0.5359760000000001,0.16763599999999998,0.010434666666666665,18.5,False
1607123575.5645711,4.224907163878331,1.547617837115,1.5734802613833336,38.330833333333345,-8.885041666666659,95.97991666666664,0.5368813333333335,0.1637533333333333,0.010434666666666665,18.5,False
1607123575.576771,5.34688174083,2.470808676571666,1.8814165898150002,41.98833333333335,-8.784999999999991,103.81699999999998,0.5383373333333334,0.15987999999999997,0.010359999999999998,18.5,False
1607123575.589279,6.267261013731666,3.343311557285,2.1562522056133333,39.71100000000002,-9.472749999999992,103.0668333333333,0.5399613333333336,0.15541866666666668,0.010359999999999998,18.5,False
1607123575.6018848,7.085167658788333,4.165804445658334,2.3901306745749995,30.156875000000003,-9.889541666666663,94.40608333333333,0.5413800000000002,0.15113466666666667,0.011167333333333331,18.5,False
1607123575.6137908,7.82010318019,4.489493522873333,2.557668136951667,19.282375000000005,-9.484999999999992,84.664125,0.5417813333333333,0.14712133333333333,0.011167333333333331,18.5,False
1607123575.6262097,8.514919042665,4.5495134897566665,2.696750950576667,11.754458333333343,-7.888416666666661,74.82970833333339,0.5427146666666668,0.14316399999999996,0.010994666666666663,18.5,False
1607123575.6386218,9.223433814525,4.646821608823332,2.8067011490466673,9.667583333333335,-3.9853333333333225,66.78583333333333,0.5432373333333335,0.13975733333333332,0.010994666666666663,18.5,False
1607123575.6507576,10.027422208125,4.879045042153333,2.7880371327666675,9.050708333333334,1.7625416666666722,58.757125,0.5437600000000001,0.13635066666666668,0.010994666666666663,18.5,False
1607123575.6632466,10.849037728211666,5.0887360626666664,2.593321193691667,8.305208333333338,8.089083333333331,49.75483333333334,0.5441986666666668,0.13360666666666668,0.01111133333333333,18.5,False
1607123575.6753166,11.581600367201668,5.1866423873833325,2.2828923417183344,7.281750000000002,13.53625,40.54429166666666,0.5446373333333335,0.13086266666666668,0.01111133333333333,18.5,False
1607123575.6874676,12.210713309118335,5.220999331881666,1.95601283437,5.4460000000000015,17.45041666666667,32.57391666666667,0.5451973333333336,0.12962133333333337,0.01158733333333333,18.5,False
1607123575.6994793,12.74379430402167,5.237230645184999,1.6879369424166668,2.7612083333333346,19.691291666666668,26.293458333333337,0.5457573333333335,0.12838000000000002,0.01158733333333333,18.5,False
1607123575.7116764,13.187323913120004,5.241178802475,1.5002997702000003,-0.2624999999999999,20.959750000000003,21.175000000000004,0.5463453333333335,0.12745600000000004,0.011517333333333329,18.5,False
1607123575.7236362,13.522877402393338,5.2299923568199995,1.3803395971866668,-2.972958333333333,21.89745833333333,16.899458333333342,0.5468120000000002,0.12677466666666673,0.011517333333333329,18.5,False
1607123575.7358203,13.728700026370005,5.205186762533333,1.303789214175,-4.650333333333333,22.626916666666663,13.048875,0.5473160000000001,0.1259533333333334,0.011787999999999996,18.5,False
1607123575.7476902,13.801681115670004,5.142115946835001,1.2443674529416666,-5.1625000000000005,23.409750000000006,9.261000000000001,0.547988,0.1254866666666667,0.011787999999999996,18.5,False
1607123575.7597191,13.76158139693167,5.019723070845001,1.1734003226633334,-4.884250000000001,24.141250000000003,5.456791666666666,0.548548,0.1249826666666667,0.011484666666666664,18.5,False
1607123575.771682,13.620325102778336,4.84414971257,1.082173961038333,-4.560791666666669,24.444583333333338,2.493458333333336,0.5487906666666668,0.12510400000000002,0.011484666666666664,18.5,False
1607123575.783751,13.41522032558167,4.654139657941668,1.007218793093333,-5.158708333333335,23.863291666666665,0.4555833333333356,0.5491360000000001,0.12569200000000003,0.011409999999999998,18.5,False
1607123575.7956398,13.184951030708335,4.4375094518883325,0.955354363238333,-6.850375000000001,22.65345833333334,-1.075958333333334,0.5493133333333334,0.12642000000000003,0.011409999999999998,18.5,False
1607123575.8076258,12.903196169558335,4.2128832303133334,0.9446265419149996,-9.447374999999997,21.063875000000003,-2.0437083333333335,0.5493506666666667,0.12695200000000004,0.011787999999999996,18.5,False
1607123575.8195107,12.580843084961668,3.974139355398334,0.9397611359616662,-11.449958333333333,19.994041666666668,-2.7014166666666677,0.549556,0.12738133333333337,0.011787999999999996,18.5,False
1607123575.8317375,12.26142120805,3.7479976795100005,0.9173084838983331,-11.533666666666667,19.364625,-3.0587083333333336,0.5497613333333332,0.1278106666666667,0.011787999999999996,18.5,False
1607123575.8438058,11.940603517955,3.5582069669533336,0.8525427521916664,-9.823624999999998,19.126041666666666,-3.5600833333333344,0.5499946666666666,0.12820266666666671,0.01186733333333333,18.5,False
1607123575.8592224,11.613743950795,3.376611671801667,0.7194419950666668,-6.826458333333335,18.685625,-4.865291666666668,0.5502186666666666,0.12881866666666672,0.01150333333333333,18.5,False
1607123575.8713665,11.291709909211667,3.1837701104300007,0.5717450200816665,-4.335041666666669,17.990000000000002,-6.274041666666668,0.5507600000000001,0.12969600000000006,0.01150333333333333,18.5,False
1607123575.8833816,11.013943085728334,2.9711279420433336,0.40859439913833306,-2.953125,17.123750000000005,-7.594125,0.5513013333333334,0.13057333333333337,0.01150333333333333,18.5,False
1607123575.8952503,10.762078566890002,2.7214967242983334,0.22771695076666643,-2.863000000000001,16.01891666666667,-8.878625,0.5514693333333335,0.13178666666666672,0.011713333333333329,18.5,False
1607123575.9073985,10.540343672623335,2.4454048766350005,0.05158526721833334,-3.817041666666667,14.286125,-10.217958333333337,0.5516373333333335,0.13300000000000003,0.011713333333333329,18.5,False
1607123575.9193451,10.334441287893334,2.160559286293333,-0.0877368286666667,-5.297541666666668,12.063041666666669,-11.503041666666668,0.5519640000000002,0.1343626666666667,0.011633999999999997,18.5,False
1607123575.9315312,10.145767225883334,1.8683158860799998,-0.19256239873499997,-6.568916666666667,9.821875000000002,-12.42325,0.552290666666667,0.13572533333333336,0.011633999999999997,18.5,False
1607123575.943484,9.986345420158333,1.6077773853166664,-0.2644866580533333,-6.935541666666666,7.774958333333335,-12.714333333333336,0.5522720000000002,0.1369666666666667,0.011157999999999998,18.5,False
1607123575.955508,9.870213763305,1.401655658515,-0.316630250545,-6.246625,5.99666666666667,-12.513958333333333,0.5522533333333334,0.13820800000000005,0.011157999999999998,18.5,False
1607123575.967444,9.800423104138332,1.2521840067683334,-0.35234312785,-4.986041666666668,4.686208333333334,-12.219958333333333,0.5522160000000003,0.1396266666666667,0.011372666666666665,18.5,False
1607123575.97953,9.749914607089998,1.1346365965433334,-0.3905285885083334,-3.6493333333333333,3.823166666666667,-11.991291666666667,0.5521786666666669,0.14104533333333338,0.011372666666666665,18.5,False
1607123575.991528,9.698748083826667,1.0223135156616667,-0.4294119557583334,-2.455833333333333,2.9747083333333335,-11.793833333333334,0.5516840000000004,0.1422493333333334,0.011610666666666663,18.5,False
1607123576.0035717,9.652307385198332,0.9139186518816665,-0.45304107893333345,-1.7549583333333336,1.855583333333334,-11.593166666666667,0.5511893333333336,0.14345333333333338,0.011610666666666663,18.5,False
1607123576.0155816,9.61172910194,0.8177271833616665,-0.4423930183633336,-1.4020416666666666,0.6235833333333332,-11.1265,0.5502466666666669,0.14500266666666672,0.011176666666666665,18.5,False
1607123576.0277479,9.568319311938332,0.7351748036616664,-0.3959323795466666,-0.9254583333333346,-0.43429166666666663,-10.30925,0.5496680000000004,0.14679466666666674,0.011176666666666665,18.5,False
1607123576.0397675,9.535338240435,0.6713063804299999,-0.33627133605333337,-0.08137499999999966,-1.257958333333334,-9.309708333333333,0.549350666666667,0.14847466666666673,0.011512666666666664,18.5,False
1607123576.0523214,9.526923480958333,0.6363911106583332,-0.27591238596833334,0.9289583333333342,-1.7112083333333337,-8.355083333333335,0.5489400000000003,0.14975333333333335,0.011512666666666664,18.5,False
1607123576.0645225,9.533842726309997,0.6137589968999998,-0.23262223709666666,1.90225,-1.7666250000000001,-7.464041666666668,0.5487253333333336,0.15101333333333333,0.01137733333333333,18.5,False
1607123576.0767376,9.534919496479997,0.6002594893983332,-0.21260228800999992,2.618291666666667,-1.6534583333333333,-6.654083333333334,0.5484826666666668,0.15195599999999995,0.01137733333333333,18.5,False
1607123576.0890994,9.52447083779333,0.5904887971149999,-0.20185452649833327,3.082041666666667,-1.7246250000000005,-6.035750000000001,0.5482400000000002,0.15289866666666665,0.01137733333333333,18.5,False
1607123576.1155102,9.512825767806664,0.5792026505183332,-0.18356937379666666,3.563,-1.8981666666666672,-5.545458333333335,0.5477453333333334,0.1542613333333333,0.011428666666666663,18.5,False
1607123576.1339262,9.488299336156663,0.5498706334799999,-0.16809578764999997,4.092958333333334,-1.999958333333334,-4.810166666666668,0.5472506666666668,0.15522266666666665,0.011409999999999998,18.5,False
1607123576.1516023,9.457551565746664,0.5307679330566665,-0.15457633996,4.203791666666667,-2.1317916666666665,-4.035208333333335,0.5470173333333332,0.15643600000000005,0.01154533333333333,18.5,False
1607123576.167521,9.43970509718833,0.5496114110316666,-0.13100703734999994,4.180458333333334,-2.3205,-3.551333333333333,0.546616,0.15732266666666667,0.011274666666666664,18.5,False
1607123576.186051,9.443134809581665,0.5942774328983333,-0.08550352757333331,4.277,-2.5544166666666674,-3.4743333333333335,0.546112,0.15774266666666667,0.011274666666666664,18.5,False
1607123576.2074509,9.505826761701664,0.6677570269066666,0.0016550356316666682,4.646541666666666,-2.339166666666668,-3.4230000000000005,0.5458040000000001,0.15843333333333334,0.011619999999999997,18.5,False
1607123576.2249556,9.72215786493,0.7917849983399999,0.10075777164833334,5.408666666666666,-1.5814166666666674,-3.319166666666667,0.545748,0.15904933333333335,0.011489333333333329,18.5,False
1607123576.2486596,10.044510949526666,0.9537591481716665,0.17302101416833332,6.337625,-1.340500000000001,-2.9327083333333337,0.5459066666666667,0.1599826666666667,0.01182533333333333,18.5,False
1607123576.2674146,10.363932826438335,1.1940982381533334,0.3042274534016666,5.628875,-2.4675,-1.7272500000000004,0.5460653333333333,0.16091600000000003,0.01182533333333333,18.5,False
1607123576.2793837,10.684750516533335,1.5511671906383333,0.5036093965466667,4.6818333333333335,-3.1511666666666667,0.46637500000000004,0.546308,0.16134533333333337,0.011540666666666664,18.5,False
1607123576.2915053,11.011610083693334,1.9944774576649995,0.6777071808849999,5.348583333333333,-2.890708333333334,3.4851250000000005,0.5465599999999999,0.1615506666666667,0.011540666666666664,18.5,False
1607123576.3018034,11.344910331685002,2.5411576610116664,0.7964111220333332,8.013541666666667,-1.9923750000000002,6.488416666666668,0.546868,0.1614386666666667,0.011540666666666664,18.5,False
1607123576.3134582,11.676336201973333,3.1910482791716666,0.8462815330549999,11.719750000000001,-1.0042083333333331,8.929958333333335,0.5471760000000001,0.16132666666666667,0.011540666666666664,18.5,False
1607123576.3252273,12.009078124691667,3.8440695069,0.8605786480899998,13.905791666666666,-0.6052083333333335,9.753916666666669,0.548072,0.16070133333333333,0.012137999999999998,18.5,False
1607123576.3371992,12.342258731553335,4.494717852216667,0.8858827470849998,11.936458333333333,-0.4905833333333335,8.234041666666668,0.548968,0.160076,0.012137999999999998,18.5,False
1607123576.3491292,12.675558979545002,5.1433721787,0.9401001191633331,5.9535,-0.5430833333333333,3.595083333333335,0.5496773333333335,0.15976800000000002,0.01203533333333333,18.5,False
1607123576.3609788,12.765070484973334,5.794299686653333,1.0375677597366666,-2.027083333333333,-0.8942500000000002,-4.053,0.5503866666666667,0.15946000000000005,0.01203533333333333,18.5,False
1607123576.372909,12.530553929985,6.158048602229999,1.1807781923466663,-9.40975,-1.7080000000000004,-13.547625000000002,0.5508906666666665,0.15926400000000004,0.01203533333333333,18.5,False
1607123576.384692,11.90632633421,6.120860150988333,1.3908680166266663,-14.317625000000001,-2.7647083333333335,-23.140833333333333,0.5510400000000001,0.15993600000000005,0.011470666666666662,18.5,False
1607123576.396637,11.002058733481666,5.7857453458583326,1.641197140963333,-16.881083333333333,-2.8472500000000007,-32.700208333333336,0.5514133333333333,0.1602533333333334,0.011470666666666662,18.5,False
1607123576.4085526,10.037232780784999,5.359065195901666,1.867278996286666,-19.038833333333336,-1.3603333333333338,-40.952333333333335,0.5512640000000001,0.16163466666666668,0.01123733333333333,18.5,False
1607123576.4205177,9.072486588841665,4.963731022004999,1.9512870097349997,-23.069375,1.881541666666667,-50.37870833333334,0.5510400000000001,0.16317466666666666,0.01123733333333333,18.5,False
1607123576.4337819,8.110512083076664,4.420939155383333,1.843689753488333,-30.943208333333338,4.6797916666666675,-59.716416666666674,0.550648,0.16562933333333332,0.011325999999999998,18.5,False
1607123576.4455705,7.150970280288332,3.751905956423333,1.5014363609349994,-40.79745833333334,4.99625,-68.96370833333334,0.5507040000000001,0.16773866666666665,0.011325999999999998,18.5,False
1607123576.4571257,6.200042638859998,3.0947172293333325,1.2011171844466662,-50.94920833333334,1.8205833333333326,-78.2550416666667,0.5492666666666667,0.17121066666666662,0.010275999999999999,18.5,False
1607123576.4690404,5.248935535736664,2.4411177361433327,1.085184929476666,-61.208000000000006,-3.178,-84.31879166666668,0.547568,0.17479466666666663,0.010275999999999999,18.5,False
1607123576.4806945,4.514498519043331,1.776431498239999,1.202891861208333,-64.41166666666668,-5.649583333333335,-81.96154166666666,0.5450573333333335,0.17781866666666662,0.009398666666666663,18.5,False
1607123576.4937234,3.845086456504998,1.1024531325733327,1.3032907094666664,-56.618625,-5.664166666666668,-72.51883333333335,0.5423506666666668,0.18086133333333326,0.009398666666666663,18.5,False
1607123576.5114362,3.1903104922033325,0.9323035055249986,1.2987842269033327,-46.780125000000005,-4.4934166666666675,-62.99066666666669,0.5403626666666668,0.18398799999999996,0.00965533333333333,18.5,False
1607123576.5232444,2.5449462967949996,0.9303294268799986,1.2407383386649995,-37.235041666666675,-4.720333333333334,-53.36945833333334,0.5383746666666668,0.18711466666666662,0.00965533333333333,18.5,False
1607123576.535151,1.9020347445516672,0.8963314057716661,1.2038290500599993,-30.088041666666673,-6.6126666666666685,-45.02837500000002,0.5374693333333335,0.18947599999999998,0.010583999999999998,18.5,False
1607123576.546996,1.253759281646667,0.8615955976949988,1.259741338146666,-24.71058333333334,-10.210375,-37.44591666666669,0.5365640000000002,0.19223866666666664,0.010583999999999998,18.5,False
1607123576.558862,0.6307679775483331,0.8812765635799995,1.4672588781316662,-20.115375000000007,-14.436916666666669,-30.017750000000017,0.5358920000000001,0.194348,0.010793999999999998,18.5,False
1607123576.5709782,0.05367898699333366,0.9504889572849996,1.7436498286199997,-16.443583333333333,-17.796333333333337,-22.915666666666677,0.5353880000000001,0.196784,0.010793999999999998,18.5,False
1607123576.5827909,-0.48105704354166634,1.0233105250783334,2.003849346181666,-13.294166666666664,-19.74845833333334,-16.16795833333334,0.5349120000000002,0.19890266666666667,0.010569999999999998,18.5,False
1607123576.5946677,-1.0354540997733335,1.065603664533333,2.1688743448283327,-10.30954166666667,-20.844541666666668,-10.349500000000031,0.5342400000000002,0.20075066666666666,0.010569999999999998,18.5,False
1607123576.6071348,-1.667956873706667,1.069073257303333,2.2524037937566663,-7.669083333333333,-21.45820833333334,-5.6428750000000125,0.5335213333333334,0.202384,0.01105533333333333,18.5,False
1607123576.6190708,-2.366481611211667,1.0463613827916667,2.291905306845,-5.0636250000000045,-20.792625000000005,-2.36629166666668,0.5325880000000002,0.20370000000000002,0.01105533333333333,18.5,False
1607123576.6308205,-3.044986399630001,0.93092763253,2.2072193269933327,-0.8776250000000033,-18.738125000000007,-1.122333333333345,0.5316546666666668,0.205016,0.01105533333333333,18.5,False
1607123576.6429317,-3.678665644675001,0.6752744779083326,2.00686031462,2.983166666666667,-17.647583333333337,-1.8719166666666838,0.5308986666666669,0.20676133333333332,0.01105533333333333,18.5,False
1607123576.6555786,-4.184109538548334,0.3199203816200008,1.8249858568316666,4.380249999999991,-17.948291666666673,-3.54491666666668,0.5301426666666668,0.2085066666666667,0.01105533333333333,18.5,False
1607123576.6675465,-4.58081958544,-0.10719845248000001,1.6906687482183331,3.8847083333333368,-18.668125000000007,-4.738125000000006,0.529116,0.21053200000000002,0.011479999999999995,18.5,False
1607123576.6794095,-4.8507499149083335,-0.583290389126667,1.6301901570033333,2.934749999999993,-18.95483333333334,-4.88658333333336,0.5280893333333334,0.21255733333333335,0.011479999999999995,18.5,False
1607123576.6920195,-5.000201626466667,-0.9916056256283331,1.621316773195,3.6467083333333314,-18.159166666666675,-3.561250000000038,0.527016,0.214984,0.011395999999999996,18.5,False
1607123576.7037463,-5.063691186120001,-1.3488540398083328,1.6131014156016665,7.776416666666669,-16.35433333333334,-0.7350000000000126,0.5259426666666668,0.2174106666666667,0.011395999999999996,18.5,False
1607123576.7156582,-5.063691186120001,-1.6982260795966657,1.5556537330133333,15.014999999999995,-13.731375000000007,3.8336666666666503,0.525084,0.21943600000000002,0.011647999999999997,18.5,False
1607123576.7274501,-4.812863557075,-2.0742780913749987,1.4368700311116664,24.138625,-10.712916666666674,10.208916666666664,0.5242253333333333,0.2214613333333334,0.011647999999999997,18.5,False
1607123576.7394211,-4.234259112206668,-2.229811560374998,1.2557134201033333,33.053125,-7.610458333333338,17.735666666666663,0.5234133333333334,0.22390666666666675,0.011685333333333329,18.5,False
1607123576.7512841,-3.2645278731800005,-2.079462540341665,1.014217799198333,39.127958333333346,-5.132750000000001,25.133208333333325,0.5229560000000001,0.2254840000000001,0.011685333333333329,18.5,False
1607123576.763048,-2.016032801253333,-1.6953148120999983,0.7966105239166664,41.041291666666666,-5.238333333333334,32.89999999999999,0.5221253333333334,0.22782666666666676,0.012375999999999996,18.5,False
1607123576.77482,-0.7093921401466665,-1.2487343541866667,0.7033502630816665,40.66504166666667,-7.804125000000003,40.47020833333332,0.5218173333333332,0.2291053333333334,0.012375999999999996,18.5,False
1607123576.7867038,0.5972485209600006,-0.8260621820849992,0.8499505277083331,41.00395833333334,-12.177958333333343,50.54641666666666,0.5214626666666666,0.23032800000000006,0.012380666666666663,18.5,False
1607123576.798481,1.9038891820666664,-0.20251255271333282,1.235015504613333,44.90558333333333,-15.859666666666673,61.593291666666666,0.521276,0.23063600000000006,0.012380666666666663,18.5,False
1607123576.8103278,3.193520862525,0.6144768436800001,1.86831588608,51.284041666666674,-16.549458333333337,72.94233333333337,0.5210893333333333,0.23094400000000007,0.012380666666666663,18.5,False
1607123576.8221076,4.45124824165,1.464247909693333,2.407438758048333,59.329375000000006,-12.802708333333337,83.69054166666669,0.5223679999999999,0.22931066666666672,0.011549999999999998,18.5,False
1607123576.8340967,5.669334526368333,2.3136600523166657,2.69886461054,69.27404166666665,-6.6263749999999995,90.15154166666669,0.5236466666666666,0.2276773333333334,0.011549999999999998,18.5,False
1607123576.8457196,6.590092662848332,3.1358538378649996,2.693161716676666,74.32454166666668,-3.0479166666666675,87.2482916666667,0.5256719999999999,0.2263613333333334,0.011778666666666663,18.5,False
1607123576.8575807,7.375915544876666,3.911866147233333,2.649592405168333,69.81945833333336,-2.208208333333334,76.66370833333336,0.5276973333333334,0.22504533333333337,0.011778666666666663,18.5,False
1607123576.8693366,8.089913868528333,4.132245108693333,2.672583442316666,63.60579166666668,-2.7320416666666674,65.61508333333333,0.5291253333333333,0.22402800000000003,0.012100666666666664,18.5,False
1607123576.8814394,8.762376779881667,4.142354784178333,2.71166621145,56.91029166666668,-1.8153333333333344,54.42470833333334,0.5305533333333333,0.2230106666666667,0.012100666666666664,18.5,False
1607123576.8931963,9.393184637806666,4.150629962336666,2.6855046843566663,50.88620833333334,0.8047083333333315,44.59379166666666,0.53102,0.22311333333333339,0.012487999999999997,18.5,False
1607123576.9050233,10.005647522465,4.153441528891666,2.5435106032349997,44.79037500000002,4.772541666666666,35.51975000000001,0.5314866666666667,0.22321600000000003,0.012487999999999997,18.5,False
1607123576.9167252,10.585548079575,4.072384663316666,2.2508883394433328,38.38770833333334,9.010750000000002,26.76595833333334,0.531748,0.22380400000000003,0.012347999999999996,18.5,False
1607123576.9289932,11.1110717431,3.9017564717483335,1.8967705348316664,32.77866666666668,12.107375000000001,18.91458333333333,0.5320093333333333,0.22439200000000004,0.012347999999999996,18.5,False
1607123576.9408333,11.574740942414998,3.701736442576667,1.561456327818333,28.223999999999997,13.680916666666668,11.975833333333334,0.5318600000000001,0.22526000000000002,0.01244133333333333,18.5,False
1607123576.952917,11.994800949844999,3.5115469262533336,1.3031710683366666,24.472875000000005,13.986291666666668,6.030791666666667,0.5317106666666667,0.226128,0.01244133333333333,18.5,False
1607123576.96473,12.340942679123334,3.3186455443166665,1.1327422786516663,21.379750000000005,13.525166666666669,1.225291666666665,0.5314960000000001,0.2274813333333333,0.01244133333333333,18.5,False
1607123576.976639,12.648500143976666,3.130569687956667,1.0416953787216665,18.270000000000007,12.542541666666668,-2.2604166666666683,0.5313093333333333,0.22900266666666663,0.011904666666666664,18.5,False
1607123576.9884129,12.947981832555,2.971706207505,1.0296315647799996,14.760375000000005,11.739583333333336,-4.433916666666667,0.5311226666666667,0.23052399999999998,0.011904666666666664,18.5,False
1607123577.000413,13.215678860930002,2.8433113348266663,1.0675578029899997,11.393666666666679,11.597833333333336,-5.738833333333334,0.5304506666666666,0.2318773333333333,0.012226666666666663,18.5,False
1607123577.0123148,13.380683919388334,2.735634317826667,1.128295616653333,9.12304166666667,11.969416666666667,-7.144083333333334,0.5297786666666667,0.23323066666666661,0.012226666666666663,18.5,False
1607123577.0242827,13.449657030833333,2.6071796245833334,1.1936994343866665,7.400166666666666,12.189041666666668,-9.208500000000003,0.529676,0.2349573333333333,0.012399333333333328,18.5,False
1607123577.0361257,13.401401775066665,2.430130692371667,1.2473584811916667,5.8391666666666655,12.142666666666667,-11.944624999999998,0.5295733333333333,0.23668399999999995,0.012399333333333328,18.5,False
1607123577.0480628,13.225150450388332,2.17639179583,1.271147125873333,4.508291666666665,11.954541666666668,-14.597625,0.5289946666666667,0.23837333333333335,0.012632666666666662,18.5,False
1607123577.0598557,12.997892123953333,1.8908283587083334,1.256271745376666,3.917666666666667,11.334458333333334,-16.268291666666666,0.5284160000000001,0.24006266666666667,0.012632666666666662,18.5,False
1607123577.0717907,12.675778321616667,1.573839184773333,1.2459826081966663,3.7091250000000016,10.154083333333336,-16.532833333333333,0.5273333333333333,0.24201333333333333,0.012921999999999996,18.5,False
1607123577.0867045,12.353843980975,1.2886546112299997,1.2337193923716663,3.5487083333333342,8.696333333333333,-15.744458333333334,0.5262506666666666,0.24396400000000001,0.012921999999999996,18.5,False
1607123577.0985613,12.037114029488333,1.0539984749233333,1.2253644534599992,2.961583333333337,7.126875000000001,-14.473958333333334,0.5256346666666667,0.24585866666666664,0.012991999999999997,18.5,False
1607123577.1103084,11.727163742035,0.91369930981,1.225324573083333,2.939416666666666,6.018833333333335,-13.101666666666668,0.5250186666666667,0.24775333333333333,0.012991999999999997,18.5,False
1607123577.1229763,11.420802688481666,0.8315058534999997,1.1750553582949996,5.191375000000002,6.417833333333334,-12.256125,0.524804,0.2490413333333333,0.013150666666666663,18.5,False
1607123577.1349702,11.102397761175,0.7593223717333332,1.0180064349816664,9.963916666666668,7.707,-12.420041666666668,0.5245893333333335,0.2503293333333333,0.013150666666666663,18.5,False
1607123577.1465702,10.776176280041666,0.6712066794883333,0.7583253623166666,16.268000000000004,9.118375000000002,-13.729333333333335,0.5241413333333335,0.2522613333333333,0.013360666666666663,18.5,False
1607123577.1587882,10.443374536758336,0.5391428121566667,0.44558344849666676,22.772749999999995,10.357958333333334,-15.865208333333335,0.5236933333333335,0.25419333333333327,0.013360666666666663,18.5,False
1607123577.17053,10.127920757324999,0.36091740883333334,0.11086744713333346,28.174416666666666,11.146625,-18.28108333333334,0.5232453333333335,0.25612533333333326,0.013360666666666663,18.5,False
1607123577.182476,9.843154927736665,0.1544766390183334,-0.18779669372333327,31.553083333333337,10.815291666666667,-20.184208333333334,0.5228346666666668,0.25871066666666664,0.013710666666666661,18.5,False
1607123577.194695,9.59751174765833,-0.04073780476500004,-0.4241477460383332,32.778375,9.401000000000002,-21.339791666666663,0.5224240000000001,0.261296,0.013710666666666661,18.5,False
1607123577.2068157,9.422735996916664,-0.203389921,-0.5700301638849999,31.829291666666663,7.6667499999999995,-21.91641666666667,0.5218733333333334,0.2643573333333333,0.013701333333333328,18.5,False
1607123577.2186687,9.304291278216665,-0.313639222295,-0.6316254056466665,29.603875000000002,6.168166666666667,-21.999250000000007,0.5213226666666668,0.2674186666666667,0.013701333333333328,18.5,False
1607123577.230584,9.230133717804998,-0.3830709580716666,-0.6334000824083331,27.263833333333334,5.000041666666666,-21.77145833333334,0.5206226666666669,0.27038666666666666,0.014191333333333328,18.5,False
1607123577.2424996,9.186684047426667,-0.4206183327033333,-0.5885545988466665,25.739,4.055041666666665,-21.335125000000005,0.5199226666666669,0.2733546666666667,0.014191333333333328,18.5,False
1607123577.2544765,9.177013056084999,-0.4292923146283333,-0.5076771949666665,25.38404166666667,3.2255416666666665,-20.90695833333334,0.5190453333333336,0.2760146666666667,0.013897333333333328,18.5,False
1607123577.2722576,9.208378972333332,-0.4188237157533333,-0.40113676870166665,26.28529166666667,2.6244166666666673,-20.841916666666673,0.5181680000000003,0.2786746666666667,0.013897333333333328,18.5,False
1607123577.2894983,9.249615281806665,-0.40193437623499995,-0.29459634243666666,27.879541666666668,2.487333333333334,-21.338041666666673,0.5168800000000002,0.2815586666666667,0.014060666666666662,18.5,False
1607123577.3130352,9.292945311055002,-0.4001596994733333,-0.20315063874,29.356541666666665,2.6372500000000003,-22.482541666666673,0.5155546666666669,0.28450800000000004,0.013985999999999995,18.5,False
1607123577.3248143,9.333264371865003,-0.42281175342000005,-0.12729816232,30.189833333333333,3.0379999999999994,-24.049958333333336,0.5146120000000003,0.28749466666666673,0.013985999999999995,18.5,False
1607123577.348491,9.369635275385003,-0.46783669867666666,-0.07052844613499999,30.34995833333333,3.6610000000000005,-25.66229166666667,0.5135200000000003,0.29063066666666676,0.014065333333333327,18.5,False
1607123577.367457,9.403892518941669,-0.5475775118216666,-0.03613162126000001,29.871624999999998,4.514708333333332,-27.294458333333335,0.5123066666666669,0.29409333333333343,0.013897333333333328,18.5,False
1607123577.3861141,9.433882562195004,-0.6492525321333333,-0.03996013742000003,29.23054166666667,5.334291666666666,-28.849916666666665,0.5108506666666669,0.29747200000000007,0.013887999999999996,18.5,False
1607123577.4083588,9.45631527407,-0.7591628502266666,-0.07750751205166664,28.426416666666668,6.162916666666667,-30.442416666666666,0.5092360000000002,0.3011400000000001,0.014060666666666662,18.5,False
1607123577.4252949,9.457531625558337,-0.8748358827483335,-0.13164512337666662,27.813916666666668,6.6202499999999995,-31.904833333333332,0.507798666666667,0.3048360000000001,0.014060666666666662,18.5,False
1607123577.4400907,9.435457837073336,-0.9890333413333335,-0.19130616687,27.00775,7.081666666666668,-33.34683333333333,0.5062213333333336,0.30872800000000006,0.014228666666666662,18.5,False
1607123577.4520097,9.389396002023336,-1.1133604155916668,-0.258843584755,25.860625000000006,7.428166666666666,-34.77891666666666,0.5042893333333336,0.312284,0.014228666666666662,18.5,False
1607123577.4637387,9.334460783164998,-1.2427522976866667,-0.32079774990666665,24.352708333333336,7.5080833333333326,-36.120875,0.5019000000000002,0.31625066666666674,0.014069999999999996,18.5,False
1607123577.4753845,9.288698050939997,-1.3611770761983333,-0.37292140221000003,22.483708333333336,7.3925833333333335,-37.420833333333334,0.4997066666666668,0.3202826666666667,0.014069999999999996,18.5,False
1607123577.4871392,9.210751854745,-1.50077833472,-0.4070390644483333,20.309625000000004,7.056875000000002,-38.838625,0.4973640000000001,0.32467866666666667,0.013579999999999997,18.5,False
1607123577.4988184,9.162217436341667,-1.6175480776,-0.4257030807283334,18.18570833333334,6.596916666666669,-40.205375,0.4954693333333334,0.32886933333333335,0.013579999999999997,18.5,False
1607123577.5106783,9.113064872099999,-1.7482958925016665,-0.4295116567,15.837791666666671,6.276375000000001,-41.46858333333333,0.49359333333333333,0.33310666666666666,0.014265999999999996,18.5,False
1607123577.5225413,9.055298146498334,-1.8788044251433333,-0.42249271040666675,13.409083333333337,6.224166666666667,-42.60695833333332,0.4912039999999999,0.3369799999999999,0.014265999999999996,18.5,False
1607123577.5345232,8.990492534415003,-2.0096519409866667,-0.41479579771,10.89054166666667,6.4790833333333335,-43.63158333333332,0.4883853333333333,0.3412173333333332,0.014153999999999995,18.5,False
1607123577.5462391,8.924570271785,-2.1392232847766666,-0.4205784523266667,8.275458333333331,7.057166666666668,-44.64249999999998,0.4855386666666666,0.34529599999999994,0.014153999999999995,18.5,False
1607123577.558306,8.872307038163335,-2.2755742925999995,-0.44301116420166664,5.429666666666668,7.822500000000002,-45.825208333333315,0.48269199999999995,0.3493746666666666,0.014055999999999994,18.5,False
1607123577.570192,8.826025861041666,-2.4149163286733333,-0.47503510666499993,2.2785000000000006,8.444333333333335,-47.080249999999985,0.4797146666666666,0.35317333333333334,0.014055999999999994,18.5,False
1607123577.5822759,8.78369284121,-2.5746771176,-0.5113461896199999,-1.1097916666666643,8.90225,-48.35949999999998,0.47673733333333324,0.35697200000000007,0.014055999999999994,18.5,False
1607123577.5940497,8.74086131667,-2.760160749476667,-0.5363113054133333,-4.337666666666667,9.101750000000001,-49.494374999999984,0.4735266666666666,0.3607520000000001,0.014055999999999994,18.5,False
1607123577.606098,8.708737673265,-2.955076090435,-0.5361916642833332,-7.124250000000001,9.246708333333334,-50.36908333333333,0.47030666666666665,0.3644573333333334,0.014055999999999994,18.5,False
1607123577.617946,8.676474448541665,-3.165804000741667,-0.5161118946316666,-9.353166666666668,9.642791666666664,-50.98041666666666,0.46698399999999995,0.3681813333333334,0.014298666666666661,18.5,False
1607123577.6298656,8.637890184116667,-3.3867612276633334,-0.4926422929633333,-10.843875000000002,10.256749999999998,-51.16679166666667,0.4638666666666666,0.3716720000000001,0.014298666666666661,18.5,False
1607123577.6416156,8.609455475553334,-3.6055250338683336,-0.47090748767999996,-11.714500000000003,11.0355,-51.004333333333335,0.46060933333333326,0.37537733333333345,0.014009333333333329,18.5,False
1607123577.6540725,8.592446494905001,-3.8065819528333336,-0.4608775729483333,-12.283833333333332,11.993333333333332,-50.458916666666674,0.45738,0.3787933333333334,0.014009333333333329,18.5,False
1607123577.6660576,8.582855264316667,-3.985585023501667,-0.4645465676016666,-12.709958333333335,12.975666666666665,-49.85458333333334,0.4540573333333333,0.3825826666666668,0.014111999999999994,18.5,False
1607123577.6777296,8.575696736705,-4.151706732506667,-0.4796014097933333,-13.159125000000001,13.950124999999998,-49.27416666666667,0.45100533333333337,0.38604533333333346,0.014111999999999994,18.5,False
1607123577.6896014,8.555995830631666,-4.32095905108,-0.5078765968499999,-13.83754166666667,14.956083333333334,-48.61033333333334,0.4480093333333333,0.38934933333333344,0.014396666666666664,18.5,False
1607123577.7014863,8.52993400448,-4.493341979221667,-0.5412365319316667,-14.508958333333336,15.747083333333334,-47.591833333333334,0.4452466666666667,0.3923826666666667,0.014396666666666664,18.5,False
1607123577.7133493,8.501359714598333,-4.647001070518334,-0.5688736329616666,-15.170750000000002,16.428416666666667,-46.06262500000001,0.4424746666666667,0.3954066666666668,0.014069999999999996,18.5,False
1607123577.728274,8.474580041666666,-4.766442798635,-0.5893920867566665,-15.724041666666668,17.103916666666667,-44.026791666666675,0.43970266666666663,0.39843066666666677,0.014069999999999996,18.5,False
1607123577.7401361,8.456633872166666,-4.852464771105001,-0.6140381595366665,-16.134125,17.909499999999998,-41.96091666666668,0.43701466666666655,0.40128666666666674,0.01456933333333333,18.5,False
1607123577.75252,8.433443433134999,-4.908855623711665,-0.6494519340166665,-16.310000000000002,18.637791666666665,-39.96241666666667,0.4344479999999999,0.40381600000000006,0.01456933333333333,18.5,False
1607123577.7644281,8.412107431618333,-4.949035103203333,-0.68733829185,-16.414708333333337,19.478374999999996,-38.206875,0.43209599999999987,0.40626133333333336,0.01427066666666666,18.5,False
1607123577.776225,8.38913633465833,-4.99729035897,-0.72969125187,-16.146375,20.156499999999998,-36.555458333333334,0.429884,0.4082026666666667,0.01427066666666666,18.5,False
1607123577.787962,8.36909644538333,-5.054578520051667,-0.7747161971266666,-15.695458333333333,20.91016666666667,-34.993,0.427672,0.41014400000000006,0.01427066666666666,18.5,False
1607123577.7996807,8.348418470081665,-5.125645351271668,-0.8292526122183334,-15.026958333333335,21.382083333333338,-33.255250000000004,0.4255999999999999,0.4121040000000001,0.014587999999999997,18.5,False
1607123577.8115387,8.342476293958331,-5.1819165627483335,-0.8769495427116666,-14.221958333333331,21.708750000000002,-31.33695833333333,0.42352799999999996,0.414064,0.014587999999999997,18.5,False
1607123577.8230848,8.339565026461665,-5.225485874256667,-0.9272187574999999,-13.400916666666664,22.035124999999997,-29.361208333333334,0.42211866666666664,0.4153613333333334,0.01456933333333333,18.5,False
1607123577.8350487,8.339824248909999,-5.262853787193333,-0.9784650415166666,-12.585416666666665,22.198750000000004,-27.376125000000002,0.42070933333333344,0.41665866666666673,0.01456933333333333,18.5,False
1607123577.8467865,8.339844189098333,-5.2953762343649995,-1.034596671675,-11.875208333333331,22.347500000000004,-25.497500000000002,0.41945866666666665,0.418096,0.014555333333333332,18.5,False
1607123577.8586316,8.340143291923333,-5.3333622931399995,-1.1058429645899999,-11.342916666666667,22.430041666666668,-23.728833333333338,0.418208,0.41953333333333337,0.014555333333333332,18.5,False
1607123577.8704476,8.33288506337,-5.375934595231666,-1.18169544101,-10.869541666666668,22.289458333333336,-22.007708333333333,0.4170413333333334,0.4208213333333333,0.014676666666666664,18.5,False
1607123577.8824346,8.321220053195,-5.424548774388332,-1.257986601573333,-10.343958333333337,21.90475,-20.186541666666674,0.41587466666666667,0.42210933333333334,0.014676666666666664,18.5,False
1607123577.8942406,8.308378571908333,-5.48028160078,-1.3279966028116665,-9.664083333333336,21.25316666666667,-18.328625000000006,0.41507200000000005,0.4227346666666667,0.014587999999999997,18.5,False
1607123577.9062674,8.302456335973334,-5.529992490294999,-1.38221397489,-8.848000000000003,20.278708333333334,-16.211416666666672,0.4142693333333335,0.42336,0.014587999999999997,18.5,False
1607123577.9180503,8.311070497333334,-5.544568767966665,-1.4001202640133334,-7.936833333333334,19.151708333333335,-13.853875000000007,0.4134666666666667,0.4239853333333334,0.014587999999999997,18.5,False
1607123577.9301882,8.323692636548333,-5.536473051503333,-1.4083555617950003,-6.896750000000002,18.346125000000008,-11.549708333333339,0.4131400000000001,0.4246946666666667,0.014391999999999997,18.5,False
1607123577.9421442,8.337531127251665,-5.517988496918332,-1.4223136936283334,-5.742333333333334,17.791083333333336,-9.42054166666667,0.41281333333333337,0.42540400000000006,0.014391999999999997,18.5,False
