window size: 20,acc threshold: 14
time,aX,aY,aZ,gX,gY,gZ,faX,faY,faZ,fgX,fgY,fgZ,temp,punchReg,punchCount
0.0864415168762207,0.64546389635,-9.954740221649999,2.0829520732999995,2.12625,2.24,17.430000000000003,1.5386148420825,-9.404570485345001,4.0846977296124996,-11.138312500000003,-9.17,5.320875000000001,16.5,False,0
0.09658956527709961,1.1928220661,-9.748359272399998,1.8400805794,-8.9075,0.9362500000000001,17.38625,1.2984352736075002,-9.45607599181,3.4317263523549997,-5.893125,-7.375812499999999,2.6573749999999996,16.5,False,0
0.10667634010314941,0.6747759731999999,-9.9014999188,1.87178547885,-18.961250000000003,3.2812500000000004,13.860000000000001,1.0437791284025,-9.46301517735,2.6762225266874995,1.3470625000000005,0.6212500000000011,4.046437500000001,16.5,False,0
0.11679434776306152,-1.0432706536,-10.028319516599998,1.8526428980499998,-28.577500000000004,-2.1525000000000003,0.5162500000000001,0.9624231600024998,-9.597402076622501,2.6684458532375,5.285875,3.5564375,5.1576875,16.5,False,0
0.12681031227111816,1.8257236438,-9.41994437055,1.45663075775,-15.715000000000002,-3.3600000000000003,3.31625,0.9518947405625001,-9.683753062200001,2.570908422005,6.2068125,4.2818125,5.691437500000001,16.5,False,0
0.13679122924804688,0.10169496049999999,-10.975877266200001,1.14197458585,-18.016250000000003,-11.471250000000001,-3.5525,0.9617352235050001,-9.781380224280003,2.5054348136125,6.862625000000001,4.3925,6.3021875000000005,16.5,False,0
0.14681625366210938,1.4793625724500001,-10.305886938199999,1.62652116235,-19.477500000000003,-6.43125,-10.613750000000001,0.8921339961275001,-9.9185188695425,2.3870200051950006,6.286,3.9948124999999997,6.367812500000001,16.5,False,0
0.15698528289794922,1.1862418039499998,-9.1238325738,2.79661141375,-20.44,-1.2600000000000002,-11.821250000000001,0.8478368677449998,-10.0470134431625,2.2715962250275004,4.678625000000002,3.523624999999999,6.041000000000001,16.5,False,0
0.16698527336120605,1.5702898312499998,-9.6083791503,1.9172491082499998,-4.62875,2.2662500000000003,-17.001250000000002,0.8842975021124998,-10.0608319936775,2.2557138650199997,2.7842500000000014,3.0826249999999993,5.4359375000000005,16.5,False,0
0.17702412605285645,2.13738878745,-9.0149591455,2.38624233785,10.850000000000001,6.781250000000001,-7.9887500000000005,0.9191429812250002,-10.072227811309999,2.23525523179,1.6826250000000011,2.7934374999999996,4.787125,16.5,False,0
0.1871652603149414,3.0406793189499997,-9.567701166099999,2.6889343967499997,9.86125,5.171250000000001,-2.86125,1.1438290233650001,-10.094301599795,2.2478175504399998,1.3313124999999988,2.8888125000000002,4.584125000000001,16.5,False,0
0.19729208946228027,-0.0023928226,-9.128618219,2.5603201819999994,14.81375,5.643750000000001,5.486250000000001,1.14412812619,-10.018269661679998,2.2232312982249995,1.001,2.6250000000000004,4.662875,16.5,False,0
0.20746278762817383,0.7974081314499999,-9.836893708599998,2.71645185665,5.1537500000000005,9.93125,10.42125,1.1250154556725003,-9.991858882232497,2.2254147488475,0.7262499999999996,2.7212500000000004,4.973062500000001,16.5,False,0
0.21766400337219238,1.2053843847499999,-9.20100110265,2.428714939,-4.43625,11.138750000000002,5.285,1.1165807560075003,-9.949117088539998,2.2323838446699993,0.003937499999998717,3.0366875,5.139312500000001,16.5,False,0
0.22774195671081543,1.1736794852999999,-9.687342296099999,2.42572391075,-8.8375,8.61875,-2.8875,1.1173584233525002,-9.879156937772498,2.2383359908875,-1.1235000000000004,3.234875000000001,4.778375,16.5,False,0
0.24010586738586426,1.2574282763,-9.625128908499999,2.39820645085,-5.031250000000001,4.567500000000001,-5.617500000000001,1.1385947239275,-9.7769834127525,2.257209379145,-2.3454375,3.2720625000000005,4.018437499999999,16.5,False,0
0.2506539821624756,0.5461617584499999,-9.942177903,2.715853651,1.65375,4.112500000000001,-4.90875,1.1282457661825,-9.74309506268,2.292144589105,-3.3678750000000006,3.0305625000000003,3.0218125,16.5,False,0
0.260617733001709,-0.022731814700000002,-9.76690364755,2.6787649007,6.816250000000001,9.135000000000002,-6.83375,1.0750652838975001,-9.735587581772501,2.3112572596225,-3.996562500000001,2.954,2.016000000000001,16.5,False,0
0.27057576179504395,0.6185446420999999,-9.367900479,2.6416761503999995,17.08875,14.026250000000001,-5.34625,1.0398309711124998,-9.714082088655001,2.3251954512674997,-4.000937500000001,3.2716250000000002,0.9944375000000001,16.5,False,0
0.28064465522766113,1.3405788616499998,-9.3451686643,2.29890431295,19.57375,13.195000000000002,0.83125,1.0387542009424997,-9.664431019705,2.3344078182774997,-3.4562500000000007,3.7441250000000004,0.17149999999999974,16.5,False,0
0.290541410446167,0.92183490665,-9.40798025755,2.07158616595,10.526250000000001,8.3475,7.262500000000001,1.0751550147449995,-9.6163651957275,2.33013064788,-3.0165625000000005,4.050375000000001,-0.3421249999999999,16.5,False,0
0.300398588180542,0.43250268495,-9.67597638875,1.98065890715,2.9925,8.260000000000002,13.020000000000001,1.0743474371174997,-9.591180737862498,2.3222343333,-2.4731875000000008,4.4550625,-0.720125,16.5,False,0
0.3102846145629883,-0.3493520996,-9.96909715725,2.0464615286499996,-5.486250000000001,8.3125,14.455000000000002,0.9975677419399999,-9.608379150299998,2.3198116004174993,-1.778000000000001,4.714062500000002,-0.7813749999999995,16.5,False,0
0.32022953033447266,0.3397808092,-9.714859756,2.5680968554499994,-5.3725000000000005,12.381250000000001,15.23375,0.9963115100749999,-9.5872924011375,2.3344975491249995,-1.1191250000000001,5.098187500000001,-0.6286874999999997,16.5,False,0
0.3301713466644287,0.9786644433999999,-9.43430130615,2.2839491717,-0.9450000000000001,15.198750000000002,22.715000000000003,1.0492826203824999,-9.538807833204997,2.384028976945,-0.016625000000000067,6.024812500000001,0.31062500000000004,16.5,False,0
0.35048651695251465,0.20817556619999997,-8.778667913749999,2.4161526203499997,-11.488750000000001,22.172500000000003,12.20625,0.87278204335,-9.524839731277499,2.4041885073499993,0.17368750000000013,7.3294375,0.8890000000000005,16.5,False,0
0.3704521656036377,1.5445669883,-9.19382263485,3.3750762772999994,-11.908750000000001,20.606250000000003,8.11125,0.9560821801124998,-9.4658566541875,2.4798615220749993,0.32243749999999993,8.794625000000002,1.5448125000000004,16.5,False,0
0.38838839530944824,0.9026923258499999,-9.1058864043,2.42093826555,-17.745,32.970000000000006,19.01375,1.03190474625,-9.330273343614998,2.5326232604049994,0.5026874999999997,10.061625000000003,2.5046875,16.5,False,0
0.40105724334716797,0.15134602945,-9.482755963799999,2.6889343967499997,-8.645000000000001,39.29625,30.161250000000003,0.9824929595599998,-9.3399343648625,2.5285853722674996,0.6496874999999996,11.802000000000003,4.5294375,16.5,False,0
0.4230320453643799,-0.37866417645,-9.4564349152,2.2749760869499998,28.542500000000004,45.28125000000001,37.861250000000005,0.9235697030349999,-9.314929368692498,2.496491639145,1.3540625000000002,13.868312500000005,6.976812499999999,16.5,False,0
0.4468207359313965,1.0983055734,-9.202197513949999,2.6147568961499994,24.01,31.780000000000005,39.48875,0.6666104660774999,-9.327880521015,2.4750459665925,2.3003750000000003,15.617875000000002,9.452625000000001,16.5,False,0
0.46671390533447266,1.2981062605,-10.3298151642,2.1918255016,-12.013750000000002,27.51,24.080000000000002,0.6823133643899998,-9.369874557645002,2.4620649039875,2.3568125,17.0786875,11.0770625,16.5,False,0
0.47675180435180664,0.9068797653999999,-9.69751179215,1.6025929363499998,-8.758750000000001,23.371250000000003,14.778750000000002,0.6241378649274999,-9.420273383657499,2.4025135315300004,1.3203749999999999,17.935750000000002,11.630500000000001,16.5,False,0
0.4867856502532959,1.1593225497,-10.337591837649999,2.06919334335,-14.37625,17.9375,15.23375,0.7216752961599999,-9.441300312254999,2.3652154092525004,0.6173125,18.400375,11.893437500000001,16.5,False,0
0.49717068672180176,1.2729816231999997,-9.92602635045,1.7653048731499998,-13.09875,14.586250000000001,19.083750000000002,0.7500900645349999,-9.5090471021175,2.3357537809900006,0.27649999999999997,18.73725,12.5663125,16.5,False,0
0.5074357986450195,0.41754754369999997,-10.984252145299997,2.3473589705999998,-11.31375,15.137500000000001,30.913750000000004,0.7723732249974999,-9.611549640245,2.2970797857175005,-0.015312500000000017,19.10825,13.944437500000001,16.5,False,0
0.5181684494018555,1.80119721215,-9.80638522045,2.3018953412000003,-6.116250000000001,17.2375,40.775000000000006,0.768275516295,-9.62465034398,2.2866710074075,-0.33162499999999995,19.78725,16.002000000000002,16.5,False,0
0.5282196998596191,1.3322039825499998,-9.05264610145,2.2229321954,9.1875,21.21,49.105000000000004,0.799023286705,-9.635747058787501,2.2553250313475,-0.6295625000000001,20.32625,18.472125000000002,16.5,False,0
0.5381956100463867,1.3100703735,-10.576275892,3.3338000874499993,13.08125,31.727500000000003,45.4125,0.8735298004125,-9.7076812882,2.2642981160975,-0.7507499999999998,20.919937500000003,21.249375000000004,16.5,False,0
0.548236608505249,0.9930213789999999,-9.7064848769,1.9046867895999997,15.74125,24.867500000000003,42.28875000000001,0.8941080747725,-9.693832827402499,2.3054546648175,-1.2293750000000003,21.770437500000003,23.905875,16.5,False,0
0.5582985877990723,0.39122649509999996,-9.96072227815,2.6608187311999996,2.66875,11.961250000000001,24.473750000000003,0.8607581097850001,-9.723354276230001,2.3143679290024997,-1.4441875000000002,22.211000000000002,25.485250000000004,16.5,False,0
0.5684463977813721,1.0947163395,-9.9936235889,2.9162525437499998,-6.16,13.440000000000001,9.2925,0.8707780544224999,-9.757182805737502,2.3524736289074997,-1.9608750000000008,22.3488125,25.781875000000003,16.5,False,0
0.5785343647003174,1.3447663011999997,-9.584450924299999,2.81575399455,-12.433750000000002,16.4675,2.1875,0.9308977222474999,-9.7322974506975,2.3616859959175,-2.517375000000001,22.707125000000005,25.289250000000003,16.5,False,0
0.5885722637176514,1.1748758966,-9.61256658985,2.5088744961,-17.648750000000003,17.771250000000002,-2.31875,0.9849456027249998,-9.721140915325,2.3793031523099994,-2.8962500000000007,23.073312500000004,24.622500000000002,16.5,False,0
0.5986323356628418,1.5559328956499998,-9.740582598949999,2.55613274245,-19.0225,19.512500000000003,-0.7087500000000001,0.9263214490249998,-9.79071223242,2.3992832210199997,-3.556,23.257937500000004,23.560250000000003,16.5,False,0
0.6086752414703369,1.8173487646999997,-9.65803021925,2.5866412305999997,-21.105,17.333750000000002,8.61875,1.0967203284274996,-9.7931947858675,2.4047568027174995,-4.078812500000001,23.276750000000007,22.924562500000004,16.5,False,0
0.6186721324920654,1.59182523465,-9.597013242949998,2.8217360510499994,-22.47875,14.84875,17.080000000000002,1.1084750694499999,-9.801300472425002,2.410978141477499,-4.398187500000001,23.068500000000004,23.222937500000004,16.5,False,0
0.628716230392456,1.2011969452,-8.854640031299999,2.83728939795,-22.6625,13.308750000000002,16.598750000000003,1.0961520330599999,-9.862078166465,2.4505195349424995,-4.5408124999999995,22.703187500000006,23.727375000000002,16.5,False,0
0.6386620998382568,1.7682959014,-8.04287496425,2.95573411665,-22.146250000000002,11.8825,8.51375,1.11541425499,-9.823673363734999,2.4435803494024997,-4.8374375,21.61337500000001,23.163875000000004,16.5,False,0
0.6486160755157471,1.9597217093999997,-7.864609680549999,2.7804598611999998,-22.548750000000002,15.128750000000002,1.5137500000000002,1.18037938858,-9.800133971407497,2.4738794655749996,-6.752375000000001,19.947375,21.695625000000003,16.5,False,0
0.6585910320281982,2.3341984463,-7.962715407149999,2.8558337730999996,-23.17875,19.048750000000002,6.728750000000001,1.2822239004924998,-9.681509791012498,2.4728326056874996,-9.550187500000002,18.52375,19.649875,16.5,False,0
0.6685550212860107,2.8995027855499993,-8.27856799035,3.17228456195,-20.95625,46.50625,21.53375,1.3704293235849998,-9.608498791429998,2.5224238540724997,-11.5793125,18.457250000000005,18.616062500000005,16.5,False,0
0.6785237789154053,2.9144579268,-9.11007384385,2.9042884307499994,-28.840000000000003,53.480000000000004,44.642500000000005,1.5928720945375,-9.499475811717497,2.6034208990825,-12.343187500000003,19.854625000000006,19.261375000000005,16.5,False,0
0.6884558200836182,1.7629120505499998,-8.6799639815,2.7595226634499994,-44.31,42.11375,47.73125,1.5921243374749998,-9.500791864147498,2.6588147422725,-13.60625,21.253750000000004,20.812750000000005,16.5,False,0
0.700894832611084,3.3595229304,-8.306683655899999,2.3712871966,-60.611250000000005,33.25,35.542500000000004,1.6401004306049998,-9.433643279935,2.7018556387899997,-15.495812500000003,22.305937500000006,22.184750000000005,16.5,False,0
0.7108087539672852,2.60279278315,-7.95912617325,3.1609186545999997,-65.20500000000001,32.795,25.33125,1.7266308778775,-9.352197580687498,2.7921547816575,-18.0735625,23.200187500000006,22.480062500000003,16.5,False,0
0.7207198143005371,4.043870194,-8.209176134949999,2.9198417776499994,-65.24875,36.505,16.861250000000002,1.8404095925074997,-9.256335125275001,2.8531418476750003,-20.898500000000002,24.0821875,21.798437500000006,16.5,False,0
0.7307107448577881,1.6947166064499999,-8.63390214645,3.0837501257499995,-51.68625000000001,39.0775,17.036250000000003,1.9733907085025,-9.149136672795002,2.8629225100525,-23.4408125,25.144000000000002,20.5905,16.5,False,0
0.7406556606292725,2.5010978226500002,-7.666603610399998,2.0530417908,-42.087500000000006,38.158750000000005,2.7825,1.9834405634225,-9.007092741202502,2.8246971690175,-26.452125000000002,25.808562500000004,18.727625,16.5,False,0
0.7506446838378906,1.7814564256999998,-8.8642113217,1.9381863059999997,-21.341250000000002,50.365,-6.44,2.021396711915,-8.9602532388075,2.773700137355,-28.399875,26.427625,16.197125,16.5,False,0
0.7606995105743408,1.52004055665,-9.23210779645,1.3657034989499999,-15.767500000000002,32.2175,-11.961250000000001,2.0962023284474998,-8.908239257539998,2.7510580535025,-29.928500000000003,27.6325,13.907687500000003,16.5,False,0
0.7707045078277588,1.5212369679499997,-9.8273224182,1.6492529770499997,-21.245,10.2375,-19.731250000000003,2.1478274760425,-8.8648394376325,2.67433817889,-30.597,28.2695,12.341437500000001,16.5,False,0
0.7807455062866211,2.24985144965,-9.746564655449998,2.2265214293,-24.867500000000003,-2.3275,-18.208750000000002,2.1875782414850002,-8.882486504307497,2.6305794355925,-31.237937500000005,27.6644375,10.982562500000004,16.5,False,0
0.7907445430755615,2.5070798791499995,-10.414760366499998,2.56450762155,-30.5725,-5.398750000000001,-5.871250000000001,2.2482362943950003,-8.914580237429998,2.62719957367,-31.9029375,26.546625,10.323250000000002,16.5,False,0
0.800896406173706,2.3605194948999997,-10.0725867347,2.63031024305,-29.058750000000003,-4.6725,9.59875,2.3178674320550003,-8.934590216422498,2.62624244463,-32.493125000000006,25.3806875,10.4881875,16.5,False,0
0.8112003803253174,1.51884414535,-9.549754996599999,3.1184460534499996,-27.15125,-6.0375000000000005,19.34625,2.3647368447325,-8.9313599059125,2.6197818236100003,-32.879875000000006,24.159187499999998,11.040312500000002,16.5,False,0
0.8215582370758057,2.6392833278,-8.673981925,2.03389921,-31.893750000000004,-15.408750000000001,24.500000000000004,2.36123734168,-8.898757697987499,2.6503202220425,-33.427625,22.840124999999997,11.453750000000003,16.5,False,0
0.8319423198699951,2.8085755267499994,-8.757132510349999,2.07756822245,-11.506250000000001,-29.338750000000005,20.62375,2.4358634965175,-8.85009366836,2.6345275928825,-33.378625,21.258125,11.792375000000002,16.5,False,0
0.8422942161560059,2.8869404668999996,-9.392426910649998,3.3415767608999998,-5.73125,-48.1075,20.76375,2.5119253449150003,-8.883054799675,2.616491692535,-32.6755625,18.322499999999998,11.966937500000004,16.5,False,0
0.852869987487793,2.84327145445,-10.25982510315,3.14955274725,10.342500000000001,-43.24250000000001,33.88,2.5756043363575,-8.968957131015,2.630130781355,-31.222187499999997,15.601687499999997,13.092187500000003,16.5,False,0
0.8632233142852783,2.83370016405,-9.990632560649999,2.9138597211499997,16.642500000000002,-44.6075,39.532500000000006,2.6058137216825,-9.0872522983025,2.6488845284825007,-29.490562499999992,12.520812499999998,14.852687500000002,16.5,False,0
0.873427152633667,3.14955274725,-9.773483909699998,2.9970103064999996,21.315,-39.681250000000006,38.99875,2.6202304778474996,-9.176115747609998,2.6241188145725007,-27.298249999999996,8.893499999999998,16.215500000000002,16.5,False,0
0.8839221000671387,3.12562452125,-9.4923272542,3.0843483314,26.503750000000004,-41.081250000000004,37.1525,2.5872095259675,-9.2305225514775,2.6181367580725,-24.899874999999994,4.238062499999995,16.495937500000004,16.5,False,0
0.8949720859527588,2.3072791920499998,-9.171090820149999,3.38285295075,41.720000000000006,-32.322500000000005,25.2525,2.6135006642849996,-9.204261323442498,2.6283959849700005,-21.345625000000005,-0.15925000000000225,15.946437500000002,16.5,False,0
0.9052228927612305,2.9270202454499996,-8.7720876516,3.00239415735,62.46625000000001,-17.508750000000003,5.906250000000001,2.60757842835,-9.197471689314998,2.6333311815825,-16.26975000000001,-3.2401250000000017,14.605500000000001,16.5,False,0
0.9154369831085205,2.38504592655,-9.26560731285,2.8725835312999997,76.75500000000001,-14.078750000000001,-7.175000000000001,2.584637241672499,-9.222715967745,2.603331168235,-9.586937500000005,-5.649,13.13025,16.5,False,0
0.9257268905639648,2.90189560815,-8.819345897949999,1.81555414775,112.5425,3.5525,-25.1475,2.531247387409999,-9.284091867434999,2.5339094025524993,-1.8891250000000006,-7.9804375000000025,11.331250000000002,16.5,False,0
0.9364538192749023,3.1112675856499994,-8.53938565375,2.3700907852999995,158.88250000000002,29.382500000000004,-38.85875,2.5054049033299997,-9.2937229784,2.523141700852499,7.840437499999998,-8.960875,8.8725,16.5,False,0
0.9468569755554199,0.4701896408999999,-7.438687257749999,2.98444798785,149.62500000000003,44.633750000000006,-62.370000000000005,2.5494328391699996,-9.3862953027375,2.5800011478849996,18.9896875,-9.0755,5.850250000000001,16.5,False,0
0.9570746421813965,3.0837501257499995,-8.062017545049999,1.8705890675499997,79.58125000000001,11.97,-85.98625000000001,2.553231445047499,-9.4930151906975,2.660549538657499,25.599875,-9.88925,2.1901249999999997,16.5,False,0
0.9672427177429199,3.5653056739999998,-9.112466666449999,2.8899314951499995,49.43750000000001,10.062500000000002,-86.53750000000001,2.610748918294999,-9.5389872949,2.663839669732499,29.8090625,-11.564000000000002,-1.6493750000000005,16.5,False,0
0.9775457382202148,2.6542384690499996,-10.1048898398,2.33718947455,39.41875,21.09625,-72.94875,2.7068506559674996,-9.553463871629999,2.7245276329249997,32.73856249999999,-12.134500000000003,-4.774875000000001,16.5,False,0
0.9878067970275879,2.34197511975,-9.90209812445,1.4889338628500002,42.813750000000006,31.456250000000004,-66.61375000000001,2.7154648173275,-9.5714997719775,2.7423541612949998,35.8780625,-10.942312500000002,-7.210874999999999,16.5,False,0
0.9980394840240479,2.17328112645,-10.223334558499998,1.7084753364,76.64125000000001,45.14125000000001,-62.5275,2.7065814634249996,-9.516823775567499,2.6674588139149993,39.9669375,-8.883875,-9.698062500000002,16.5,False,0
1.008406400680542,2.7822544781499996,-9.5928258034,1.4787643668,55.53625,26.442500000000003,-54.057500000000005,2.75306204243,-9.385876558782499,2.7343681158674995,45.2344375,-6.593562500000002,-12.9115,16.5,False,0
1.018775463104248,1.1940184774,-9.1274218077,0.57966127485,76.1075,30.021250000000002,-40.08375,2.711726032015,-9.4104628109975,2.6824737757299997,49.618625,-4.991875,-15.920625000000005,16.5,False,0
1.0290193557739258,4.03370069795,-9.667003304,1.0677970852499998,66.84125,17.220000000000002,-32.410000000000004,2.7462724083024996,-9.477551574645,2.6607589106349994,55.00250000000001,-3.1727499999999997,-18.942437500000004,16.5,False,0
1.03922438621521,2.2749760869499998,-10.59362385585,0.87158563205,71.995,19.38125,-28.183750000000003,2.7042185511075,-9.574789903052501,2.5986352538824997,59.43481250000001,-1.4284374999999987,-21.674625,16.5,False,0
1.049513339996338,1.4452648504,-9.97986485895,1.43569356,71.18125,22.426250000000003,-38.001250000000006,2.6754448593425004,-9.547332263717502,2.5261028188199997,63.350875000000016,1.8270000000000006,-24.2816875,16.5,False,0
1.0598154067993164,-0.40259240244999994,-8.84327412395,-1.9740786449999996,16.68625,-4.0687500000000005,-86.555,2.487638195525,-9.60012391233,2.4695723848949998,64.93768750000001,4.7053125,-28.259000000000004,16.5,False,0
1.0700623989105225,2.8121647606499995,-10.607980791449998,0.04247260115,-13.55375,-25.278750000000002,-62.76375000000001,2.5096521634449993,-9.552536652872503,2.326960157935,64.42012500000001,6.155187500000001,-34.24925,16.5,False,0
1.0804932117462158,0.5012963347,-10.31366361165,1.7347963849999999,-46.681250000000006,-20.25625,-34.0375,2.4703799625224994,-9.639545664665002,2.2175782548325,62.045812500000025,7.021875000000001,-38.720062500000004,16.5,False,0
1.0909101963043213,4.27896501445,-10.86640563225,2.2229321954,-16.563750000000002,-23.310000000000002,-45.228750000000005,2.366740833659999,-9.571529682260003,2.1119351370425,58.12843750000002,7.942375000000001,-43.05918750000001,16.5,False,0
1.1150619983673096,0.9074779710499999,-10.931011842450001,1.9268203986499999,7.498750000000001,-7.5600000000000005,-3.08,2.30847560335,-9.659047168855,2.0784356206425,56.13300000000002,9.183125,-45.638250000000006,16.5,False,0
1.1253831386566162,1.43030970915,-9.848857821599998,1.37048914415,19.958750000000002,-3.5612500000000002,5.0925,2.2679770808449993,-9.7516194931925,2.0140088721375005,54.369875,10.1045,-46.340437500000014,16.5,False,0
1.1354990005493164,1.1377871462999998,-9.475577496,1.3220344865,22.785000000000004,1.8200000000000003,0.026250000000000002,2.1894027687174997,-9.779017311962502,1.9275083351475,52.16268750000002,10.861812500000003,-46.15931250000001,16.5,False,0
1.146310806274414,1.0348957745,-9.870991430649998,1.35972144245,2.1,8.137500000000001,-2.9050000000000002,2.1339491049625003,-9.794750120557499,1.8751055202074998,48.454000000000015,11.620437500000003,-45.59537500000001,16.5,False,0
1.156641960144043,1.13001047285,-10.16949605,1.1886346265499999,-30.651250000000005,12.81,-4.2875000000000005,2.0483458764475,-9.876016358109998,1.8396020148799999,40.70237500000001,11.217937500000001,-44.28331250000001,16.5,False,0
1.166989803314209,1.2478569859,-10.3118689947,1.4847464232999996,-58.96625,18.497500000000002,0.6125,1.9665113435275,-9.874191830877498,1.7377874132499997,29.824375000000003,10.252375,-41.95537500000001,16.5,False,0
1.1774938106536865,1.2155538808,-9.900303507499999,1.4015958379499998,-71.2425,24.176250000000003,3.8237500000000004,1.923171344185,-9.86153978138,1.634955862015,21.45018750000001,9.999500000000001,-38.1110625,16.5,False,0
1.1877367496490479,1.4979069475999998,-9.77767134925,1.6683955578499998,-68.355,27.737500000000004,7.09625,1.8033806627725,-9.867581658445,1.605883067425,14.571812500000002,10.7975,-33.52343750000001,16.5,False,0
1.1981306076049805,1.4488540842999997,-9.945767136899999,1.39920301535,-50.697500000000005,30.17,8.0325,1.6960924794449999,-9.868120043529997,1.5591931164425001,9.286374999999996,11.5836875,-29.225437499999998,16.5,False,0
1.2083966732025146,1.6558332392,-9.607182738999999,1.3962119870999998,-28.402500000000003,33.215,2.77375,1.6684254681324997,-9.847810961712499,1.5299408601575002,5.270562499999997,11.831750000000001,-25.447625000000002,16.5,False,0
1.218651533126831,0.5258227663499999,-9.955338427300001,1.4428720278,-18.523750000000003,34.67625,1.2600000000000002,1.6475780012299999,-9.876046268392498,1.5416956011800003,1.4866249999999988,11.706187500000002,-22.176,16.5,False,0
1.2290375232696533,0.33858439789999994,-10.848459462749998,0.7627122037499999,-26.285000000000004,27.965000000000003,4.235,1.4913565957325,-10.017850917725,1.4061122906074999,-3.158312500000001,11.348312500000002,-18.95775,16.5,False,0
1.239417552947998,1.2221341429499997,-10.81615635765,0.89551385805,-46.838750000000005,14.726250000000002,11.506250000000001,1.4271990397699998,-10.045846942145001,1.3720743891224998,-7.889874999999999,11.113812500000003,-16.347624999999997,16.5,False,0
1.2498176097869873,0.8638089586000001,-10.3872429066,1.2658031554,-62.440000000000005,9.808750000000002,17.465000000000003,1.3783256381649998,-10.03920685943,1.26927274817,-14.363125000000002,10.442250000000001,-13.621562499999996,16.5,False,0
1.2601194381713867,1.68035967085,-10.349555950649997,1.93758810035,-66.29,2.1875,18.29625,1.3211072677425,-10.0404331810125,1.269212927605,-21.071312499999998,9.896250000000002,-11.27,16.5,False,0
1.2704014778137207,0.6352944002999998,-9.553942436149999,1.7407784414999998,-57.24250000000001,-3.4650000000000003,11.523750000000001,1.2703196080574997,-10.113833014267502,1.3060324853624998,-27.851687500000004,8.858937500000001,-8.701875000000001,16.5,False,0
1.2813913822174072,0.7680960546,-8.94616549575,1.8669998336499998,-40.38125,-9.6775,9.6775,1.3465310078674997,-10.053563795030003,1.3023535206149999,-32.1041875,7.794062500000001,-5.398312500000001,16.5,False,0
1.2915081977844238,0.7190431912999999,-8.609973920449999,1.8059828573499999,-26.775000000000002,-15.513750000000002,-1.225,1.2186346398974996,-10.031131083155,1.3929816765899998,-33.936875,7.987437500000001,-0.9029999999999994,16.5,False,0
1.3018872737884521,1.8753747127499998,-10.14257679575,0.9367900479,-16.345000000000002,-22.058750000000003,-12.3375,1.1688938400999997,-9.912297530782501,1.4265709238375002,-33.490625,8.3671875,1.2215000000000007,16.5,False,0
1.31215500831604,1.3824532571500001,-12.046067174049998,1.7162520098499998,-20.48375,-21.157500000000002,-15.023750000000001,1.1995219693799999,-10.04518891593,1.4293824903925,-31.532812500000006,8.3873125,2.9623125000000003,16.5,False,0
1.3224551677703857,1.4105689226999998,-11.712866626999997,1.3603196481,-33.066250000000004,-8.408750000000001,-10.535,1.1735299338875,-10.0970234355025,1.3845170666425,-32.4716875,8.305937500000002,3.1106249999999998,16.5,False,0
1.332822322845459,1.1198409767999997,-11.3371934788,1.6492529770499997,-53.313750000000006,-0.42000000000000004,-12.941250000000002,1.18097759423,-10.115986554607499,1.40877430575,-35.38368750000001,8.461687500000002,2.4014375,16.5,False,0
1.343019962310791,1.1012966016499999,-11.390433781649998,1.7108681589999999,-76.15125,3.98125,-12.180000000000001,1.1395518529675,-10.1982099212,1.420439315925,-39.64143750000001,8.553562500000002,1.318625,16.5,False,0
1.3531241416931152,1.3866406966999998,-11.0010019035,1.8993029387499998,-84.42,1.5837500000000002,-8.4525,1.2030812929974999,-10.213703447535,1.4527723313075,-44.429875,8.557062500000002,1.0871875,16.5,False,0
1.3632349967956543,1.6683955578499998,-9.839286531199999,2.1918255016,-89.26750000000001,-6.43125,1.7500000000000002,1.23182507448,-10.2536934952375,1.48558391121,-48.2234375,7.9677500000000006,1.0049374999999996,16.5,False,0
1.3735218048095703,1.2466605746,-10.801201216399999,3.3116664784,-79.96625,-15.041250000000002,4.2175,1.2306585734625,-10.241669561672499,1.5613466567825,-50.21056250000001,6.5331874999999995,1.2910624999999993,16.5,False,0
1.3838520050048828,1.4787643668,-10.685747525950001,3.08614294835,-67.11250000000001,-15.28625,4.165,1.284766274505,-10.248279734105001,1.6313666281149999,-50.6918125,4.634000000000001,1.4769999999999999,16.5,False,0
1.3940889835357666,1.0085747259,-10.609775408399999,3.2039894614,-61.59125000000001,-7.236250000000001,-0.525,1.2994821334949997,-10.2855180358175,1.72869468737,-50.2823125,2.7435625000000003,1.2683125,16.5,False,0
1.4045348167419434,1.5349956979,-9.687940501749999,3.4947174072999996,-65.82625,0.39375000000000004,-6.405,1.2864711606074999,-10.3054981045275,1.8239589371324996,-50.2919375,1.1068749999999992,0.6444375000000002,16.5,False,0
1.4150497913360596,2.2660030021999997,-9.04307481105,2.7308087922499995,-79.06500000000001,-0.043750000000000004,-8.793750000000001,1.3070793452499998,-10.263025503377502,1.9213767272350002,-51.74225,-0.39156249999999765,-0.09012500000000041,16.5,False,0
1.4253778457641602,2.0105691896499995,-9.637691227149999,3.1088747630499998,-87.64875,-3.0537500000000004,-8.557500000000001,1.3835001170374999,-10.2536336746725,2.01332093564,-54.7981875,-2.1918749999999996,-0.6260625000000001,16.5,False,0
1.4356005191802979,1.6809578765,-9.683154856549999,3.8440695069,-87.64000000000001,-6.790000000000001,-7.07875,1.4888441320025,-10.213464165275001,2.1467507058725,-58.379125,-4.10025,-1.0635625000000004,16.5,False,0
1.445988655090332,1.3543375915999998,-9.157930295849999,3.9008990436499995,-82.80125000000001,-7.883750000000001,-6.6937500000000005,1.52853507688,-10.14353392479,2.32510572042,-60.874187500000005,-5.5908125,-1.6747500000000002,16.5,False,0
1.456491470336914,0.58205409745,-9.367900479,4.4662033829,-68.48625000000001,-11.9525,0.052500000000000005,1.5180066574399997,-10.083803090637499,2.4897618255825003,-61.9819375,-6.7195625,-2.6893125000000007,16.5,False,0
1.478485345840454,0.29132615154999997,-8.6895352719,4.807180603399999,-48.282500000000006,-8.18125,16.5725,1.5197713641075,-9.9943115253975,2.6232813266625,-61.82750000000001,-7.749437499999999,-3.1898125000000004,16.5,False,0
1.4985404014587402,0.72323063085,-7.566703266849999,4.4195433422,-59.298750000000005,-0.35000000000000003,19.57375,1.4834004605874997,-9.8822077865875,2.7765416141924995,-61.153312500000006,-7.993124999999999,-3.1736250000000004,16.5,False,0
1.5168023109436035,0.7465606511999999,-7.6881390138,4.2293139454999995,-66.63125000000001,-6.956250000000001,27.422500000000003,1.49443735483,-9.81129050678,2.9052156495075,-61.804312500000016,-7.6855625000000005,-2.6949999999999994,16.5,False,0
1.530656099319458,1.2933206152999999,-7.940581798099999,4.242474469799999,-66.15875000000001,-19.250000000000004,33.80125,1.5073286865874997,-9.7579006525175,3.015135937695,-63.50925000000002,-7.6855625000000005,-1.5601250000000004,16.5,False,0
1.5510764122009277,1.5122638832,-7.925028451199999,4.1736808200499995,-50.776250000000005,-23.117500000000003,14.1925,1.5167205152924998,-9.689884670112502,3.1609485648824998,-65.04750000000003,-7.965999999999999,0.029312499999999807,16.5,False,0
1.5653111934661865,1.7168502154999998,-7.4045895357,4.5523449965,-52.806250000000006,-18.80375,2.2487500000000002,1.527159203885,-9.516195659634999,3.3306595077874994,-66.65793750000003,-8.018062500000001,1.2070625000000004,16.5,False,0
1.5885460376739502,0.5623133109999999,-9.090931263049999,4.64865610615,-61.267500000000005,-15.085,11.4975,1.5227025717924998,-9.310173633775,3.4890643639074996,-68.04918750000003,-8.0465,1.9604375,16.5,False,0
1.6085169315338135,0.9164510557999999,-8.8749790234,4.9998028226999995,-63.595000000000006,-16.563750000000002,37.765,1.4748162095099997,-9.232855553512499,3.6189049002399996,-69.20200000000003,-8.726812500000001,3.5183750000000003,16.5,False,0
1.61873197555542,1.3004990831,-8.07757089195,5.337789014949999,-47.88875,-15.225000000000001,46.7775,1.4902499152799997,-9.103523491982498,3.795854131509999,-69.05412500000001,-9.620625,6.580000000000001,16.5,False,0
1.6286699771881104,1.61216422675,-7.366304374099999,5.4269216567999985,-38.03625,-9.555000000000001,42.157500000000006,1.4444273624899997,-8.991898317692499,3.9698422448124995,-67.14575,-10.458000000000002,9.265812500000001,16.5,False,0
1.6385626792907715,1.44107741085,-6.99601507675,5.5340004681499995,-31.088750000000005,-7.927500000000001,29.04125,1.4401202818099996,-8.812556263822499,4.137967942744999,-64.3978125,-10.776937500000003,11.24375,16.5,False,0
1.6485707759857178,1.81435773645,-7.158128807899999,5.42991268505,-30.24875,-9.353750000000002,12.941250000000002,1.4577972587674999,-8.653792484312499,4.258506381219999,-61.68925,-10.555125000000002,12.231625000000001,16.5,False,0
1.6584746837615967,1.3399806559999998,-6.979863524199999,6.0131631938000005,-33.416250000000005,-3.08,-1.44375,1.4127523733224998,-8.4989768620925,4.39346157586,-59.54418750000001,-10.168812500000003,12.1988125,16.5,False,0
1.6684718132019043,1.1820543644,-8.306085450249999,5.71705139705,-26.6,6.098750000000001,-9.406250000000002,1.4160724146799997,-8.316883062232499,4.5296430920825,-57.894812500000015,-9.462687500000003,11.879437500000002,16.5,False,0
1.6784307956695557,0.9631110964999998,-9.8620183459,6.2733826515499995,-10.1325,11.856250000000001,-6.86,1.4046167764825,-8.124559945757499,4.618985105909999,-56.056875000000005,-8.874687500000002,11.6143125,16.5,False,0
1.6883745193481445,2.10987132755,-8.0542408716,5.7367921834999995,-4.165,12.46,1.8375000000000001,1.3595120704725,-8.082386447432498,4.716193524035,-53.05606250000001,-8.337000000000002,11.894312500000002,16.5,False,0
1.698333740234375,1.7700905183499998,-8.07996371455,5.0440700407999985,-5.022500000000001,11.707500000000001,6.825000000000001,1.2830613884025,-8.04634455702,4.8207897819375,-49.006125000000004,-7.5936875000000015,12.5076875,16.5,False,0
1.7082946300506592,1.8275182607499998,-7.432106995599999,5.59980308965,-10.1325,8.120000000000001,10.106250000000001,1.245523983865,-7.982306642187498,4.89942391463,-44.748374999999996,-6.856937500000001,13.328,16.5,False,0
1.7188184261322021,2.0656041094499997,-7.217949372899999,6.2009997679,-12.7925,11.383750000000001,1.1900000000000002,1.305105266605,-7.876065318747498,4.980241497945,-41.19806249999999,-6.051500000000001,14.048125000000002,16.5,False,0
1.7288734912872314,1.59661087985,-7.1557359853,6.094519162199998,-13.195000000000002,13.982500000000002,-2.3625000000000003,1.337169089445,-7.772755202992501,5.085764974605,-38.0874375,-4.949000000000002,14.304937500000003,16.5,False,0
1.7389624118804932,1.1312068841499998,-7.04267511745,5.7104711349,-6.62375,15.68875,-5.460000000000001,1.3832309244949998,-7.702555769965002,5.187220652845,-35.2716875,-3.463250000000001,13.761125000000002,16.5,False,0
1.748974323272705,1.95194503595,-6.70887636475,5.634499017349999,-5.1537500000000005,9.843750000000002,-15.478750000000002,1.440658666895,-7.658288551864999,5.238546697615,-33.0859375,-2.545375000000001,12.390000000000002,16.5,False,0
1.7589592933654785,1.6875381386499997,-6.80458926875,5.809175067149999,-10.071250000000001,8.120000000000001,-26.547500000000003,1.4873486178774997,-7.575526800187499,5.3151469310975,-30.380437500000006,-2.1297500000000005,10.241437500000002,16.5,False,0
1.7689621448516846,1.7186448324499999,-7.210172699449998,5.761916820800001,-11.322500000000002,11.812500000000002,-35.28875,1.5259328823025,-7.552555703227499,5.397699310797499,-27.504312500000008,-1.0587500000000016,7.201250000000002,16.5,False,0
1.7789981365203857,1.52961184705,-7.52722169395,5.84028176095,-14.665000000000001,13.763750000000002,-40.4425,1.52985112931,-7.5355068422024996,5.4723852862,-25.607750000000003,0.7428749999999995,4.075312500000001,16.5,False,0
1.7890830039978027,1.5828521499,-7.79880705905,5.5585268997999995,-14.892500000000002,16.056250000000002,-39.987500000000004,1.51633168162,-7.549056200175002,5.534329481257499,-23.917250000000003,2.5921874999999996,1.5413125,16.5,False,0
1.7992351055145264,1.5218351735999998,-7.770093187849999,5.5908300049,-14.39375,13.6675,-37.493750000000006,1.5311073611750001,-7.543373246500001,5.577998493707499,-22.001875000000002,4.218812500000001,-0.47250000000000014,16.5,False,0
1.809354305267334,1.7742779578999996,-7.6773713121,5.718247808349999,-11.322500000000002,6.746250000000001,-31.692500000000003,1.5733705903475002,-7.450771011880001,5.627380370115,-19.330500000000004,5.562375,-3.1867500000000004,16.5,False,0
1.8194489479064941,1.4727823102999997,-7.5469624803999995,5.9210395237,-4.17375,1.6975000000000002,-22.085,1.611386559405,-7.3941508471074995,5.6586964358925,-16.8875,6.5778125,-6.7431875,16.5,False,0
1.8295600414276123,1.1461620253999998,-7.575676351599999,5.903093354199999,4.15625,0.7087500000000001,-16.03875,1.6110874565800004,-7.384908569814999,5.6865728191825,-14.802374999999998,7.2655625,-9.9798125,16.5,False,0
1.8396759033203125,0.9529416004499999,-7.432705201249999,6.027520129399999,4.41875,2.3800000000000003,-14.262500000000001,1.5890435783775,-7.3981588249625005,5.714030458517501,-12.830999999999998,7.692562499999999,-12.473125,16.5,False,0
1.8499269485473633,0.9320044027,-7.52602528265,6.007779342949999,0.60375,7.5687500000000005,-17.63125,1.554198099265,-7.43150878995,5.758596779442501,-11.171562500000004,8.3645625,-14.3705625,16.5,False,0
1.8599817752838135,1.3722837611,-7.80359270425,5.7678988773,-0.5775,9.388750000000002,-21.000000000000004,1.5357135446799999,-7.453612488717501,5.7690055577525,-9.584312500000003,9.230374999999999,-15.641937500000001,16.5,False,0
1.8700056076049805,1.4404792052000002,-7.987241838799999,5.5369914964,1.88125,6.300000000000001,-15.828750000000001,1.5414862292024998,-7.494619486025,5.749743335822499,-8.002312500000002,9.559375,-16.383937500000002,16.5,False,0
1.8803107738494873,1.5158531170999998,-8.399405531649998,5.4496534715000005,5.27625,2.6950000000000003,-10.596250000000001,1.5556637031074998,-7.5904819414375,5.760271755262499,-6.518312500000002,9.391375,-16.568562500000002,16.5,False,0
1.8903727531433105,1.6618152956999999,-8.212765368849999,5.40718087035,9.10875,-2.31875,-4.348750000000001,1.5763017980324996,-7.604599594777499,5.7656556061124995,-5.694500000000001,8.858062499999999,-16.769375,16.5,False,0
1.9003937244415283,1.5032907984500001,-7.7324062319,5.678168029799999,11.33125,-5.95,-2.9400000000000004,1.5598511426574997,-7.555845834302498,5.77842729674,-5.060125,8.016312499999998,-17.094,16.5,False,0
1.910369634628296,1.48175539505,-7.798208853399999,5.77328272815,13.527500000000002,-5.705000000000001,-1.435,1.5466307977924998,-7.524290486264998,5.794429297877501,-4.220125,7.199062499999999,-17.656625,16.5,False,0
1.9203286170959473,1.4835500119999998,-7.99382210095,5.75653296995,16.00375,-4.68125,-0.24500000000000002,1.50101761698,-7.545975441077499,5.7831232110925,-2.8402499999999997,6.496437499999999,-18.0893125,16.5,False,0
1.9303736686706543,1.4033904548999998,-8.2767733734,5.386841878249999,17.78875,-2.9662500000000005,-1.44375,1.4779268788899997,-7.594370278162501,5.7522557995525,-1.2801250000000002,5.6879374999999985,-18.1523125,16.5,False,0
1.9403245449066162,1.4440684390999998,-8.20080125585,5.17746990075,16.37125,-5.932500000000001,-2.3712500000000003,1.4559129109699998,-7.65116990463,5.71310323976,-0.061249999999999714,4.7070625,-18.06,16.5,False,0
1.950258493423462,1.6007983193999997,-8.212765368849999,5.0297131052,14.463750000000001,-8.951250000000002,-3.64875,1.4616855954924997,-7.726304534269998,5.684120176017499,1.0355625000000004,3.7205000000000004,-17.716562500000002,16.5,False,0
1.9626164436340332,1.5684952143,-8.2612200265,5.127818831799999,6.18625,-8.785,-5.52125,1.4339288533324996,-7.805985526849999,5.644608692834998,2.0151250000000003,2.8472499999999994,-17.0471875,16.5,False,0
1.9725184440612793,1.49491591935,-7.93639435855,5.377270587849999,-0.09625,-8.25125,-8.70625,1.4201103028174997,-7.86209721682,5.6167622198275,2.7181875000000013,1.9516874999999998,-15.813875000000001,16.5,False,0
1.9825851917266846,1.0695917021999999,-7.642077178749999,5.65005236425,1.8462500000000002,-6.545000000000001,-8.592500000000001,1.4190933532124999,-7.881359438749999,5.6038708880699994,3.3499375000000007,0.9366875000000003,-14.385,16.5,False,0
1.9925172328948975,1.1413763801999999,-8.247461296549998,5.702096255799999,14.175,-5.74875,-0.4025,1.3939687159124998,-7.901100225200001,5.599593717672498,4.3172500000000005,-0.09012500000000037,-12.6363125,16.5,False,0
2.00242018699646,1.1748758966,-7.931010507699999,5.6297133721499995,28.848750000000003,-6.4225,4.567500000000001,1.3629517529599995,-7.916803123512501,5.6022557328149984,6.112750000000001,-1.1921875,-10.621625000000002,16.5,False,0
2.012441396713257,1.1479566423499998,-7.8747791766,5.65244518685,40.75750000000001,-8.53125,14.227500000000001,1.3389936166774996,-7.9352876780975,5.606622634059999,8.508500000000002,-2.0895,-8.347062500000002,16.5,False,0
2.0224030017852783,1.2526426310999998,-8.0004023631,5.47657272575,44.432500000000005,-9.51125,17.56125,1.3156336860449998,-7.957840031102499,5.599085242869998,11.149687500000002,-2.722125,-6.140750000000002,16.5,False,0
2.032531261444092,1.14317099715,-8.356334724849999,5.5800623032,47.556250000000006,-8.715000000000002,18.97875,1.3141082616374997,-8.013293694857499,5.5922357881775,13.659187500000002,-3.2838750000000005,-4.315500000000004,16.5,False,0
2.0425400733947754,1.0229316615,-8.297112365499999,5.258825869149999,43.260000000000005,-5.6000000000000005,21.656250000000004,1.3146167364399999,-8.0563645016575,5.558556810082499,15.7145625,-3.6955625,-2.5663750000000016,16.5,False,0
2.0525832176208496,0.54376893585,-8.92941573755,4.938785846399999,34.265,-6.405,28.516250000000003,1.3312767637924998,-8.083971692405,5.516622594017499,17.591000000000005,-4.211375,-0.5897500000000011,16.5,False,0
2.062623977661133,0.8925228297999999,-9.31466017615,4.9100719752,27.046250000000004,-5.355,35.315000000000005,1.3204492415274998,-8.1184582481275,5.481657473774999,19.1428125,-4.974375,1.9735624999999999,16.5,False,0
2.072640895843506,1.2550354536999997,-8.77388226855,4.65942380785,28.105000000000004,-6.22125,39.89125000000001,1.2991830306699998,-8.1559657423825,5.4383174744325,20.468875000000004,-5.674812500000001,4.859750000000001,16.5,False,0
2.0832388401031494,1.3256237203999999,-8.467600975749999,4.665405864349999,35.77,-10.43875,42.06125,1.2971790417424998,-8.186115307142499,5.392255639382499,21.849187500000003,-6.302625000000001,7.5661249999999995,16.5,False,0
2.093258857727051,1.31186499045,-8.0769726863,4.9782674193,43.995000000000005,-15.72375,44.0825,1.2858729549574999,-8.2007713455675,5.3586364818525,23.450875000000003,-7.031499999999999,10.1023125,16.5,False,0
2.1032488346099854,1.4596217859999998,-7.6498538522,5.2462635505,55.072500000000005,-22.085,46.602500000000006,1.2873385588,-8.203253899015,5.33049090602,25.3159375,-7.739375000000001,12.51425,16.5,False,0
2.1132447719573975,1.4249258582999997,-7.927421273799999,5.465206818399999,70.03500000000001,-26.048750000000002,48.1075,1.284766274505,-8.2088471218425,5.3189754472575,27.747125,-8.645875,14.972125000000002,16.5,False,0
2.1232407093048096,1.1946166830499998,-8.51545742775,5.760720409499998,94.84125,-26.477500000000003,59.438750000000006,1.279382423655,-8.232326693605,5.30476806307,31.046749999999996,-9.7208125,17.618125000000003,16.5,False,0
2.1333296298980713,1.45663075775,-8.288737486399999,5.4783673427,108.53500000000001,-23.6075,78.35625,1.27238341755,-8.246234974967496,5.293551707132499,35.222249999999995,-10.8171875,21.077000000000005,16.5,False,0
2.143336772918701,1.6462619487999999,-7.793423208199999,4.7659044135499995,115.85000000000001,-23.17,82.74875,1.2825828238825001,-8.232207052474998,5.290231665775001,40.01375,-11.820374999999999,25.263875000000002,16.5,False,0
2.153418779373169,1.6612170900499998,-7.990831072699999,4.701896409,106.75000000000001,-15.9425,76.27375,1.2931710638875002,-8.226254906257498,5.275007331982499,45.016125,-12.560187499999998,29.456000000000007,16.5,False,0
2.1636204719543457,1.5804593272999998,-8.057830105499999,4.874179636199999,83.46625,-4.69875,62.728750000000005,1.3048958946274998,-8.217042539247498,5.265226669605,49.343,-12.6730625,33.3318125,16.5,False,0
2.1737136840820312,1.2604193045499996,-8.2241312762,4.3680976563,62.825,7.411250000000001,50.041250000000005,1.296969669765,-8.190631759799999,5.235436028234999,52.956750000000014,-12.22025,36.48225000000001,16.5,False,0
2.1838104724884033,1.7102699533499999,-8.3796647452,4.65344175135,46.751250000000006,20.0725,43.46125000000001,1.3028619954175,-8.205377529072496,5.18943401375,55.68106250000001,-11.1426875,39.286625,16.5,False,0
2.194044351577759,2.0476579399499997,-7.87059173705,4.283152454,55.74625,26.153750000000002,40.845000000000006,1.3476077780375,-8.2038820149475,5.1379285072849985,57.8781875,-9.651687500000001,41.68193750000002,16.5,False,0
2.2041773796081543,1.8077774742999997,-8.36112037005,4.27178654665,71.155,27.1075,43.9425,1.3986048097,-8.179983699229998,5.072275437197499,60.04206250000001,-8.036437500000002,43.740375000000014,16.5,False,0
2.2143564224243164,2.26899403045,-9.010173500299999,4.2227336833499995,87.33375000000001,29.37375,43.2075,1.44059884633,-8.2328949889725,5.001238516259999,62.260187500000015,-6.2120625,45.50787500000001,16.5,False,0
2.2244553565979004,2.333002035,-8.858229265199999,3.9876388628999995,101.66625,24.955000000000002,45.71875000000001,1.4659926761725,-8.3031841528475,4.933372085267499,64.66600000000001,-4.3973125,46.74687500000001,16.5,False,0
2.2345352172851562,1.9722840280499998,-8.903094688949999,3.4887353508,112.15750000000001,22.128750000000004,45.893750000000004,1.4930315715525,-8.3367434898125,4.847260381949999,67.59156250000001,-2.747500000000001,48.17356250000001,16.5,False,0
2.244544267654419,2.6895326023999995,-9.669994332249999,2.8127629663000002,119.35000000000001,19.652500000000003,46.935,1.5436995901074997,-8.408498257529999,4.752384965859999,71.06137500000001,-1.352312500000001,49.51406250000001,16.5,False,0
2.254545211791992,3.1645078884999998,-9.001798621199999,2.38145669265,109.03375000000001,24.05375,44.861250000000005,1.6094723013249996,-8.481329795417498,4.6168614758525,74.9258125,-0.06343750000000056,50.64018750000001,16.5,False,0
2.2645511627197266,3.12921375515,-9.30987453095,1.99980148795,87.01,24.745,33.32875000000001,1.6960027485975,-8.496913052599998,4.4613280068525,78.43981250000002,1.4564375000000007,51.10875,16.5,False,0
2.2744650840759277,2.4592234271499995,-9.759126974099999,2.0757736055,65.1525,32.033750000000005,23.82625,1.7974285165549997,-8.530950954084998,4.303192343274999,80.92262500000001,3.083062499999999,50.64018750000001,16.5,False,0
2.2844200134277344,2.0638094925,-10.006185907549998,2.7373890543999995,48.825,39.48875,14.498750000000001,1.8630217660774995,-8.5684285380575,4.1743687565475,82.24693750000002,5.277125000000001,49.641812500000015,16.5,False,0
2.2944068908691406,2.23429810275,-10.35434159585,3.0484559924,50.776250000000005,46.165000000000006,8.28625,1.9070796121999993,-8.630432553679999,4.0921753002375,82.58950000000002,8.10775,48.04100000000001,16.5,False,0
2.304358959197998,3.5102707541999996,-10.283155123499998,0.9146564388499998,67.48,47.775000000000006,20.930000000000003,1.9551155258949993,-8.764939094082498,3.94289308028,82.90625000000003,11.459875,46.26693750000001,16.5,False,0
2.3143837451934814,4.0510486617999995,-9.157930295849999,0.38883367249999995,74.0775,24.430000000000003,31.22875,2.071496435102499,-8.890352908605,3.6876686397075,83.69812500000003,14.367937500000002,45.21781250000001,16.5,False,0
2.324373960494995,3.7740794458499995,-8.4729848266,1.2981062605,61.15375,23.406250000000004,42.1925,2.2230817468124995,-8.9181395610475,3.4401012314549995,83.19675000000004,16.802187500000002,44.494625,16.5,False,0
2.334423780441284,2.74277290525,-9.4851487864,1.9136598743499997,49.008750000000006,27.090000000000003,35.883750000000006,2.3221745127349998,-8.947122624789998,3.23473723181,80.88368750000002,19.412750000000003,43.0128125,16.5,False,0
2.344512701034546,2.4508485480499997,-10.3034941156,1.4249258582999997,43.155,28.411250000000003,34.825,2.3682961683499997,-9.046634134667498,3.0612875035925007,77.51843750000003,21.967750000000002,40.715937499999995,16.5,False,0
2.3569257259368896,2.6727828442,-10.600204118,1.1258230332999999,35.035000000000004,34.9825,37.03875,2.41447764453,-9.174022027834997,2.8888547249800003,73.70868750000002,24.624249999999996,38.4321875,16.5,False,0
2.3669047355651855,2.9156543381,-10.213165062449999,0.7034898444000001,23.17875,39.78625,36.79375,2.4745973123550002,-9.283045007547496,2.6891736790099996,70.21175000000002,27.076,36.7898125,16.5,False,0
2.3767504692077637,3.24287282865,-9.9888379437,0.50428736295,12.652500000000002,39.383750000000006,32.760000000000005,2.5669602647149996,-9.380881541604998,2.4809682025275,67.32818750000001,29.09375,35.69125,16.5,False,0
2.386744499206543,3.3690942208,-9.6981099978,0.4283152454,4.59375,35.93625,29.382500000000004,2.6424239074624998,-9.4695655292175,2.271087750225,65.01206250000001,30.274124999999998,34.940062499999996,16.5,False,0
2.396730661392212,3.3182467405500002,-9.28355348235,0.27696921594999996,-2.33625,33.696250000000006,24.578750000000003,2.7132514564225003,-9.541709130607499,2.0642282364549995,62.652625000000015,30.842437500000006,34.223875,16.5,False,0
2.406771421432495,3.7250265825499995,-8.723034788299998,0.46480579005,-6.8775,31.281250000000004,16.065,2.787099943915,-9.61639510601,1.8627525735349995,59.24843750000001,31.160500000000006,33.201875,16.5,False,0
2.416825532913208,3.96071960865,-8.482556117,0.6496513358999999,-13.825000000000001,28.6825,7.691250000000001,2.8817659880275004,-9.58720267029,1.6775780145774999,54.835812499999996,31.199000000000005,31.551187499999997,16.5,False,0
2.4268574714660645,3.5120653711499994,-8.846265152199999,0.7274180704000001,-21.253750000000004,25.935000000000002,-0.11375000000000002,2.9860930533875,-9.546554596372502,1.49934264116,49.415625000000006,31.223062500000005,29.6975,16.5,False,0
2.4369263648986816,3.40678117675,-9.295517595349999,0.8703892207499999,-25.970000000000002,21.945000000000004,-1.8900000000000001,3.0646075449500003,-9.5397350519625,1.3378869362249999,42.84918750000001,31.310125000000006,27.298687500000007,16.5,False,0
2.4469971656799316,3.1238299042999995,-9.61735223505,0.91944208405,-30.75625,17.360000000000003,-1.4262500000000002,3.1212277097224996,-9.522955383480001,1.2079267587625,35.717937500000005,31.295687500000003,24.84475,16.5,False,0
2.4576592445373535,3.05025060935,-9.9206424996,0.9505487778499999,-36.907500000000006,13.326250000000002,4.45375,3.1509286202449998,-9.538927474335,1.13216401319,28.220500000000005,31.054624999999998,22.5465625,16.5,False,0
2.467834234237671,3.1872397031999995,-9.438488745699999,0.9170492614499998,-45.885000000000005,10.850000000000001,9.87875,3.1676484681625,-9.59330436792,1.07700945226,21.132562499999995,30.4294375,20.832,16.5,False,0
2.477952241897583,3.5174492219999998,-8.9276211206,0.8147560952999998,-53.7775,9.047500000000001,9.58125,3.1829625328024997,-9.59354365018,1.0367203017324997,14.80675,29.581562500000008,19.966187500000004,16.5,False,0
2.488055944442749,3.49651202425,-8.530412569,0.84047893825,-60.96125000000001,9.45875,2.5025000000000004,3.2279775079649995,-9.5536732436075,0.9727122971824999,9.036562500000002,28.245875000000005,19.285875,16.5,False,0
2.498159170150757,4.0199419679999995,-8.048857020749999,0.7495516794499998,-74.94375000000001,11.182500000000001,-11.1475,3.30580406303,-9.46564728221,0.8614759565650001,3.3884375000000047,26.62975000000001,18.495750000000005,16.5,False,0
2.508193016052246,4.1527436223,-7.875377382249999,0.6179464364499999,-86.59,7.892500000000001,-23.336250000000003,3.38620290239,-9.3337130261025,0.7921738320125,-3.3538749999999986,24.6658125,17.170125000000006,16.5,False,0
2.5182290077209473,3.9852460403,-7.920841011649999,0.7471588568499998,-94.05375000000001,6.44875,-31.430000000000003,3.4015169670299996,-9.215417858815,0.8114360539425001,-11.837000000000003,23.321375000000003,14.493937500000005,16.5,False,0
2.528290033340454,3.5359935971499996,-8.46999379835,1.0426724479499998,-98.23625000000001,4.077500000000001,-32.025000000000006,3.3731620192199996,-9.1906820551875,0.8341678686425,-20.120625000000004,22.530812500000003,10.974687500000002,16.5,False,0
2.538355827331543,2.8378876036,-9.008977088999998,1.3621142650499998,-100.50250000000001,-0.7087500000000001,-29.321250000000003,3.4133913491824996,-9.15398213856,0.808235653715,-27.763750000000005,21.256375,7.532000000000001,16.5,False,0
2.548424005508423,3.03709008505,-8.9001036607,1.1976077112999999,-105.23625000000001,-7.446250000000001,-23.773750000000003,3.430529941054999,-9.096494575594999,0.79166535721,-35.11506250000001,19.711999999999996,4.364499999999998,16.5,False,0
2.5584299564361572,3.0963124444,-9.27398219195,1.4297115034999999,-110.51250000000002,-11.4275,-17.176250000000003,3.4559237708975,-9.0222871647125,0.7856234801449998,-42.462,17.681124999999994,1.5789374999999974,16.5,False,0
2.5684449672698975,3.3008987767,-8.853443619999998,2.0632112868499997,-109.17375000000001,-15.933750000000002,-11.55,3.46935348774,-8.967192424347498,0.8190332656974999,-49.47556250000001,15.116062499999993,-1.0438750000000003,16.5,False,0
2.5784406661987305,3.569493113549999,-8.3449688175,2.5914268758,-101.05375000000001,-16.03,-13.44875,3.484188987859999,-8.903573253469999,0.9104091787349997,-55.711687500000004,12.280187499999993,-3.3700624999999995,16.5,False,0
2.588390588760376,3.7746776514999993,-8.32881726495,2.9730820805,-89.08375000000001,-18.43625,-21.86625,3.507369456797499,-8.825268133884999,1.0266405365299998,-60.909625000000005,9.562875000000002,-5.731250000000001,16.5,False,0
2.5983567237854004,3.84825694645,-8.498707669549999,3.20578407835,-68.0575,-21.6125,-26.486250000000002,3.526422306749999,-8.770502406627498,1.1605787815649997,-65.03437500000001,6.83375,-8.295000000000002,16.5,False,0
2.608308792114258,3.6532419045499998,-8.7984087002,3.1076783517499997,-49.65625000000001,-26.643750000000004,-29.163750000000004,3.5379975860774997,-8.739964008194999,1.3080065640074998,-67.82825000000001,4.006625000000001,-10.819375,16.5,False,0
2.631622552871704,2.9473592375499993,-9.557531670049999,3.33858573265,-39.7075,-20.247500000000002,-22.758750000000003,3.507728380187499,-8.795178389689998,1.4466407233949998,-69.07468750000001,1.2495,-12.734750000000002,16.5,False,0
2.6524055004119873,2.92103818895,-9.253643199849998,3.2883364580500003,-56.9275,-9.371250000000002,-11.66375,3.4616964554199994,-8.835288078522499,1.5815959180349997,-70.94412500000001,-0.7153125000000004,-13.692437500000002,16.5,False,0
2.673084259033203,3.4612178908999995,-8.39461988645,3.2566315585999996,-46.401250000000005,-12.8625,-9.283750000000001,3.4515568696524994,-8.815756664049998,1.7053945773024999,-72.4381875,-2.4132500000000006,-14.0503125,16.5,False,0
2.6906661987304688,3.4031919428499995,-8.434699665,3.4133614388999995,-28.840000000000003,-26.687500000000004,-11.725000000000001,3.4641191883024987,-8.752586147409998,1.8300008141975,-72.90281250000001,-4.460312500000001,-14.448000000000002,16.5,False,0
2.7043752670288086,3.2207392195999995,-8.560322851499999,3.8009987000999996,-11.5675,-32.830000000000005,-8.8725,3.4798220866149996,-8.676643940142501,1.9490437385474997,-72.1669375,-6.8263125,-15.0535,16.5,False,0
2.7230281829833984,2.6099712509499993,-8.65783037245,4.28733989355,2.9137500000000003,-27.457500000000003,-0.805,3.4651062276249993,-8.6210108146925,2.1032013345525,-70.1719375,-8.905750000000001,-15.594687499999997,16.5,False,0
2.744724988937378,2.64825641255,-8.27138952255,4.1246279567499995,11.322500000000002,-14.113750000000001,5.906250000000001,3.424577794837499,-8.5902630442825,2.2726729951974995,-67.37325,-10.526250000000001,-15.994125,16.5,False,0
2.7547719478607178,2.7828526837999994,-7.99023286705,3.9481572899999993,14.516250000000001,-8.478750000000002,3.7012500000000004,3.378127126114999,-8.56008356924,2.4359532273649998,-63.84306250000001,-11.5740625,-16.0811875,16.5,False,0
2.764857053756714,2.7212375018499997,-7.84427068845,3.6143585373,17.395000000000003,-4.987500000000001,-0.10500000000000001,3.3359237175074994,-8.548897123585,2.5833810098074994,-59.69162500000001,-12.460875,-15.732062500000001,16.5,False,0
2.7751717567443848,2.76550471995,-7.980063371,3.07178601275,20.930000000000003,-8.3475,-3.0275000000000003,3.268176927644999,-8.5459958261825,2.721775886935,-54.688812500000004,-13.235250000000002,-14.987437500000002,16.5,False,0
2.785228729248047,2.78943294595,-7.969295669299999,2.7493531674,23.975,-12.818750000000001,-6.2125,3.206382283999999,-8.5504823685575,2.8287649674374995,-48.8656875,-14.105874999999997,-13.837250000000003,16.5,False,0
2.7952117919921875,2.7738795990499994,-8.101499117949999,2.7385854657,26.442500000000003,-15.680000000000001,-6.43125,3.1603802695149996,-8.534779470244999,2.9173592242025,-42.8089375,-15.102499999999997,-12.536125000000002,16.5,False,0
2.805210828781128,2.60398919445,-8.1738820016,2.9180471606999996,26.573750000000004,-18.0075,-5.827500000000001,3.0928428516299995,-8.529694722219999,3.0166912723849997,-36.547875000000005,-15.988874999999998,-11.339125000000001,16.5,False,0
2.8180177211761475,2.5902304645,-8.2540415587,2.9587251449000003,23.21375,-16.275000000000002,-3.75375,3.0809086489124993,-8.494161306609998,3.0966115472249998,-30.22337500000001,-16.689312499999996,-10.199000000000002,16.5,False,0
2.8281197547912598,2.4957139718,-8.315656740649999,3.03709008505,15.627500000000001,-12.722500000000002,-3.9637500000000006,3.0506394430224995,-8.449624895967498,3.1818558523499996,-23.80087500000001,-16.98725,-9.347625,16.5,False,0
2.8381736278533936,2.5154547582499998,-8.40179835425,3.1172496421499996,6.352500000000001,-8.67125,-4.64625,3.018695261312499,-8.411070541825,3.256212814644999,-17.687687500000003,-16.8363125,-8.828750000000003,16.5,False,0
2.8482155799865723,2.5268206656,-8.408976822049999,3.134597606,-1.7412500000000002,-5.11,-5.71375,2.9700611419674994,-8.411010721259997,3.2956644772624997,-12.24125,-16.3699375,-8.5106875,16.5,False,0
2.858194589614868,2.58365020235,-8.310871095449999,2.95932335055,-7.848750000000001,-5.74875,-7.1137500000000005,2.915295414709999,-8.420252998552497,3.31681104699,-7.630875000000003,-15.7591875,-8.041250000000002,16.5,False,0
2.86820650100708,2.6398815334499997,-8.3198441802,2.9006991968499993,-7.446250000000001,-9.082500000000001,-7.691250000000001,2.8576882106149997,-8.42213734635,3.30987186145,-4.012312499999998,-15.139249999999999,-7.219625000000002,16.5,False,0
2.878171443939209,2.69850568715,-8.19840843325,2.86480685785,-2.6862500000000002,-14.918750000000001,-8.426250000000001,2.8000510962374996,-8.407840231315,3.2896226001974993,-1.3190625,-14.5184375,-6.175750000000001,16.5,False,0
2.8886682987213135,2.5926232870999995,-8.236095389199999,2.9072794589999997,5.8187500000000005,-19.355,-9.24,2.7745974458299996,-8.34233671264,3.2680871967975,0.44274999999999987,-14.088375000000003,-5.290250000000002,16.5,False,0
2.8987205028533936,2.6799613119999997,-8.27856799035,3.1160532308499995,12.18875,-23.310000000000002,-7.805000000000001,2.7625436019824994,-8.2860754712575,3.2470602681999994,3.5953749999999998,-14.567875,-4.9923125000000015,16.5,False,0
2.9087202548980713,2.7565316351999996,-8.29292492595,3.31346109535,18.305000000000003,-24.99875,-7.612500000000001,2.7351457832124995,-8.265377555767499,3.2415268659374994,7.033250000000001,-15.308125,-4.925375000000001,16.5,False,0
2.918649196624756,2.86480685785,-8.2767733734,3.6191441824999995,21.962500000000002,-23.817500000000003,-8.58375,2.7003601246649995,-8.2679498400625,3.2498120141899998,9.8923125,-15.512,-4.791937500000001,16.5,False,0
2.9285881519317627,2.8007988532999994,-8.559724645849998,3.6999019452499997,24.71,-19.81875,-10.578750000000001,2.67242392081,-8.265317735202498,3.2633015515974995,11.980937500000001,-14.998375000000001,-4.708375000000001,16.5,False,0
2.938566207885742,2.7978078250499996,-8.7780697081,3.7423745464,22.750000000000004,-16.336250000000003,-13.510000000000002,2.6732913190025,-8.262865092037497,3.2500812067325002,13.2085625,-14.4379375,-5.086375,16.5,False,0
2.9485480785369873,2.638685122149999,-9.06461021445,3.6664024288499992,18.935000000000002,-11.672500000000001,-16.2575,2.6786452595699997,-8.274859115319998,3.2221150925949997,13.9671875,-14.0258125,-5.9578750000000005,16.5,False,0
2.9584290981292725,2.6117658679,-9.35892739425,3.4438699270499993,12.836250000000001,-7.883750000000001,-18.2525,2.6758037827324994,-8.328159238735,3.1973493786850002,14.133000000000001,-13.926937500000003,-7.101937500000001,16.5,False,0
2.9683949947357178,2.6500510295,-9.495916488099999,3.2775687563499996,7.210000000000001,-8.0325,-17.946250000000003,2.6698516365149993,-8.403024675832498,3.1708488683900002,13.849937500000005,-13.974625000000003,-8.108625000000002,16.5,False,0
2.978342056274414,2.7493531674,-9.4660062056,3.1776684127999997,4.165,-10.99,-17.45625,2.670061008492499,-8.481269974852498,3.16630250545,13.170062500000004,-14.118125000000001,-8.924125,16.5,False,0
2.988245964050293,2.7080769775499998,-9.475577496,3.22612307045,3.0625000000000004,-14.41125,-16.896250000000002,2.6625236173025,-8.5564046044925,3.1836205590174997,12.218062500000002,-14.220499999999998,-9.553687499999999,16.5,False,0
2.998213768005371,2.5543381254999997,-9.522835742349999,3.473780209549999,2.9925,-17.22875,-18.305000000000003,2.6427230102874995,-8.627920089949999,3.211108108635,11.092375,-14.314125,-10.080875,16.5,False,0
3.0082099437713623,2.52502604865,-9.74177901025,3.2709884942,3.6400000000000006,-18.41,-15.566250000000002,2.6424837280274995,-8.7038922075,3.2376983497775003,9.922062500000003,-14.358750000000004,-10.6351875,16.5,False,0
3.0181729793548584,2.26660120785,-9.774680320999998,3.5341989802,3.1237500000000002,-19.923750000000002,-13.97375,2.6334209124299996,-8.776155450019997,3.2576185979225003,8.814312500000002,-14.444937500000004,-11.127375,16.5,False,0
3.0282797813415527,2.2935204621,-9.714859756,3.6873396266,4.961250000000001,-17.902500000000003,-11.506250000000001,2.6209184143449997,-8.851828464745,3.2902208058475004,7.9778125000000015,-14.6374375,-11.594624999999999,16.5,False,0
3.0383079051971436,2.26660120785,-9.650851751449999,3.5353953915,10.850000000000001,-16.747500000000002,-9.94875,2.6071297741125,-8.916195392685,3.3194132415675006,7.855750000000002,-14.938000000000002,-11.923187500000001,16.5,False,0
3.0483617782592773,2.4825534474999995,-9.66760150965,3.4959138185999996,15.846250000000001,-19.0225,-8.023750000000001,2.5981267790800002,-8.971080761072498,3.3340692799925002,8.378562500000001,-15.508937500000002,-12.13625,16.5,False,0
3.0584006309509277,2.3916261886999997,-9.40439102365,3.3403803495999997,18.83875,-20.1075,-7.236250000000001,2.5935804161399996,-9.024410794769999,3.3461530341225005,9.458312500000002,-16.257500000000004,-12.186125,16.5,False,0
3.0684316158294678,2.44008084635,-9.25244678855,3.2967113371499996,18.76,-21.735000000000003,-7.74375,2.5852354473225,-9.0691864876725,3.365564807465,10.830750000000004,-16.953562500000004,-12.203625,16.5,False,0
3.078437566757202,2.43409878985,-9.152546444999999,3.2063822839999996,16.59,-22.365000000000002,-9.05625,2.5761427214425,-9.1157268872425,3.3847372985475004,12.000625000000003,-17.49125,-12.226812500000003,16.5,False,0
3.0884335041046143,2.39342080565,-9.0843510009,3.2219356309,13.895000000000001,-22.95125,-9.922500000000001,2.5634009410974996,-9.15685352568,3.3977183611525,12.715500000000004,-17.780000000000005,-12.266625000000001,16.5,False,0
3.0984535217285156,2.4520449593499998,-8.966504487849999,3.1968109935999998,12.232500000000002,-24.578750000000003,-8.828750000000001,2.549492659734999,-9.193403890895,3.4065119842075,12.945625000000003,-17.903812500000004,-12.30775,16.5,False,0
3.1084814071655273,2.4675983062499998,-8.773284062899998,3.22612307045,15.977500000000001,-25.1125,-7.498750000000001,2.537558457017499,-9.22301507057,3.4051959317775,12.869500000000006,-17.934,-12.341437500000001,16.5,False,0
3.118513345718384,2.5453650407499997,-8.42692299155,3.1740791789,22.750000000000004,-25.40125,-6.772500000000001,2.5199113903424992,-9.23916662312,3.3966715012650006,12.7430625,-17.960249999999995,-12.309500000000002,16.5,False,0
3.128511428833008,2.59441790405,-8.1535430095,3.0155546816499994,30.520000000000003,-25.208750000000002,-7.673750000000001,2.508216469885,-9.240422854985,3.368555835715,12.893562500000002,-18.1181875,-12.184812500000001,16.5,False,0
3.138554334640503,2.6602205255499998,-7.95314411675,2.7493531674,38.50000000000001,-26.0925,-9.86125,2.5029522601649994,-9.211110778134998,3.3224042698174996,13.394937500000001,-18.481312500000005,-12.035625000000001,16.5,False,0
3.148597240447998,2.6608187311999996,-7.804789115549999,2.4173490316499997,44.642500000000005,-28.7875,-13.615000000000002,2.5034308246849997,-9.159126707149998,3.2653055405249996,14.336437500000002,-19.13275,-11.866312500000001,16.5,False,0
3.158595323562622,2.75832625215,-7.8687971201,2.1224336461999997,44.835,-32.611250000000005,-18.865000000000002,2.504268312595,-9.0888674535575,3.201656459365,15.73425,-20.159125000000003,-11.7823125,16.5,False,0
3.16860032081604,2.7960132080999998,-7.9812597822999996,2.0195422744,44.581250000000004,-35.166250000000005,-22.715000000000003,2.5034906452499994,-9.005926240185001,3.14046002137,17.475937500000004,-21.4606875,-11.925812500000003,16.5,False,0
3.1786551475524902,2.7068805662499993,-8.203194078449998,1.96151632635,42.892500000000005,-36.995000000000005,-25.830000000000002,2.5067508660424997,-8.9356071660275,3.0774988767074998,19.39,-22.808187500000003,-12.2311875,16.5,False,0
3.1886701583862305,2.8319055470999994,-8.373682688699999,1.97826608455,39.865,-38.56125,-25.558750000000003,2.504986159375,-8.870043826787498,3.014059167525,21.2905,-24.091375000000003,-12.6634375,16.5,False,0
3.198707103729248,2.9006991968499993,-8.44606557235,1.95673068115,33.87125,-39.182500000000005,-25.016250000000003,2.5235604448075,-8.819734731622498,2.9459534542725,23.0348125,-25.2415625,-13.061125,16.5,False,0
3.2113850116729736,3.0077780082,-8.3952180921,1.9172491082499998,30.275000000000002,-39.173750000000005,-26.188750000000002,2.5380968421025,-8.7582391908025,2.873361198644999,24.485562500000004,-26.3239375,-13.4728125,16.5,False,0
3.221496105194092,3.0735806297,-8.362914987,1.83110749465,28.7175,-38.86750000000001,-28.271250000000002,2.5710878836999997,-8.692316928172499,2.7997519934125,25.805500000000002,-27.3109375,-14.084000000000003,16.5,False,0
3.231505870819092,3.1058837348,-8.341977789249999,1.6642081183,27.361250000000002,-39.173750000000005,-31.4125,2.61152658564,-8.622476418535,2.7061926297524996,27.0335625,-28.299687500000005,-14.902125000000002,16.5,False,0
3.2417027950286865,3.0945178274499994,-8.408976822049999,1.5182459396999997,26.608750000000004,-40.88875,-36.44375,2.65471703357,-8.561160339409998,2.6041387458624996,27.930437500000004,-29.442,-16.056687500000002,16.5,False,0
3.2522788047790527,3.0759734523,-8.554340795,1.4536397294999999,25.970000000000002,-42.236250000000005,-42.008750000000006,2.6929722848875,-8.5082490496675,2.5058834678499995,28.620375000000003,-30.629375,-17.5520625,16.5,False,0
3.262303590774536,2.8546373617999996,-8.983254246049999,1.4159527735499997,23.58125,-41.816250000000004,-45.5525,2.72087857846,-8.469246041287496,2.40765810012,28.995749999999997,-31.770812499999998,-19.369875,16.5,False,0
3.2722747325897217,2.7625136916999997,-9.3547399547,1.5308082583499998,20.51875,-41.20375000000001,-45.675000000000004,2.739243491915,-8.460781431339997,2.3138594542,29.064437500000004,-32.802,-21.292687499999996,16.5,False,0
3.282282829284668,2.58365020235,-9.567102960449999,1.4757733385499998,17.185000000000002,-40.941250000000004,-43.181250000000006,2.7481268458174997,-8.472087518124997,2.2275383789050003,29.1300625,-33.747,-23.1266875,16.5,False,0
3.2922778129577637,2.5471596577,-9.70827949385,1.3686945271999997,13.7375,-41.12500000000001,-40.993750000000006,2.7580271493249997,-8.501519236104999,2.1405891876775,29.136625,-34.6705625,-24.759000000000004,16.5,False,0
3.302309513092041,2.4885355039999997,-9.6418786667,1.3483555351,10.955000000000002,-42.026250000000005,-39.182500000000005,2.7653252582549994,-8.5360057918275,2.04969183916,29.113437500000003,-35.5516875,-26.2661875,16.5,False,0
3.312328577041626,2.6374887108499996,-9.442676185249999,1.3579268255,8.785,-43.45250000000001,-39.690000000000005,2.7675685294424994,-8.569744590487499,1.9569998736924998,28.9541875,-36.44025,-27.810562500000003,16.5,False,0
3.322347402572632,2.5435704238,-9.317651204399999,1.4404792052000002,7.805000000000001,-43.53125000000001,-40.8975,2.7692435052624993,-8.602795452650001,1.8617655342124997,28.466812500000003,-37.34587499999999,-29.451187500000003,16.5,False,0
3.332416534423828,2.5477578633499998,-9.19501904615,1.5475580165499996,7.166250000000001,-44.065000000000005,-43.758750000000006,2.769273415545,-8.64981441674,1.7803796555299993,27.503875000000004,-38.274249999999995,-31.1889375,16.5,False,0
3.3425073623657227,2.4622144553999994,-8.99880759295,1.7324035624,8.12875,-43.96875000000001,-47.2325,2.7627230636774995,-8.7015891157475,1.7207684625074993,26.190500000000004,-39.19081250000001,-33.0225,16.5,False,0
3.352499485015869,2.2827527603999997,-9.13160924725,1.87417830145,9.93125,-41.19500000000001,-49.761250000000004,2.7468706139525,-8.757880267412501,1.6797614652,24.60675,-39.980062499999995,-34.87575,16.5,False,0
3.362488269805908,2.0111673952999998,-9.42114078185,1.9585252980999999,10.185,-37.3275,-49.63,2.72207498976,-8.8291863808925,1.6619050265474997,22.894375000000004,-40.436375000000005,-36.5973125,16.5,False,0
3.3724722862243652,1.7736797522499999,-9.61495941245,1.9740786449999996,8.8025,-33.67875,-47.5825,2.6843880338099995,-8.91661413664,1.6558332392000001,21.132125000000002,-40.52431250000001,-37.991187499999995,16.5,False,0
3.3826754093170166,1.4668002538,-9.8093762487,1.9573288867999998,5.880000000000001,-28.988750000000003,-44.77375000000001,2.6320151291525,-8.9993758883175,1.6566408168275,19.297250000000005,-40.3235,-39.092812499999994,16.5,False,0
3.3926312923431396,1.11565353725,-9.8333044747,1.84905366415,2.66,-25.305000000000003,-42.525000000000006,2.5629821971424995,-9.07896715005,1.6551453027024998,17.444875000000003,-39.77137499999999,-39.980937499999996,16.5,False,0
3.402639389038086,0.8135596839999999,-9.87577707585,1.7455640866999997,-3.10625,-24.71,-41.790000000000006,2.4704098728049995,-9.150931289745,1.64662087219,15.568437500000007,-39.074875000000006,-40.825750000000006,16.5,False,0
3.412658214569092,0.7734799054499999,-9.851848849849999,1.7790636030999998,-8.82,-25.646250000000002,-42.91875,2.3605494051825,-9.222327134072499,1.636989761225,13.666187500000003,-38.3753125,-41.645624999999995,16.5,False,0
3.4226791858673096,0.6131607912499999,-9.6622176588,1.9603199150499997,-11.287500000000001,-24.578750000000003,-42.6475,2.2415064808324994,-9.287950293877499,1.6338790918450001,11.671187499999998,-37.6735625,-42.460249999999995,16.5,False,0
3.432751178741455,0.33140593009999997,-9.28474989365,2.2504496552999997,-7.831250000000001,-23.922500000000003,-42.446250000000006,2.1121445090199993,-9.3488476290475,1.652662749255,9.718624999999998,-36.9289375,-43.106875,16.5,False,0
3.442754030227661,0.09032905315,-9.0556371297,2.3856441322,1.05875,-23.54625,-45.001250000000006,1.9676479342624993,-9.385068981154998,1.6898412304024997,8.1799375,-36.124812500000004,-43.575875,16.5,False,0
3.4527747631073,-0.51864429855,-9.00598606075,2.41017056385,11.908750000000001,-20.422500000000003,-47.66125,1.8036498553149998,-9.409774874499998,1.7389539142675,7.1286249999999995,-35.14875,-43.91887500000001,16.5,False,0
3.4627997875213623,-1.0540383553,-9.259625256349999,2.3593230835999996,18.812500000000004,-18.340000000000003,-49.035000000000004,1.6166208588424997,-9.4275714925875,1.7877076747424998,6.629875,-34.00512500000001,-44.158625,16.5,False,0
3.4728240966796875,-1.4859428345999999,-9.4576313265,2.2468604213999996,23.493750000000002,-18.36625,-47.862500000000004,1.4112867694799998,-9.437471796095,1.8327525601874999,6.69375,-32.81862500000001,-44.300374999999995,16.5,False,0
3.4828848838806152,-1.70787713075,-9.728020280299999,2.0494525568999995,24.71,-17.675,-45.368750000000006,1.1989237637299999,-9.4442614302225,1.8621244576025,6.966312500000001,-31.676312500000005,-44.393562499999994,16.5,False,0
3.492896795272827,-1.8921244709499996,-9.69392255825,1.9704894111,23.415000000000003,-17.05375,-44.8875,0.9809675351525,-9.4471926379075,1.8924534840575,7.399000000000001,-30.501625000000008,-44.528749999999995,16.5,False,0
3.5028927326202393,-2.1266210857499996,-9.67597638875,1.9100706404499999,20.0725,-17.70125,-46.471250000000005,0.75421768352,-9.448897524009999,1.9216758300599999,7.883750000000002,-29.304187500000005,-44.8039375,16.5,False,0
3.5129969120025635,-2.2971096959999997,-9.7794659662,1.9573288867999998,14.6475,-18.716250000000002,-50.400000000000006,0.5191527733525001,-9.453204604689999,1.9504495218249993,8.2788125,-28.074374999999996,-45.24975,16.5,False,0
3.5230166912078857,-2.5298116938499997,-9.9577312499,2.15413854565,6.361250000000001,-19.1275,-54.556250000000006,0.2738286362875001,-9.48000421781,1.9819749595799994,8.401750000000003,-26.836687500000004,-45.873625000000004,16.5,False,0
3.5330777168273926,-2.9587251449000003,-10.21675429635,2.43649161245,-0.34125000000000005,-18.453750000000003,-58.24875000000001,0.011246266220000023,-9.521459869354999,2.0222641101074994,8.179062500000002,-25.60556250000001,-46.605125,16.5,False,0
3.5431346893310547,-3.3678978095,-10.511071476149999,2.6721846385499997,-4.85625,-16.2925,-59.955000000000005,-0.26781666950500005,-9.588638363849999,2.06572375058,7.6838125,-24.273812500000002,-47.29725,16.5,False,0
3.5531513690948486,-3.6628131949499996,-10.655837243450001,2.8941189347,-6.265000000000001,-13.833750000000002,-60.48875,-0.5627021446725001,-9.6718786800475,2.1188444123,6.950562500000001,-22.869875000000004,-47.899249999999995,16.5,False,0
3.5631773471832275,-3.8841492854499995,-10.6145610536,3.1304101664499995,-2.2750000000000004,-11.191250000000002,-60.182500000000005,-0.8580362740775002,-9.743723178612498,2.1716061506299997,6.1604375,-21.556937500000004,-48.40675,16.5,False,0
3.5732014179229736,-4.215555215549999,-10.6672031508,3.4229327292999994,0.35875,-8.3825,-60.48875,-1.15609223919,-9.795587608467498,2.231247253935,5.586,-20.258875000000003,-48.9654375,16.5,False,0
3.583125352859497,-3.9948173306999997,-10.406983693049998,3.2434710343,6.055000000000001,-4.112500000000001,-59.675000000000004,-1.448913904865,-9.815328394917497,2.2892133814199993,5.269250000000001,-19.02818750000001,-49.713125000000005,16.5,False,0
3.5930402278900146,-4.3166519704,-10.18684401385,3.2374889777999996,12.040000000000001,2.44125,-59.41250000000001,-1.7202898979875,-9.842516841709998,2.354956182354999,5.434625,-17.766000000000002,-50.48049999999999,16.5,False,0
3.6055333614349365,-4.288536304849999,-10.09830957765,3.1046873234999994,14.1575,6.282500000000001,-58.69500000000001,-1.9810776511050001,-9.856993418439998,2.4227927030649994,6.1000625,-16.321375000000007,-51.3279375,16.5,False,0
3.6162261962890625,-4.3920258823,-10.1072826624,2.8917261120999997,13.186250000000001,10.115,-58.24000000000001,-2.2360628094174997,-9.868718249179997,2.4913769808375,7.0726249999999995,-14.651874999999999,-52.16181249999998,16.5,False,0
3.626253366470337,-4.44048053995,-10.2628161314,2.88873508385,11.22625,12.801250000000001,-55.71125000000001,-2.4904198517975,-9.8936933350675,2.5428824873024993,8.213625,-12.825749999999996,-52.87449999999999,16.5,False,0
3.636373281478882,-4.5433719117499995,-10.834102527149998,2.739781877,8.4525,15.776250000000001,-51.04750000000001,-2.7388845685249996,-9.9241420026525,2.579343121669999,9.261437500000001,-10.934875000000002,-53.346562500000005,16.5,False,0
3.6464033126831055,-3.9792639837999992,-9.766305441899998,2.6943182475999996,11.06,16.922500000000003,-44.143750000000004,-2.9764918527049997,-9.9617093174725,2.6131716511774994,9.999500000000001,-8.889125,-53.57756250000001,16.5,False,0
3.6564581394195557,-4.01814735105,-9.3056870914,2.6452653843,15.662500000000001,18.060000000000002,-40.346250000000005,-3.18472723947,-9.9813902833575,2.6249862127649997,10.37575,-6.916437500000001,-53.38331250000001,16.5,False,0
3.6665172576904297,-3.8703905554999998,-8.7756768855,2.53459733905,19.486250000000002,19.27625,-38.736250000000005,-3.3441191349125,-9.981838937595,2.6276183176249996,10.460625,-5.035624999999999,-52.937500000000014,16.5,False,0
3.6765480041503906,-3.7776686797499996,-8.44726198365,2.3904297774,22.295,20.387500000000003,-38.93750000000001,-3.4706097196049996,-9.943912699385,2.636232478985,10.41075,-3.159187499999998,-52.4278125,16.5,False,0
3.6865651607513428,-3.7316068446999995,-8.204988695399999,2.23190528015,21.586250000000003,20.317500000000003,-41.798750000000005,-3.580320635815,-9.87960559201,2.6458635899499994,10.307500000000001,-1.229812500000001,-52.09750000000001,16.5,False,0
3.6966159343719482,-3.7268211995,-8.324629825399999,2.14935290045,19.06625,20.195,-46.00750000000001,-3.678067439025,-9.806534771862498,2.655434880349999,10.1250625,0.6514375000000004,-52.04631250000001,16.5,False,0
3.706615924835205,-3.84706053515,-8.5220376899,2.0829520732999995,16.00375,22.058750000000003,-48.370000000000005,-3.7652559125125,-9.740253585842497,2.6666512362874992,9.9133125,2.5794999999999995,-52.13731250000002,16.5,False,0
3.7168357372283936,-4.0283168471,-8.82891718835,2.0344974156499998,13.090000000000002,24.49125,-50.15500000000001,-3.850948871875,-9.688179784009998,2.675205577082499,9.758000000000001,4.645374999999999,-52.216937500000014,16.5,False,0
3.7268757820129395,-4.168296969199999,-9.1896351953,1.8831513862,10.920000000000002,25.847500000000004,-50.07625,-3.9358043433274994,-9.643164808847496,2.6751457565174994,9.821437500000002,6.846000000000001,-52.12987500000001,16.5,False,0
3.7369349002838135,-4.289134510499999,-9.3128655592,1.8771693296999998,10.57,25.917500000000004,-46.987500000000004,-4.014378655455,-9.601858708714996,2.6546273027224996,10.164437500000002,9.093875,-51.75975000000002,16.5,False,0
3.7599525451660156,-4.2340995907,-9.20817957045,1.63250321885,15.120000000000001,24.01,-38.972500000000004,-4.0763826710775,-9.550921497617498,2.6201108367174997,10.994375000000002,11.198250000000002,-50.826562500000016,16.5,False,0
3.780867576599121,-3.89611339845,-8.892326987249998,1.4979069475999998,15.146250000000002,21.02625,-37.82625,-4.1071304414875005,-9.473543596789998,2.5560131013199996,12.109125000000002,13.044937500000003,-49.68250000000002,16.5,False,0
3.8012325763702393,-3.9320057374499995,-9.0771725331,1.3010972887499999,10.2025,16.38875,-42.901250000000005,-4.11350133166,-9.380313246237497,2.47142682241,12.999000000000004,14.577500000000004,-48.72743750000002,16.5,False,0
3.8204784393310547,-4.3154555591,-9.943374314299998,1.4428720278,3.6400000000000006,17.150000000000002,-40.635000000000005,-4.1171204758424995,-9.31896725683,2.3824736422549995,13.330187500000005,15.851062500000003,-47.85025000000001,16.5,False,0
3.8339221477508545,-4.52422933095,-10.1706924613,1.6235301341,1.49625,17.71875,-35.42875,-4.1280078186725,-9.3106821085775,2.300788660747499,13.384875000000003,17.08875,-46.691750000000006,16.5,False,0
3.8529582023620605,-4.691726912949999,-10.42851909645,1.6689937635,1.8725000000000003,16.817500000000003,-30.397500000000004,-4.1464325526925006,-9.3178007558125,2.2216759635349996,12.818312500000001,18.0215,-45.29043750000001,16.5,False,0
3.8705661296844482,-4.689334090349999,-10.1862458082,1.62173551715,5.5912500000000005,13.807500000000001,-26.328750000000003,-4.1777785287524996,-9.321569451407498,2.1419650606724994,12.329187500000002,18.6011875,-43.7093125,16.5,False,0
3.882578134536743,-4.633700964899999,-9.807581631749999,1.4081761001,6.2475000000000005,9.248750000000001,-25.042500000000004,-4.194677838365001,-9.320462770955,2.0630916457199993,11.923625000000001,18.7455625,-42.0581875,16.5,False,0
3.892573118209839,-4.554139613449999,-9.732805925500001,1.4943177136999997,5.7225,6.282500000000001,-24.036250000000003,-4.2045482315900005,-9.2984188927525,1.9914565191324995,11.5950625,18.552625,-40.4210625,16.5,False,0
3.9024722576141357,-4.5882373355,-9.567102960449999,1.6707883804499999,3.2462500000000003,4.41,-23.485000000000003,-4.21148741713,-9.269944303812498,1.9261324621524996,11.361437500000001,18.118187499999998,-39.021062500000006,16.5,False,0
3.9126620292663574,-4.668995098249999,-9.61495941245,1.9070796122,-0.035,5.355,-22.382500000000004,-4.216901178262501,-9.249724952842497,1.8637097025749996,10.903812499999999,17.4846875,-37.786875,16.5,False,0
3.922653913497925,-4.76829723615,-9.33858840215,2.07517539985,-2.5200000000000005,7.53375,-20.545,-4.232843358835,-9.252985173634997,1.8305691095649994,10.187187499999999,16.9264375,-36.7469375,16.5,False,0
3.9325928688049316,-4.77069005875,-9.1154576947,2.1236300575,-3.00125,9.7125,-18.3575,-4.272683855125,-9.273533537712497,1.8105890408549996,9.151625,16.4434375,-35.7643125,16.5,False,0
3.9425148963928223,-4.9088755639,-9.147760799799999,2.1786649773,-4.64625,10.5525,-16.35375,-4.3237107970699995,-9.297581404842498,1.7966807594924998,7.909124999999999,15.963937500000004,-34.7025,16.5,False,0
3.95237398147583,-4.89870606785,-9.03469993195,2.2151555219499994,-3.0712500000000005,11.620000000000001,-14.271250000000002,-4.377818498112499,-9.335118809379997,1.7896817533874998,6.620249999999999,15.513750000000005,-33.4770625,16.5,False,0
3.9625606536865234,-4.7629133853,-8.74875763125,2.2295124575500003,-1.1375000000000002,12.083750000000002,-11.908750000000001,-4.4345882142974995,-9.367481735045,1.7908183441224996,5.584687499999999,15.088500000000005,-31.931374999999996,16.5,False,0
3.972489595413208,-4.75035106665,-8.471788415299999,2.1900308846499996,0.77875,11.961250000000001,-12.031250000000002,-4.4836410775974995,-9.3807319901925,1.7950356939549994,4.672499999999999,14.64925,-30.1511875,16.5,False,0
3.9824647903442383,-4.584648101599999,-8.37667371695,2.1128623558,3.6312500000000005,11.357500000000002,-13.615000000000002,-4.522434714,-9.369485723972499,1.7988941203975,4.011,14.070875000000001,-28.308437499999997,16.5,False,0
3.9924187660217285,-4.56610372645,-8.265407466049998,2.1056838879999997,5.565,10.412500000000001,-14.945000000000002,-4.546183478305,-9.34217763605,1.8065810629999999,3.630375,13.353812500000004,-26.4814375,16.5,False,0
4.002457618713379,-4.6217368519,-8.280362607299999,2.24506580445,8.30375,10.5525,-16.07375,-4.561856466335,-9.291629258624997,1.8225531538549997,3.4798750000000007,12.579875000000003,-24.803187500000003,16.5,False,0
4.0124735832214355,-4.7425743932,-8.41017323335,2.31326124855,11.26125,12.433750000000002,-15.828750000000001,-4.57950353301,-9.239017071707499,1.8434006207574996,3.2471250000000005,11.913125000000003,-23.585187500000004,16.5,False,0
4.022465467453003,-4.79820751865,-8.578269020999999,2.29292225645,12.932500000000001,14.822500000000002,-14.551250000000001,-4.6110588810475,-9.207282261975,1.8826130011149995,3.0463125,11.485687500000001,-22.483562500000005,16.5,False,0
4.0325093269348145,-4.788038022599999,-8.640482408599999,2.18404882815,14.586250000000001,17.92,-14.1225,-4.654847534627501,-9.196484649992499,1.9302002605724993,3.132062500000001,11.437562500000002,-21.129937500000004,16.5,False,0
4.043103456497192,-4.7593241513999995,-8.66261601765,1.9034903783,16.336250000000003,19.7925,-14.437500000000002,-4.690590322215,-9.16283558218,1.9647765471424994,3.6561875,11.600750000000001,-19.708937500000005,16.5,False,0
4.055590391159058,-4.6791645942999995,-8.74875763125,1.5619149521499998,16.1875,18.935000000000002,-15.356250000000001,-4.7071007981549995,-9.098438743957498,1.9764415573174996,4.375437500000001,11.7131875,-18.560062500000004,16.5,False,0
4.065768480300903,-4.68454844515,-8.794221260649998,1.3818550515,14.586250000000001,17.071250000000003,-15.618750000000002,-4.7131725855025,-9.013583272504999,1.9657037658999994,5.3099375,11.78625,-17.781312500000006,16.5,False,0
4.075768232345581,-4.64865610615,-8.746364808649998,1.3148560187,13.2475,13.658750000000001,-15.767500000000002,-4.704558424142499,-8.942546351567499,1.9565811297374993,5.8100000000000005,11.805937500000002,-17.202500000000004,16.5,False,0
4.085941314697266,-4.65104892875,-8.7888374098,1.4350953543499998,11.655000000000001,11.033750000000001,-15.653750000000002,-4.703152640865,-8.878867360125,1.9487446357224993,6.1271875,11.874187500000001,-16.722125,16.5,False,0
4.0962371826171875,-4.6313081423,-8.7493558369,1.66480632395,11.173750000000002,9.2925,-15.0675,-4.704947257815,-8.8303827921925,1.948325891767499,6.3695625,11.998000000000001,-16.26625,16.5,False,0
4.10636305809021,-4.5487557626,-8.66620525155,1.58464676685,12.10125,9.940000000000001,-13.7375,-4.7058744765725,-8.784470508555,1.9487745460049992,6.6539375000000005,12.214562500000003,-15.805562499999999,16.5,False,0
4.116461992263794,-4.53380062135,-8.638687791649998,1.5002997702,12.818750000000001,10.648750000000001,-13.842500000000001,-4.7005205360049995,-8.741519342884999,1.9383059471299995,7.203,12.50375,-15.337437500000002,16.5,False,0
4.126549243927002,-4.48833699195,-8.653044727249998,1.3740783780499999,10.5875,10.071250000000001,-13.44875,-4.692115746622499,-8.7021873213975,1.9092032422574998,7.868,12.729062500000001,-14.942812500000002,16.5,False,0
4.13656210899353,-4.41655231395,-8.6596249894,1.23768748985,8.855,8.662500000000001,-14.087500000000002,-4.6772802465025,-8.658069654710001,1.8703796955725,8.5715,12.801250000000001,-14.628687500000002,16.5,False,0
4.146601915359497,-4.502693927549999,-8.7708912403,1.1294122671999998,7.9975000000000005,6.2562500000000005,-14.883750000000001,-4.6569412544025,-8.639465458995002,1.8173188544175,9.200625,12.6931875,-14.493062499999999,16.5,False,0
4.156620979309082,-4.398007938799999,-8.8390866844,1.0366903914499999,7.148750000000001,2.2837500000000004,-15.5225,-4.636123697782499,-8.624749600005,1.7630017813975,9.7628125,12.248687499999999,-14.4781875,16.5,False,0
4.16664981842041,-4.433302072149999,-8.912665979349999,1.1222337993999998,7.3325000000000005,-0.6212500000000001,-15.426250000000001,-4.613062869974998,-8.6234634578575,1.703988794025,10.14125,11.711000000000002,-14.612500000000002,16.5,False,0
4.17665696144104,-4.4829531411,-9.102297170399998,1.37527478935,7.271250000000001,-2.2837500000000004,-14.437500000000002,-4.5986162035275,-8.637640931762498,1.6499110032650002,10.500874999999999,11.014500000000002,-14.7875,16.5,False,0
4.186671733856201,-4.41894513655,-8.921040858449999,1.2927224096499998,4.5062500000000005,-2.75625,-13.151250000000001,-4.587100744764999,-8.663034761604997,1.6054045029050001,10.7830625,10.298312500000002,-14.8491875,16.5,False,0
4.1966798305511475,-4.36749945065,-9.02153940765,1.2825529135999998,5.075,-1.6712500000000001,-12.67875,-4.579234340467499,-8.691210247719997,1.56215423441,10.8548125,9.634625000000002,-14.7844375,16.5,False,0
4.206664562225342,-4.3830527975499995,-8.934201382749999,1.23290184465,2.3625000000000003,-0.385,-12.416250000000002,-4.571278205322501,-8.721629005022498,1.5152250011674997,10.724437499999999,9.0628125,-14.624312499999998,16.5,False,0
4.216696739196777,-4.4590249151000005,-8.988638096899999,1.11924277115,-1.37375,0.11375000000000002,-11.838750000000001,-4.56060023447,-8.754231212947499,1.4632409301824998,10.2816875,8.5015,-14.432687500000005,16.5,False,0
4.226664781570435,-4.496113665399999,-8.96411166525,1.0624132344,-3.3862500000000004,-0.9625000000000001,-11.68125,-4.545525452089999,-8.779296029682499,1.4015360173849998,9.558937499999999,7.816374999999999,-14.249812500000004,16.5,False,0
4.236642599105835,-4.578067839449999,-8.915657007599998,1.0432706536,-4.0512500000000005,-2.9312500000000004,-12.267500000000002,-4.534817570954999,-8.796165429012499,1.3408181439099998,8.6848125,6.9046249999999985,-14.134312500000004,16.5,False,0
4.246622562408447,-4.640879432699999,-8.92343368105,1.0504491214,-3.31625,-5.27625,-13.46625,-4.524827536599999,-8.8085482859675,1.288235867275,7.725375000000002,5.735625000000001,-14.063875000000007,16.5,False,0
4.256579637527466,-4.7234318124,-8.8713897895,1.1341979124,-2.0475000000000003,-7.28875,-15.321250000000001,-4.5224048037174995,-8.818957064277502,1.2509975655625,6.756312500000003,4.448500000000001,-14.025812500000004,16.5,False,0
4.266584634780884,-4.82452856725,-8.914460596299998,1.19940232825,-1.3125000000000002,-7.910000000000001,-17.0275,-4.526741794679999,-8.824430645975001,1.2349656541424998,5.895312500000001,3.1465000000000005,-14.05425,16.5,False,0
4.2765655517578125,-5.026123871299999,-9.1381895094,1.2532408367499999,-0.7962500000000001,-8.0325,-17.176250000000003,-4.5374197655324995,-8.832805525074999,1.2287742256649998,5.1445625,1.9499375000000003,-14.13125,16.5,False,0
4.28661036491394,-5.1044888114499996,-9.3068835027,1.30947216785,-1.4612500000000002,-6.763750000000001,-14.542500000000002,-4.5583868735649995,-8.856733751075,1.2253345431775,4.454625000000001,0.9410624999999992,-14.153124999999998,16.5,False,0
4.296597480773926,-5.147559618249999,-9.249455760299998,1.25204442545,-1.4000000000000001,-5.31125,-12.075000000000001,-4.583242318322499,-8.88275569685,1.2191730249825,3.8364375,0.1286249999999995,-14.053812499999998,16.5,False,0
4.3065783977508545,-5.1158547188,-9.093922291299998,1.1778669248499998,-1.54,-3.7800000000000002,-10.35125,-4.607320095734999,-8.9082093472575,1.2030812929974997,3.1972500000000004,-0.5713750000000009,-13.8788125,16.5,False,0
4.3165693283081055,-5.087739053249999,-8.9814596291,1.1186445655,-1.4700000000000002,-3.33375,-10.535,-4.6351665687425,-8.9289670833125,1.1826226597674996,2.4876250000000004,-1.2403125000000004,-13.696812500000004,16.5,False,0
4.32656717300415,-5.08295340805,-8.867202349949999,1.040877831,-1.09375,-4.26125,-11.672500000000001,-4.664598286722501,-8.942366889872499,1.1666206586299996,1.8274375000000003,-1.9516874999999998,-13.545874999999999,16.5,False,0
4.3365631103515625,-5.136193710899999,-8.885148519449999,1.1712866627,-0.061250000000000006,-4.961250000000001,-13.125000000000002,-4.698785739620001,-8.956275171235001,1.1580962281174996,1.2722499999999999,-2.681,-13.489874999999998,16.5,False,0
4.346648931503296,-5.55075022635,-8.7541414821,1.2017951508499998,0.25375000000000003,-5.836250000000001,-15.085,-4.73264417941,-8.984271195655001,1.1554940335399997,0.8824375000000003,-3.325,-13.456624999999999,16.5,False,0
4.356729030609131,-5.2558348409,-9.2745803976,1.2921242039999998,0.24500000000000002,-5.871250000000001,-13.90375,-4.773292253327501,-8.994440691705,1.1586346132025,0.5403125000000002,-3.7471875,-13.42775,16.5,False,0
4.36675500869751,-5.563312544999999,-9.21176880435,1.3100703735,1.0150000000000001,-4.19125,-11.725000000000001,-4.8281477114325,-9.004251264365001,1.1674282362575,0.203,-4.0394375,-13.310500000000001,16.5,False,0
4.376763105392456,-5.50289377435,-9.251250377249999,1.2000005339,-0.21875000000000003,-3.64875,-10.185,-4.8828237078425,-9.022616177820002,1.1725428945649998,-0.12731249999999997,-4.1575625,-13.1201875,16.5,False,0
4.386785984039307,-5.571089218449999,-9.08494920655,1.25204442545,-0.7962500000000001,-2.3975000000000004,-8.041250000000002,-4.9351966125,-9.040023962235,1.1702697130949997,-0.5245625000000002,-4.181187499999999,-12.8848125,16.5,False,0
4.39679479598999,-5.609374380049999,-9.037092754549999,1.1246266219999999,0.28,-2.1875,-6.8775,-4.9930730091375,-9.048997046985,1.165603709025,-0.8421874999999996,-4.1829375,-12.619687500000001,16.5,False,0
4.407421827316284,-5.55433946025,-9.004789649449998,1.0606186174499999,1.4875,-2.8350000000000004,-4.970000000000001,-5.050919495492501,-9.0574616569325,1.1609676152375,-0.9931249999999998,-4.250312500000001,-12.301187500000001,16.5,False,0
4.417598009109497,-5.52323276645,-8.830113599649998,0.9726823868999999,2.3975000000000004,-3.7100000000000004,-3.2462500000000003,-5.1044589011675,-9.0590169916225,1.1502597341024998,-0.9340624999999998,-4.421812500000001,-11.914000000000001,16.5,False,0
4.427732706069946,-5.3407800432,-8.71047246965,0.8482556117,2.21375,-5.626250000000001,-2.8437500000000004,-5.151507775540001,-9.049565342352498,1.1422736886749998,-0.7144374999999998,-4.6256875000000015,-11.465125,16.5,False,0
4.437844753265381,-5.258825869149999,-8.7373917239,0.84646099475,1.1900000000000002,-6.991250000000001,-3.5787500000000003,-5.188775987535001,-9.038588268674998,1.1314162561274999,-0.44843749999999966,-4.861062500000001,-11.030249999999999,16.5,False,0
4.450660705566406,-5.227719175349999,-8.8486579748,0.9738787981999999,-1.77625,-8.53125,-3.7100000000000004,-5.22125855433,-9.034221367429998,1.123848954655,-0.2948749999999999,-5.0719375000000015,-10.6036875,16.5,False,0
4.460663795471191,-5.4400821811,-9.035298137599998,1.1114660977,-2.7475,-7.437500000000001,-1.2337500000000001,-5.255326366097501,-9.037750780765,1.1256734818875,-0.25287500000000007,-5.180437500000001,-10.0345,16.5,False,0
4.470651626586914,-5.5238309721,-9.14357336025,1.040877831,-3.6750000000000003,-6.64125,1.4875,-5.2961239914275,-9.047082788904998,1.1218449657274998,-0.35000000000000014,-5.1419375,-9.2439375,16.5,False,0
4.480649709701538,-5.5728838354,-9.112466666449999,0.9834500885999999,-6.098750000000001,-7.262500000000001,4.17375,-5.3250771448875,-9.0550090137675,1.1161620120525,-0.5840625000000002,-5.086812500000001,-8.2376875,16.5,False,0
4.490602493286133,-5.47059066925,-9.18185852185,0.99601240725,-4.095000000000001,-8.4875,4.69875,-5.347898690434999,-9.0490269572675,1.0996515361125,-0.7778750000000001,-5.074562500000001,-7.1925,16.5,False,0
4.500590562820435,-5.404189842099999,-9.085547412199999,1.09411813385,-1.9775000000000003,-10.727500000000001,5.608750000000001,-5.364887730894998,-9.040053872517499,1.0870892174625002,-0.8553125000000001,-5.246062500000001,-6.2623750000000005,16.5,False,0
