window size: 20,acc threshold: 14
time,aX,aY,aZ,gX,gY,gZ,faX,faY,faZ,fgX,fgY,fgZ,temp,punchReg,punchCount
0.08726167678833008,4.186841344349999,-7.3914290114,1.5864413838,-44.345000000000006,2.6162500000000004,37.003750000000004,3.9947275998524994,-8.28466968798,1.1175079747649999,-2.2959999999999954,28.282624999999996,45.48468750000001,16.5,False,0
0.09756255149841309,4.362115599799999,-7.0103720123499995,1.6486547713999997,-51.1,2.2575000000000003,35.56,4.0355850457475,-8.2216487227525,1.226620685325,-13.76725,17.847812499999996,37.175250000000005,16.5,False,0
0.10790848731994629,4.64147763835,-6.617949105949999,1.7389838245499998,-58.222500000000004,1.2950000000000002,32.252500000000005,4.167130468182499,-8.170651691089999,1.6147066007625,-24.374875000000007,5.233812500000002,32.934562500000006,16.5,False,0
0.11822843551635742,4.944767902899999,-6.12981329555,1.8472590472,-65.4675,-1.00625,25.926250000000003,4.1993737527175,-8.0676705884425,1.6203895544375002,-26.738687500000005,3.5564375,32.643625,16.5,False,0
0.12842845916748047,5.01475796395,-6.2045890018,2.01655124615,-71.61875,-3.7012500000000004,19.950000000000003,4.2432820474275,-7.953562860705,1.632802321675,-28.352187499999996,3.2865,32.150125,16.5,False,0
0.13863921165466309,5.0117669357,-6.353542208649999,2.3724836078999996,-75.69625,-4.59375,14.446250000000001,4.285126532645,-7.845736292292502,1.6614862825925,-30.841124999999998,2.84375,31.3140625,16.5,False,0
0.14877033233642578,4.9674997176,-6.43609458835,2.7595226634499994,-76.16000000000001,-2.7475,11.891250000000001,4.3205403071249995,-7.7465837058049996,1.707458386795,-33.9880625,2.338,30.319624999999995,16.5,False,0
0.1589963436126709,4.9220360882,-6.2907306154,2.9120651042,-71.70625000000001,-0.35000000000000003,9.266250000000001,4.3574795060125,-7.650840891522501,1.7676079649024998,-37.419375,1.8886874999999992,29.286250000000003,16.5,False,0
0.16914725303649902,4.97886562495,-6.22313337695,3.0185457098999997,-62.142500000000005,1.3825,2.8000000000000003,4.442215336335001,-7.540980423899998,1.7971593240125003,-40.683125,1.5312500000000004,28.141750000000002,16.5,False,0
0.17923331260681152,5.02911489955,-6.410969951049999,3.0837501257499995,-45.885000000000005,0.46375000000000005,-5.3812500000000005,4.4831625130775,-7.431897623622499,1.8715761068724999,-43.2639375,1.2263125000000004,26.649,16.5,False,0
0.1894230842590332,5.124229597899999,-6.807580296999999,2.9467610318999995,-31.981250000000003,-2.24,-16.091250000000002,4.5265025124200005,-7.336094988775,1.9404295771874995,-44.79518749999999,0.9275,24.754187500000008,16.5,False,0
0.1996152400970459,5.09850675495,-7.399205684849999,2.9108686929000003,-16.2225,-7.525,-24.045,4.577379902952499,-7.2649384267074995,2.0021344899849995,-45.30575,0.49831249999999994,22.353187500000008,16.5,False,0
0.20988202095031738,5.067400061149999,-7.977072342749999,2.93539512455,-5.0575,-14.805000000000001,-26.118750000000002,4.6251466241050005,-7.226832726802501,2.0632711074149994,-44.9710625,-0.18900000000000036,19.652500000000003,16.5,False,0
0.22018814086914062,4.8460639706499995,-8.49033279045,3.212962546149999,0.3325,-18.777500000000003,-28.49875,4.66875581599,-7.215915473689999,2.1372691463199995,-44.0733125,-1.1900000000000004,16.774187500000004,16.5,False,0
0.23040413856506348,4.58883554115,-9.0520478958,3.5557343836,-0.34125000000000005,-18.812500000000004,-29.575000000000003,4.703661115667499,-7.230691153245002,2.2250558254574995,-42.886812500000005,-2.2837500000000004,13.753250000000005,16.5,False,0
0.24277496337890625,4.202394691249999,-9.69392255825,3.9379877939499996,-5.031250000000001,-13.72,-29.51375,4.720859528105,-7.2773811042275,2.3288145954499995,-41.691125,-3.275125,10.611562500000003,16.5,False,0
0.25357699394226074,4.086342795149999,-10.030114133549999,4.10189614205,-8.51375,-8.260000000000002,-28.175000000000004,4.727260328559998,-7.357421020197501,2.4541685894075,-40.5881875,-3.931812500000001,7.458500000000001,16.5,False,0
0.2636988162994385,4.099503319449999,-10.158130142649997,4.09591408555,-8.120000000000001,-4.69,-25.628750000000004,4.724089838614999,-7.45675306838,2.5833810098075,-39.4471875,-4.363625000000001,4.329062500000001,16.5,False,0
0.27384400367736816,4.18325211045,-9.990034354999999,3.83868565605,-5.95875,-3.1587500000000004,-22.128750000000004,4.725854545282499,-7.569365281992501,2.7059234372099996,-38.05550000000001,-4.638375000000001,1.3199375000000009,16.5,False,0
0.2839987277984619,4.23948344155,-9.95593663295,3.601198013,-3.5875000000000004,-4.61125,-17.4475,4.7288455735324995,-7.682934624645,2.8196722415575,-36.435,-4.9188125000000005,-1.4966875,16.5,False,0
0.294083833694458,4.27896501445,-9.67238715485,3.3655049868999996,-2.8350000000000004,-9.00375,-12.775,4.73384059071,-7.797311544924999,2.90835622917,-34.5970625,-5.358500000000001,-4.1160000000000005,16.5,False,0
0.30414366722106934,4.31605376475,-9.38285562025,3.3643085755999995,-3.1500000000000004,-12.32,-6.991250000000001,4.737070901219999,-7.912675504527499,2.9957540746349993,-32.333875000000006,-6.017812500000001,-6.503,16.5,False,0
0.31417155265808105,4.3028932404499995,-9.054440718399999,3.4905299677499997,-3.3862500000000004,-12.853750000000002,-6.562500000000001,4.730430818505,-8.0291162343,3.0831220098174996,-29.72768750000001,-6.749750000000001,-8.6104375,16.5,False,0
0.32422852516174316,4.253242171499999,-8.61595597695,3.5653056739999998,-3.2637500000000004,-10.088750000000001,-6.1775,4.704438783012499,-8.144839117292499,3.175335410765,-26.805625,-7.3556875,-10.402,16.5,False,0
0.33430957794189453,4.1204405172,-8.448458394949999,3.5180474276499996,-4.83875,-7.1312500000000005,-7.463750000000001,4.663790709094999,-8.261010654522499,3.257887790465,-23.573374999999995,-7.6733125000000015,-11.9004375,16.5,False,0
0.34434032440185547,4.042075577049999,-8.4323068424,3.49651202425,-6.01125,-3.42125,-8.155000000000001,4.61599407766,-8.3615092037225,3.3190842284599995,-20.146874999999994,-7.722312500000001,-13.14075,16.5,False,0
0.3544454574584961,3.999004770249999,-8.3976109147,3.4564322457,-5.031250000000001,0.15750000000000003,-7.000000000000001,4.568616190179999,-8.46305461281,3.3659536411374993,-16.618874999999996,-7.599375,-14.1973125,16.5,False,0
0.36453843116760254,3.9541393464999994,-8.207381518,3.2482566795,-2.3625000000000003,2.2925000000000004,-5.10125,4.5227039065425,-8.556853258730001,3.3908988167425003,-13.072937500000004,-7.438812500000002,-15.0845625,16.5,False,0
0.37472057342529297,4.055834307,-7.953742322399998,3.01435827035,-0.56,1.9862500000000003,-4.357500000000001,4.4193937907875,-8.651220200017502,3.4357044199275,-9.737437500000002,-7.368375000000002,-15.710625000000002,16.5,False,0
0.3848741054534912,4.108476404199999,-7.731808026249999,2.7320052035499995,0.07875000000000001,-0.8487500000000001,-4.996250000000001,4.371896262177501,-8.730751641185002,3.42508626964,-6.919499999999999,-7.352187500000001,-15.9210625,16.5,False,0
0.3949892520904541,4.1425741262499995,-7.59900637195,2.6261228035,-1.77625,-4.296250000000001,-7.735,4.3233817839625,-8.787581177935001,3.4081271394624992,-4.935875000000001,-7.446250000000001,-15.753499999999999,16.5,False,0
0.4052002429962158,4.074976887799999,-7.624131009249999,2.7308087922499995,-3.3512500000000003,-7.262500000000001,-11.436250000000001,4.26472771998,-8.8184784997575,3.3988848621699987,-3.8307500000000005,-7.511437500000001,-15.235499999999998,16.5,False,0
0.4154052734375,3.8979080153999996,-7.831110164149998,3.0305098229,-3.5262500000000006,-8.21625,-14.166250000000002,4.2119061610849995,-8.8166838828075,3.3988848621699987,-3.4724375000000007,-7.397687500000001,-14.6426875,16.5,False,0
0.42587709426879883,3.69391988875,-8.1391860739,3.2847472241499993,-1.44375,-6.536250000000001,-13.431250000000002,4.1545083289675,-8.799904214325,3.400440196859999,-3.5315000000000003,-6.9335,-13.9978125,16.5,False,0
0.4361600875854492,3.4325040196999996,-8.5351982142,3.5407792423499993,1.9075000000000002,-3.00125,-9.7475,4.099054665212501,-8.778638003467501,3.3962228470274987,-3.6102500000000006,-6.259312500000001,-13.150375000000002,16.5,False,0
0.4463012218475342,3.5653056739999998,-8.408378616399999,3.3224341800999997,3.2637500000000004,-1.05,-4.9,4.050749558975,-8.72973469158,3.380280666454999,-3.36875,-5.463500000000002,-12.0693125,16.5,False,0
0.4571540355682373,3.55872541185,-8.27497875645,3.2105697235499995,3.2987500000000005,1.8725000000000003,-2.975,4.0173995939875,-8.660043733355,3.342533889939999,-2.8691250000000004,-4.893000000000001,-10.800562500000002,16.5,False,0
0.4674389362335205,3.6251262389999996,-8.303094422,2.9204399833,1.82875,1.7675,-3.7362500000000005,3.9930825343150005,-8.568548179187498,3.28725968788,-2.296875000000001,-4.434062500000001,-9.592625000000002,16.5,False,0
0.4776461124420166,3.7429727520499996,-8.33599573275,2.7714867764499997,0.8137500000000001,-0.043750000000000004,-5.13625,3.9694534111400004,-8.473822314509999,3.2298319454799995,-1.8869375000000006,-4.1873125,-8.6069375,16.5,False,0
0.4878978729248047,3.8285161599999995,-8.41495887855,2.7218357075,1.5137500000000002,-4.2525,-6.116250000000001,3.9477684563275006,-8.390133344074998,3.1767711043249998,-1.6113125000000004,-4.120375,-7.895999999999999,16.5,False,0
0.4981389045715332,3.83390001085,-8.4059857938,2.9162525437499998,2.45,-7.411250000000001,-7.393750000000001,3.9295231840024996,-8.315656740649999,3.14751884804,-1.3628125000000006,-4.1094375,-7.452375000000001,16.5,False,0
0.5083787441253662,3.8446677125499997,-8.5268233351,3.15314198115,3.1850000000000005,-7.7875000000000005,-7.481250000000001,3.9143287604924994,-8.260741461979999,3.1318458600099994,-1.0810625000000005,-3.9668125000000005,-7.269500000000001,16.5,False,0
0.5186526775360107,3.7411781350999993,-8.58604569445,3.4199417010499995,3.9550000000000005,-5.670000000000001,-5.74875,3.8907295475999994,-8.2272718558625,3.1256544315324994,-0.7205625000000004,-3.6824375000000003,-7.2366875,16.5,False,0
0.5288467407226562,3.7232319655999997,-8.5950187792,3.5605200288,3.7100000000000004,-2.33625,-4.130000000000001,3.866621859905,-8.216145230772499,3.1207491452025,-0.3469375000000004,-3.3114375000000003,-7.190312500000002,16.5,False,0
0.5390267372131348,3.7435709577,-8.608179303499998,3.4899317620999994,2.87,0.8662500000000001,-3.08875,3.84179632543,-8.2193157207175,3.1194330927724994,0.020124999999999883,-2.904125,-7.036750000000002,16.5,False,0
0.549170732498169,3.71784811475,-8.614161359999999,3.3535408738999997,2.3275,2.7825,-3.10625,3.8243586307324997,-8.237052518239999,3.1197022853149994,0.40862500000000007,-2.5235,-6.7930625,16.5,False,0
0.5592434406280518,3.7806597079999995,-8.6464644651,3.0723842184,1.1287500000000001,1.11125,-3.9550000000000005,3.8103606185225005,-8.247042552595,3.1015467438374995,0.7713125000000002,-2.32575,-6.556375,16.5,False,0
0.5693855285644531,3.7884363814499995,-8.7445701917,3.0077780082,0.31500000000000006,-1.9162500000000002,-5.171250000000001,3.796512157725,-8.266035581982498,3.0894330794249996,0.9909375000000002,-2.4202500000000002,-6.461875000000001,16.5,False,0
0.579554557800293,3.8554354142499996,-8.880362874249998,3.07537524665,0.043750000000000004,-5.74,-5.50375,3.7947773613399995,-8.302197113525,3.082314432189999,1.0823750000000003,-2.7461875000000004,-6.500812499999999,16.5,False,0
0.589712381362915,3.7633117441499992,-8.841479506999999,3.17707020715,2.31,-6.86875,-5.495,3.7797923098074997,-8.35346333773,3.0908986832674996,1.1278750000000002,-3.1320625,-6.559875000000001,16.5,False,0
0.5999183654785156,3.72024093735,-8.89711263245,3.3559336964999993,5.398750000000001,-6.0025,-4.322500000000001,3.7620555122849995,-8.415168250527502,3.1184161431674995,1.3370000000000002,-3.3705000000000007,-6.5200625,16.5,False,0
0.6101114749908447,3.6969109170000003,-8.924630092349998,3.4480573665999996,8.242500000000001,-3.7625,-1.2512500000000002,3.7486257954424986,-8.4761852268275,3.1537401867999995,1.7701250000000002,-3.3551875000000004,-6.2050625,16.5,False,0
0.6204643249511719,3.7005001509,-8.781658942,3.50249408075,8.96875,-0.29750000000000004,1.04125,3.732025588654998,-8.53376252064,3.1818558523499996,2.4333750000000007,-3.0428124999999997,-5.5400624999999994,16.5,False,0
0.6305742263793945,3.6927234774499995,-8.711070675299998,3.1088747630499998,3.6400000000000006,2.3887500000000004,0.5425000000000001,3.724877031137499,-8.574261043145,3.1864022152899993,3.0038750000000007,-2.6088125,-4.771812499999999,16.5,False,0
0.6430072784423828,3.7339996672999995,-8.67338371935,2.92223460025,-3.08875,2.87,-0.25375000000000003,3.727359584584999,-8.595198240895,3.1706095861299994,3.0778125000000007,-2.1695624999999996,-4.164562500000001,16.5,False,0
0.6532251834869385,3.784248941899999,-8.65663396115,2.9036902250999996,-7.5600000000000005,1.77625,-1.9687500000000002,3.7426437389425,-8.611648896270001,3.1486255284924995,2.6551875000000007,-1.9635000000000002,-3.8023125000000007,16.5,False,0
0.6634368896484375,3.7621153328499997,-8.65663396115,2.9617161731499997,-7.367500000000001,0.25375000000000003,-2.9137500000000003,3.755116326745,-8.622954983055,3.1301409739075,2.0925625,-1.9188750000000003,-3.7502500000000003,16.5,False,0
0.6736650466918945,3.7459637803,-8.62552726735,3.00119774605,-4.47125,-1.5137500000000002,-2.7475,3.7641492320600003,-8.641559178769999,3.1286155495,1.6493750000000003,-2.0763749999999996,-3.7428125000000003,16.5,False,0
0.6839900016784668,3.6993037396,-8.65902678375,3.1304101664499995,-0.9975,-2.07375,-2.6950000000000003,3.7660036695750003,-8.659146424879998,3.14201535606,1.4358750000000002,-2.2465624999999996,-3.6649375000000006,16.5,False,0
0.6941490173339844,3.7028929734999996,-8.603991863949998,3.1567312150499998,1.2600000000000002,-1.1462500000000002,-1.3825,3.7627135385000003,-8.674011835282498,3.1609485648825,1.4100625000000002,-2.2264375,-3.5043750000000005,16.5,False,0
0.7043290138244629,3.7250265825499995,-8.48195791135,3.12323169865,0.8137500000000001,0.3325,-0.77875,3.7543685696825,-8.683164381727497,3.1785956315575,1.3982500000000004,-1.9359375,-3.2151875,16.5,False,0
0.7144477367401123,3.6664024288499992,-8.35753113615,3.0167510929499994,-2.5025000000000004,2.1437500000000003,-2.2225,3.739204056455,-8.680651917997498,3.1811080952874997,1.2271875,-1.4721875000000004,-2.9028125,16.5,False,0
0.7246007919311523,3.6675988401499993,-8.36949524915,2.9192435719999996,-7.892500000000001,2.87,-4.1825,3.7331322691074993,-8.672247128614998,3.1619356042049995,0.7980000000000002,-0.9393125000000001,-2.715125,16.5,False,0
0.7347836494445801,3.6047872469,-8.35394190225,2.9587251449000003,-10.561250000000001,2.7387500000000005,-6.20375,3.7271502126075,-8.661270054937498,3.1339395797849994,0.14875,-0.5766250000000002,-2.6976249999999995,16.5,False,0
0.7449796199798584,3.553341561,-8.422735551999999,2.9449664149499997,-11.620000000000001,2.45875,-8.172500000000001,3.7201811167849996,-8.649276031654997,3.1045975926524996,-0.608125,-0.41693750000000024,-2.8713125,16.5,False,0
0.7552258968353271,3.5736805530999995,-8.4789668831,2.9946174838999995,-11.357500000000002,2.1350000000000002,-8.496250000000002,3.7091143122599997,-8.640003844079999,3.07621273456,-1.2901875,-0.38937499999999997,-3.1478125000000006,16.5,False,0
0.7655787467956543,3.4731820038999994,-8.61954521085,3.0113672421,-9.572500000000002,0.9537500000000001,-7.32375,3.698675623667499,-8.635636942835,3.0707989734274994,-1.8781875,-0.43881250000000005,-3.384062500000001,16.5,False,0
0.7758386135101318,3.4606196852499997,-8.64227702555,3.1082765574,-6.755000000000001,0.805,-5.468750000000001,3.683002635637499,-8.633692774472498,3.0688847153475,-2.3655625000000002,-0.3981250000000003,-3.4811875000000008,16.5,False,0
0.7997024059295654,3.3792637168499997,-8.519644867299998,3.2560333529499994,-0.9275000000000001,2.8875,-5.6000000000000005,3.6616766042149997,-8.622984893337499,3.0834809332074995,-2.4565625000000004,-0.09143750000000014,-3.4746250000000005,16.5,False,0
0.820216178894043,3.41395964455,-8.636893174699999,3.1351958116499996,-3.9550000000000005,5.0575,-10.797500000000001,3.6454353208175,-8.608269034347499,3.0891040663175,-2.723,0.46637499999999993,-3.6531250000000006,16.5,False,0
0.8409333229064941,3.3846475676999996,-8.9443708788,3.0771698636,-7.918750000000001,3.6225000000000005,-10.75375,3.6277882541424993,-8.604410607904999,3.0814171237149997,-3.2580625000000003,1.07625,-3.9943750000000007,16.5,False,0
0.8564660549163818,3.43070940275,-8.9407816449,3.10049988395,-4.83,1.1025,-7.183750000000001,3.614418357865,-8.608269034347497,3.062304453197499,-3.9628750000000013,1.4315,-4.2774375000000004,16.5,False,0
0.8770992755889893,3.52761871805,-8.7433737804,3.0933214161499993,4.340000000000001,-1.6187500000000001,-5.617500000000001,3.6022448728875,-8.606115494007499,3.0471100296874996,-4.344375000000001,1.5076250000000002,-4.5386250000000015,16.5,False,0
0.8911211490631104,3.5676984965999994,-8.7708912403,3.2512477077499997,3.3600000000000003,-0.7612500000000001,-7.218750000000001,3.5972199454275007,-8.608239124065,3.0421449227924997,-4.546500000000001,1.3645625000000003,-4.893875000000001,16.5,False,0
0.9078488349914551,3.5850464604499996,-8.977870395199998,3.3607193417,0.41125000000000006,3.0275000000000003,-6.580000000000001,3.5872299110725003,-8.618049696724999,3.0586254884499993,-4.474312500000001,1.2648125000000001,-5.277562500000001,16.5,False,0
0.9227221012115479,3.6729826909999996,-8.9288175319,3.26321182075,-1.6275000000000002,5.442500000000001,-6.0025,3.582115252765,-8.634679813795,3.0803104432624995,-4.2385,1.3527500000000001,-5.545750000000001,16.5,False,0
0.9329488277435303,3.64845625935,-8.95095114095,3.20219484445,-4.69,5.425000000000001,-6.0200000000000005,3.575325618637499,-8.649425583067499,3.09703029118,-3.994812500000001,1.57675,-5.714625000000001,16.5,False,0
0.942990779876709,3.5545379723,-8.974281161299999,3.1124639969499994,-8.28625,4.138750000000001,-5.836250000000001,3.5691341901599998,-8.6654574944875,3.1055248114099996,-3.9725000000000015,1.84625,-5.8611875000000015,16.5,False,0
0.953413724899292,3.4791640604,-8.977870395199998,3.0927232104999995,-10.5875,2.7125000000000004,-4.987500000000001,3.5582169370475,-8.6808313796925,3.1055547216924997,-4.258625000000002,2.1284374999999995,-6.005562500000002,16.5,False,0
0.9636297225952148,3.3726834546999997,-8.997012975999999,3.1417760737999996,-12.39,1.1987500000000002,-4.2525,3.5479876204324996,-8.697940061282498,3.1033114505049992,-4.858000000000002,2.3235625,-6.137687500000001,16.5,False,0
0.9738306999206543,3.30867545015,-8.9790668065,3.31346109535,-13.265,-0.30625,-2.1875,3.5298320789549997,-8.7194754646825,3.1056743628224996,-5.564562500000003,2.365125,-6.262375000000001,16.5,False,0
0.9840085506439209,3.357728313449999,-8.8713897895,3.3834511564,-11.9525,0.6562500000000001,-0.5162500000000001,3.5128729487775,-8.745856333847499,3.1179973992124994,-6.167437500000003,2.309125,-6.275062500000002,16.5,False,0
0.9941575527191162,3.4695927699999998,-8.7361953126,3.44745916095,-9.8,2.98375,0.49000000000000005,3.4957343569050003,-8.767810481202499,3.1430622159474995,-6.490750000000003,2.2277500000000003,-6.099625000000001,16.5,False,0
1.0043187141418457,3.6083764807999996,-8.592027750949999,3.3128628897,-10.92875,3.6575,0.83125,3.48777822176,-8.782705801887499,3.1676783784449993,-6.538875000000002,2.2575000000000003,-5.816125000000002,16.5,False,0
1.0144524574279785,3.6436706141499995,-8.49511843565,3.2273194817499995,-12.950000000000001,3.325,0.14875000000000002,3.4905000574675,-8.791948079179999,3.185534817097499,-6.564687500000001,2.3043125000000004,-5.426750000000001,16.5,False,0
1.0246856212615967,3.54436847625,-8.498707669549999,3.3032915992999996,-14.638750000000002,2.87,-0.7000000000000001,3.4950464204075,-8.793832426977499,3.2042586539424986,-6.705125000000001,2.33625,-5.007625000000002,16.5,False,0
1.0349245071411133,3.4719855925999994,-8.53579641985,3.4025937371999997,-13.623750000000001,1.6975000000000002,-0.8750000000000001,3.4952857026674997,-8.792516374547498,3.2235208758724996,-6.912937500000001,2.3655625000000002,-4.6567500000000015,16.5,False,0
1.0452194213867188,3.36729960385,-8.56092105715,3.4229327292999994,-10.211250000000001,2.09125,-0.37625000000000003,3.4939098296725,-8.787072703132498,3.2412875836774995,-7.073062500000001,2.4320625000000007,-4.367562500000003,16.5,False,0
1.0555222034454346,3.3750762772999994,-8.51306460515,3.3260234139999993,-8.65375,1.4000000000000001,-0.052500000000000005,3.4942089324975,-8.784470508554998,3.2395527872924994,-7.4563125,2.4290000000000007,-4.114687500000002,16.5,False,0
1.0657742023468018,3.4253255519,-8.46999379835,3.3152557123,-8.11125,1.4262500000000002,-0.24500000000000002,3.4941790222150004,-8.781329928892498,3.2455348437924996,-7.6645625,2.26275,-3.6645000000000025,16.5,False,0
1.0759871006011963,3.4642089191499994,-8.52143948425,3.3631121643,-7.918750000000001,1.8637500000000002,-0.69125,3.4963325625549997,-8.7652381969075,3.2553454164524993,-7.7275625,2.0772500000000003,-3.0765000000000002,16.5,False,0
1.0862390995025635,3.4624143021999996,-8.5938223679,3.3475588174,-7.367500000000001,3.1675000000000004,-1.5050000000000001,3.4970803196175004,-8.743313959834998,3.2689545949899994,-7.762125,2.1026250000000006,-2.6884375,16.5,False,0
1.0963730812072754,3.5952159564999997,-8.6476608764,3.3320054704999995,-3.4125000000000005,5.27625,-2.9400000000000004,3.4985160131775004,-8.73368284887,3.2834012614374997,-8.209687500000001,2.2964375000000006,-2.5178125000000002,16.5,False,0
1.1197659969329834,3.5629128513999997,-8.6919280945,3.2506495021,-3.8062500000000004,4.357500000000001,-4.41875,3.4989347571325,-8.7272521381325,3.2914770377124993,-8.567125,2.645125,-2.3795625,16.5,False,0
1.1299700736999512,3.5413774479999995,-8.7708912403,3.1399814568499997,-4.357500000000001,4.01625,-4.87375,3.5006097329525,-8.718966989879998,3.2857641737549996,-8.856750000000002,2.8030625000000002,-2.225125,16.5,False,0
1.1401951313018799,3.4151560558499994,-8.8510507974,3.1836504693,-6.545000000000001,3.2637500000000004,-5.923750000000001,3.492145123005,-8.7099639948475,3.2778080386099995,-9.0855625,2.781625,-2.18225,16.5,False,0
1.1504120826721191,3.4241291405999994,-9.019744790699999,3.1752755902,-7.586250000000001,2.87,-5.915000000000001,3.481018497915,-8.708139467614998,3.2730822139749995,-9.3078125,2.653875,-2.1918749999999996,16.5,False,0
1.1605839729309082,3.376870894249999,-9.20100110265,3.3254252083499996,-7.271250000000001,2.4762500000000003,-5.3812500000000005,3.4689048335025,-8.713882241855,3.27469736923,-9.4224375,2.5484375,-2.195375,16.5,False,0
1.1707179546356201,3.3714870433999997,-9.27039295805,3.3224341800999997,-5.626250000000001,2.31875,-4.296250000000001,3.462234840505,-8.7268932147425,3.2841191082174994,-9.303437500000001,2.4850000000000003,-2.1573125,16.5,False,0
1.1807918548583984,3.3744780716499996,-9.27039295805,3.2751759337499995,-4.235,2.56375,-2.9487500000000004,3.4545179876199996,-8.740263111019999,3.2962028623474993,-8.975750000000001,2.50425,-2.0921250000000007,16.5,False,0
1.1909205913543701,3.5174492219999998,-9.25244678855,3.3068808331999993,-4.4275,1.6975000000000002,-2.09125,3.4551461035524995,-8.7547097774675,3.3005099430274987,-8.546125,2.583875,-2.0479375,16.5,False,0
1.2010626792907715,3.3457642004499997,-9.242277292499999,3.2709884942,-4.978750000000001,1.33,-1.54,3.455534937225,-8.770023842107502,3.2970104399749993,-8.134875000000001,2.6648125,-2.0654375000000007,16.5,False,0
1.2111577987670898,3.2997023654,-9.1190469286,3.4121650276,-4.4975000000000005,2.0562500000000004,-1.00625,3.4531122043425,-8.7828553533,3.294468065962499,-7.8264375,2.646,-2.1494375000000003,16.5,False,0
1.2213144302368164,3.3415767608999998,-8.98923630255,3.4211381123499995,-4.2525,3.5175000000000005,0.32375000000000004,3.4451859794799993,-8.803852371615,3.296531875455,-7.557374999999999,2.5991875,-2.2185625,16.5,False,0
1.2315196990966797,3.3906296242,-8.74995404255,3.4025937371999997,-4.68125,4.445,1.8200000000000003,3.4321750065924994,-8.8222471953525,3.301407251502499,-7.1614375,2.6175625000000005,-2.2067500000000004,16.5,False,0
1.241668462753296,3.5563325892499997,-8.5531443837,3.2787651676499996,-5.845000000000001,4.768750000000001,2.42375,3.4249965387924997,-8.831579203492499,3.3030224067575,-6.697250000000001,2.6954375000000006,-2.0886250000000004,16.5,False,0
1.251868724822998,3.6406795858999996,-8.516653839049999,3.2787651676499996,-6.41375,3.9112500000000003,1.7062500000000003,3.427359451109999,-8.833523371854998,3.2972796325175,-6.2895,2.82975,-1.9245625,16.5,False,0
1.2620012760162354,3.6813575701,-8.4514494232,3.3774690999,-5.71375,3.8237500000000004,1.4525000000000001,3.4410882707775,-8.830801536147499,3.2947073482225,-6.009500000000001,2.9076250000000003,-1.8178125000000005,16.5,False,0
1.2727322578430176,3.6675988401499993,-8.426324785899999,3.3942188580999995,-4.366250000000001,4.235,0.36750000000000005,3.4559237708975,-8.833702833550001,3.3032915992999996,-5.816562500000001,3.0218125000000002,-1.7570000000000001,16.5,False,0
1.2828483581542969,3.6466616424,-8.516055633399999,3.3702906320999997,-4.567500000000001,3.98125,-0.45500000000000007,3.4680673455925004,-8.831190369820002,3.3066116406574992,-5.620125,3.1666250000000002,-1.7543750000000002,16.5,False,0
1.2929432392120361,3.5611182344499994,-8.624929061699998,3.33619291005,-5.390000000000001,3.0450000000000004,-0.41125000000000006,3.47844621362,-8.833792564397502,3.3085558090199996,-5.437250000000001,3.2711875,-1.764875,16.5,False,0
1.303159236907959,3.51565460505,-8.70568682445,3.4205399066999997,-6.326250000000001,2.77375,0.24500000000000002,3.4828430251475,-8.8397746208975,3.3110981830324997,-5.3252500000000005,3.2983125000000006,-1.71675,16.5,False,0
1.3133342266082764,3.4444681327,-8.67936577585,3.5294133349999997,-5.50375,4.62875,1.65375,3.4829327559950003,-8.845367843725,3.3123843251799996,-5.2333750000000006,3.2786250000000003,-1.5872500000000003,16.5,False,0
1.3235323429107666,3.4073793824000003,-8.60638468655,3.5916267225999996,-3.2550000000000003,6.973750000000001,2.9925,3.472882901074999,-8.847312012087501,3.3274291972774996,-5.288500000000001,3.3044375,-1.2998125000000003,16.5,False,0
1.3337881565093994,3.4534412174499995,-8.489136379149999,3.4516466004999993,-2.77375,9.992500000000001,3.4037500000000005,3.4657642538399998,-8.837830452535,3.3435807498275,-5.260937500000002,3.5266875000000004,-0.92225,16.5,False,0
1.344095230102539,3.5850464604499996,-8.335397527099998,3.3158539179499997,-3.3775000000000004,11.173750000000002,2.765,3.4745279666124995,-8.817940114672501,3.3563823507375,-5.112625,3.8854375000000005,-0.49175,16.5,False,0
1.3542749881744385,3.62333162205,-8.238488211799998,3.2602207924999993,-4.112500000000001,11.445,0.9450000000000001,3.4828131148650003,-8.786055753527501,3.36514606351,-4.944187500000001,4.308937500000001,-0.093625,16.5,False,0
1.3644311428070068,3.51086895985,-8.28215722425,3.1645078884999998,-3.9987500000000002,9.922500000000001,-0.9800000000000001,3.4927732389374997,-8.7446001019825,3.3640692933399996,-4.731562500000001,4.736812500000001,0.2244375,16.5,False,0
1.374600887298584,3.4181470840999997,-8.4012001486,3.0604201053999995,-2.7125000000000004,7.936250000000001,-2.2575000000000003,3.4971700504649994,-8.700602076424998,3.354318541245,-4.572750000000001,5.0701875,0.38631250000000006,16.5,False,0
1.3848021030426025,3.2859436354499993,-8.47358303225,3.1172496421499996,-1.54,6.44,-1.6887500000000002,3.4979776280925003,-8.66046247731,3.34205532542,-4.437125000000001,5.2941875000000005,0.45500000000000007,16.5,False,0
1.3949029445648193,3.14715992465,-8.511868193849999,3.22612307045,1.0325000000000002,6.527500000000001,-0.24500000000000002,3.4905299677499997,-8.620442519325,3.3370004876775,-4.276125000000001,5.500687500000001,0.5271875,16.5,False,0
1.4052517414093018,3.0586254884499997,-8.4000037373,3.26321182075,4.0425,8.575000000000001,1.9862500000000003,3.47832657249,-8.581708703487497,3.33810716813,-3.9344375000000005,5.767125000000001,0.6483749999999999,16.5,False,0
1.4155168533325195,2.9976085121499993,-8.270193111249998,3.1387850455499997,6.798750000000001,11.357500000000002,1.9162500000000002,3.4624442124824997,-8.54847837963,3.3309586106125004,-3.4216875,6.186250000000001,0.8338750000000001,16.5,False,0
1.4257686138153076,3.03110802855,-8.245068473949999,3.0053851856,7.3325000000000005,12.801250000000001,1.5837500000000002,3.4456944542825,-8.507441472039998,3.3121749532024998,-2.8253749999999997,6.675375000000001,0.9563750000000002,16.5,False,0
1.4360888004302979,3.1238299042999995,-8.21635460275,3.00478697995,8.505,12.4075,-0.12250000000000001,3.4311580569875004,-8.47669370163,3.2908489217799994,-2.2334375,7.123812500000001,0.9428125000000002,16.5,False,0
1.4462344646453857,3.19740919925,-8.199006638899998,3.1453653077,11.66375,10.64,-1.4087500000000002,3.416292646585,-8.445916020937501,3.2771201021125003,-1.5430625000000002,7.485625000000001,0.8001874999999998,16.5,False,0
1.4563705921173096,3.2285158930499995,-8.48793996785,3.2781669619999994,16.14375,9.135000000000002,-2.21375,3.4002906454474995,-8.4357465248875,3.2734112270824993,-0.5595625000000004,7.773500000000001,0.5989375000000001,16.5,False,0
1.466578722000122,3.260818998149999,-8.764909183799999,3.3068808331999993,21.315,8.426250000000001,-2.4062500000000004,3.3733414809149993,-8.43984423359,3.273231765387499,0.728875,8.0250625,0.4165000000000001,16.5,False,0
1.4767405986785889,3.2578279698999997,-9.01675376245,3.3960134750499993,24.220000000000002,9.16125,-2.6862500000000002,3.3509685896049985,-8.455965875857501,3.2719157129574987,2.1476875,8.2508125,0.224875,16.5,False,0
1.4869375228881836,3.1633114771999993,-9.387043059799998,3.38763859595,24.106250000000003,9.52875,-2.02125,3.330180943267499,-8.493383639265002,3.2724540980424996,3.6015,8.498000000000001,0.11287500000000003,16.5,False,0
1.4972155094146729,3.17826661845,-9.72981489725,3.41874528975,23.3975,10.508750000000001,-0.9887500000000001,3.3054750499224994,-8.542017758610001,3.2776883974799995,5.021187500000001,8.8178125,0.049,16.5,False,0
1.5104594230651855,3.22014101395,-10.1001041946,3.38404936205,21.7875,8.916250000000002,2.4675000000000002,3.2894431385024996,-8.603932043385,3.277269653525,6.437375,9.160375,0.08312499999999998,16.5,False,0
1.520620346069336,3.4109686163,-10.341779277199999,3.3493534343499998,20.25625,6.947500000000001,5.94125,3.281756195899999,-8.6801135329125,3.2719157129574996,7.7826875000000015,9.402750000000001,0.23450000000000001,16.5,False,0
1.5307421684265137,3.4977084355499994,-10.369296737099999,3.3415767608999998,17.368750000000002,5.1537500000000005,9.572500000000002,3.2834909922849986,-8.76443061928,3.2601908822174996,8.955187500000001,9.4338125,0.5105625,16.5,False,0
1.5409343242645264,3.6717862797,-10.41775139475,3.3427731722,13.816250000000002,3.0537500000000004,11.016250000000001,3.2897422413274997,-8.855298057515,3.251157976902499,9.892312500000001,9.219875000000002,0.8666875,16.5,False,0
1.5510411262512207,3.7938202322999994,-10.45484014505,3.41874528975,9.61625,1.7937500000000002,12.17125,3.2914172171474987,-8.9566640049075,3.2454451129449993,10.585312500000002,8.792875000000002,1.2726875000000004,16.5,False,0
1.561094045639038,3.8362928334499995,-10.477571959749998,3.409772205,6.4225,0.7612500000000001,13.965000000000002,3.3061031658549993,-9.0661954594225,3.2490642571274995,11.1969375,8.273125000000004,1.8221875000000005,16.5,False,0
1.5711781978607178,3.8835510797999997,-10.532008673899998,3.4863425282,4.567500000000001,0.42875,16.266250000000003,3.3194132415675,-9.177730902865001,3.2633015515974995,11.669875000000001,7.7402500000000005,2.5370625,16.5,False,0
1.5811638832092285,3.8524443859999993,-10.4949199236,3.4881371451499996,3.325,0.9450000000000001,18.961250000000003,3.33966250282,-9.28714271625,3.2846574933024995,12.047437500000001,7.3141250000000015,3.487750000000001,16.5,False,0
1.591261863708496,3.8901313419499997,-10.3800644388,3.38644218465,2.0300000000000002,1.7237500000000001,22.5575,3.3659237308549996,-9.387820727145002,3.3049067545549997,12.318687500000001,7.025812500000001,4.6331250000000015,16.5,False,0
1.6014149188995361,3.864408499,-10.1479606466,3.2841490184999995,-0.9625000000000001,2.65125,25.40125,3.3968808732424995,-9.478389062555,3.313371364502499,12.423687500000003,6.8228125,5.885250000000001,16.5,False,0
1.6117229461669922,3.8835510797999997,-9.843473970749999,3.1692935337,-5.398750000000001,2.8525000000000005,26.880000000000003,3.436153074165,-9.5564848101625,3.311606657835,12.143250000000002,6.599687500000002,7.151375000000002,16.5,False,0
1.6219477653503418,3.9170505961999997,-9.47617570165,3.0293134116,-10.0975,2.4762500000000003,27.965000000000003,3.482125178367501,-9.62285572703,3.3067911023524994,11.488312500000003,6.252750000000001,8.408750000000001,16.5,False,0
1.632258653640747,3.91525597925,-9.046065839299999,2.91744895505,-14.971250000000001,0.55125,27.18625,3.5278280900275005,-9.672955450217499,3.301078238395,10.509625000000003,5.735625000000001,9.7006875,16.5,False,0
1.6428947448730469,3.9050864831999994,-8.734400695649999,2.9288148624000003,-19.250000000000004,-1.7062500000000003,26.355000000000004,3.5697623060925006,-9.70277600187,3.2975488250600002,9.301250000000003,5.0767500000000005,10.992625,16.5,False,0
1.6530356407165527,3.91405956795,-8.359923958749999,2.9706892578999997,-21.656250000000004,-2.7475,26.801250000000003,3.6060135684825,-9.728528755102499,3.2931819238149997,7.831687500000003,4.36975,12.3501875,16.5,False,0
1.6633036136627197,3.7782668854,-7.9543405280499995,2.9742784917999994,-24.185000000000002,-2.5987500000000003,26.556250000000002,3.636791249175,-9.718359259052498,3.2833414408725,6.020000000000003,3.7056250000000004,13.782125000000002,16.5,False,0
1.673555612564087,3.7292140221,-7.67916592905,2.9730820805,-26.075000000000003,-1.7500000000000002,26.390000000000004,3.666222967155,-9.682526740617499,3.2673693500175007,3.804500000000002,3.1692500000000003,15.210562500000004,16.5,False,0
1.6838157176971436,3.6382867632999996,-7.40518774135,2.98205516525,-27.8775,-0.7087500000000001,26.0575,3.6902409240025,-9.614361206799998,3.247239729894999,1.2932500000000016,2.66,16.672687500000002,16.5,False,0
1.6940374374389648,3.58145722655,-7.214958344649999,2.9724838748499995,-27.098750000000003,1.1462500000000002,25.751250000000002,3.708486196327499,-9.522566549807499,3.2284560724849998,-1.3107499999999994,2.2071875,18.0840625,16.5,False,0
1.7043943405151367,3.6729826909999996,-6.980461729849999,2.9647072013999995,-23.5725,3.5262500000000006,22.995,3.7308291773549995,-9.398498697997498,3.208266631797499,-3.787437500000002,1.8156249999999996,19.407500000000002,16.5,False,0
1.7145545482635498,3.7046875904499994,-6.8183479987,2.77746883295,-19.39,4.0512500000000005,21.035000000000004,3.7505400535224993,-9.24299513928,3.1847571497524996,-6.012125000000002,1.5098125,20.48025,16.5,False,0
1.7247092723846436,3.5186456332999994,-6.65503785625,2.64945282385,-16.021250000000002,3.8150000000000004,18.445,3.7655849256199985,-9.06724231931,3.155205790642499,-7.9568125000000025,1.3264999999999998,21.3049375,16.5,False,0
1.7349152565002441,3.5856446661,-6.99840789935,2.4681965119,-15.25125,2.31875,16.458750000000002,3.779044552744999,-8.88622528962,3.1239495454299995,-9.708562500000001,1.1978750000000005,21.737625,16.5,False,0
1.7451374530792236,3.569493113549999,-6.729215356849999,2.74875496175,-13.527500000000002,1.4087500000000002,15.085,3.7850565195274988,-8.7114595089725,3.082673355579999,-11.2923125,1.0583125,22.035125,16.5,False,0
1.7554020881652832,3.6550365214999996,-6.8757757411,2.6727828442,-8.006250000000001,2.7825,14.945000000000002,3.776741460992499,-8.5278701949875,3.049592583134999,-12.4648125,1.0460625000000001,22.183875,16.5,False,0
1.7656362056732178,3.7286158164499996,-6.975077879,2.60279278315,-1.5662500000000001,2.7300000000000004,16.966250000000002,3.766721516354999,-8.351100425412499,3.010619485037499,-13.144250000000003,1.1497500000000003,22.321687500000003,16.5,False,0
1.7758982181549072,3.74536557465,-6.80578568005,2.5202404034499994,4.9262500000000005,2.3537500000000002,18.523750000000003,3.7587354709275,-8.173642719339998,2.9668009211749995,-13.338937500000004,1.2792500000000004,22.4809375,16.5,False,0
1.7861700057983398,3.8291143656499997,-6.567699831349999,2.4592234271499995,7.420000000000001,2.8262500000000004,14.840000000000002,3.7537105434674998,-7.982007539362499,2.9159833512075,-13.209,1.3680625000000004,22.5080625,16.5,False,0
1.7963430881500244,3.978067572499999,-6.549155456199999,2.35872487795,5.2675,4.20875,5.95875,3.7570604951075,-7.7865139329424995,2.8630122409,-13.002937500000002,1.4844375000000003,22.05525,16.5,False,0
1.8064560890197754,4.191028783899999,-6.82253543825,2.4017956847499997,2.4937500000000004,6.825000000000001,-6.1775,3.7674692734174995,-7.599455026187499,2.8129125177124994,-12.857250000000002,1.6331875000000005,20.843812500000006,16.5,False,0
1.8165900707244873,4.34357122465,-7.210172699449998,2.3401805028,1.0150000000000001,8.25125,-14.892500000000002,3.7866118542175,-7.445177789052501,2.7689743127199997,-12.640250000000004,1.8755625000000002,19.032125000000004,16.5,False,0
1.8267450332641602,4.4422751569,-7.5936225210999995,2.34077870845,1.2337500000000001,6.553750000000001,-17.683750000000003,3.8104802596525005,-7.328946431257501,2.7277579434349994,-12.2381875,2.1179375,16.833687500000003,16.5,False,0
1.8370177745819092,4.4518464472999995,-7.8717881483499985,2.3228325389499997,3.43875,3.08,-18.025000000000002,3.8359638203425,-7.25312386512,2.6935106699724995,-11.4988125,2.2697500000000006,14.549937500000004,16.5,False,0
1.847243070602417,4.433900277799999,-8.0362947021,2.4885355039999997,5.95,-0.061250000000000006,-17.080000000000002,3.8634812802424996,-7.210023148037498,2.6694029822774996,-10.44575,2.3651250000000004,12.34975,16.5,False,0
1.857475757598877,4.5068813671,-8.0805619202,2.6117658679,7.647500000000001,-0.69125,-17.946250000000003,3.88869564839,-7.182954342375,2.6497220163924995,-9.076374999999999,2.4631250000000007,10.1670625,16.5,False,0
1.8677027225494385,4.72522642935,-8.16131968295,2.6554348803499996,8.041250000000002,0.6562500000000001,-19.85375,3.9230027424175,-7.1823262264425,2.6333910021475,-7.527187499999998,2.597000000000001,7.8859375,16.5,False,0
1.8778746128082275,4.805385986449999,-8.204390489749999,2.69491645325,6.85125,2.12625,-22.837500000000002,3.9691543083149994,-7.199345177184999,2.6152354606699997,-5.898375,2.777250000000001,5.509874999999999,16.5,False,0
1.888108730316162,5.0679982668,-8.385646801699998,2.7044877436499997,5.433750000000001,3.3075,-27.055000000000003,4.0289150527499995,-7.235177695620001,2.6013869998725,-4.241125000000002,2.988562500000001,2.9391249999999998,16.5,False,0
1.9006786346435547,5.183451957249999,-8.75952533295,2.8073791154499994,3.8325000000000005,2.9312500000000004,-31.141250000000003,4.105276003972499,-7.291050103329999,2.5860131146675007,-2.6206249999999995,3.1456250000000012,0.2205,16.5,False,0
1.9108147621154785,5.084149819349999,-9.3667040677,2.783450889449999,3.8325000000000005,0.9537500000000001,-32.768750000000004,4.18672170322,-7.385805878289998,2.5716262687850007,-1.1659374999999996,3.1434375000000006,-2.6171249999999993,16.5,False,0
1.920952558517456,5.1020959888499995,-9.510871629349998,2.88155661605,5.836250000000001,0.35875,-28.49875,4.255784545512499,-7.514689285582499,2.573779809125001,0.13562500000000033,2.982875000000001,-5.288499999999999,16.5,False,0
1.9390573501586914,4.925625322099999,-9.878169898449999,2.87138712,8.356250000000001,-1.1725,-20.76375,4.32119833334,-7.6626853633925,2.5824537910500007,1.4113749999999996,2.713812500000001,-7.4703125,16.5,False,0
1.9635283946990967,4.9495535481,-9.963115100749999,2.9539394997,4.2525,-0.5162500000000001,-10.736250000000002,4.3829630667025,-7.8231839392875,2.5920549917325006,2.5536875000000006,2.4661875000000006,-9.1870625,16.5,False,0
1.9837641716003418,4.8897329831,-9.888339394499999,2.8522445392,-2.0125,0.9625000000000001,-4.077500000000001,4.446612147862501,-7.976593778229999,2.6100310715150004,3.4636875000000003,2.378250000000001,-10.4803125,16.5,False,0
2.002756357192993,4.643272255299999,-9.82433138995,2.88275302735,-5.775,-0.09625,1.8900000000000001,4.511966115125,-8.1305420022575,2.6187050534400003,3.8815000000000004,2.3296875000000004,-11.3185625,16.5,False,0
2.016590118408203,4.51346162925,-9.6945207639,2.9730820805,-3.10625,-1.0762500000000002,10.745000000000001,4.557399834242501,-8.2748292050375,2.6270500222575004,3.8674999999999997,2.1481250000000007,-11.89125,16.5,False,0
2.0365700721740723,4.3860438258,-9.165706969299999,2.9706892578999997,1.3037500000000002,-2.6862500000000002,14.665000000000001,4.594488584542501,-8.408318795835,2.64466717865,3.804500000000001,1.8703125000000003,-12.096,16.5,False,0
2.0544087886810303,4.40219537835,-8.724829405249999,2.8749763538999997,-1.3475000000000001,-1.0762500000000002,14.700000000000001,4.6227837117875,-8.523443473177501,2.6696721748199996,3.502625000000001,1.6174375,-12.2381875,16.5,False,0
2.0663578510284424,4.2137605985999995,-8.44127992715,2.7960132080999998,-5.76625,1.8637500000000002,14.717500000000001,4.648895388410001,-8.624480407462501,2.6809184410399993,2.9763125,1.5115625000000004,-12.100375000000003,16.5,False,0
2.07719087600708,4.2125641873,-8.3102728898,2.58365020235,-9.05625,4.532500000000001,14.638750000000002,4.656492600165,-8.7182192328175,2.6973990066974993,2.419812500000001,1.4179375,-11.344812500000002,16.5,False,0
2.087432861328125,4.0187455567,-8.111668614,2.4999014113499998,-10.080000000000002,4.41,15.9075,4.6482672724775,-8.779415670812499,2.7113671086250006,1.8943750000000001,1.2831875000000001,-10.059000000000003,16.5,False,0
2.097940683364868,4.0600217465499995,-7.9776705484,2.2492532439999997,-11.9,0.56,16.5025,4.6293340636549996,-8.810731736589998,2.7134309181175005,1.3125000000000007,1.0710000000000002,-8.4310625,16.5,False,0
2.1081886291503906,3.88534569675,-8.0099736535,2.25583350615,-12.215000000000002,-3.1325000000000003,16.668750000000003,4.605405837655,-8.823144503827498,2.7152554453500004,0.5635000000000007,0.7293125,-6.702062499999999,16.5,False,0
2.118436813354492,3.8087753735499996,-7.910073309949999,2.3509482045,-10.736250000000002,-5.626250000000001,17.3425,4.572713898882499,-8.817461550152498,2.711127826365,-0.25024999999999986,0.44625000000000004,-4.9651875,16.5,False,0
2.128664493560791,3.7639099497999995,-7.811369377699999,2.4035903016999995,-7.638750000000001,-5.643750000000001,17.08875,4.5456151829374996,-8.812167430149998,2.703829717435,-1.0626875,0.16975,-3.2458124999999995,16.5,False,0
2.138854503631592,3.6897324491999997,-7.5960153436999995,2.44845572545,-5.652500000000001,-4.1825,16.196250000000003,4.506791636252499,-8.790303013642497,2.69252363065,-1.8182499999999997,-0.08137499999999993,-1.4748124999999992,16.5,False,0
2.1490015983581543,3.6634114005999994,-7.32024253905,2.4562323989,-3.6837500000000003,-1.7062500000000003,14.787500000000001,4.4518165370175,-8.750043773397497,2.6873491517775,-2.4097500000000003,-0.32199999999999995,0.3622500000000005,16.5,False,0
2.1591265201568604,3.4271201688499997,-7.183253445199999,2.51665116955,-2.19625,1.6887500000000002,13.037500000000001,4.3875393399250004,-8.699286023994997,2.674906474257501,-2.8813750000000007,-0.4751250000000001,2.2955625000000004,16.5,False,0
2.169316530227661,3.4606196852499997,-6.976872495949999,2.5992035492500003,-1.05875,8.23375,11.13,4.3044784854225,-8.627381704865,2.6665016848750005,-3.195500000000001,-0.426125,4.346562500000001,16.5,False,0
2.17950439453125,3.18305226365,-6.8530439264,2.56091838765,0.08750000000000001,12.853750000000002,9.44125,4.206731682212499,-8.5261952191675,2.65878483199,-3.3665625000000006,0.02012500000000008,6.467125000000001,16.5,False,0
2.189828395843506,3.260818998149999,-6.857829571599999,2.41136697515,0.42875,15.443750000000001,7.28875,4.115654871999999,-8.396743516507499,2.635394991075,-3.544625000000001,0.72275,8.4595,16.5,False,0
2.2000083923339844,2.9479574431999995,-7.060621286949999,2.4275185276999998,-0.49875,17.38625,7.157500000000001,4.022215149469999,-8.2589767553125,2.6177180141175,-3.930937500000001,1.5907500000000003,9.97325,16.5,False,0
2.210170269012451,2.943171798,-6.9816581411500005,2.5399811898999993,-0.665,19.71375,6.142500000000001,3.9247973593675,-8.111249870044999,2.5950460199825,-4.300187500000002,2.5777500000000004,11.228875,16.5,False,0
2.22033429145813,2.8977081685999995,-7.0121666293,2.66859540465,0.9100000000000001,23.345000000000002,5.075,3.82050020429,-7.964898857772499,2.5818854956825,-4.415250000000001,3.6684375000000005,11.970875000000003,16.5,False,0
2.2303833961486816,2.9665018183499994,-6.877570358049999,2.7326034091999993,3.8850000000000002,27.518750000000004,4.41,3.7255948779175005,-7.8224660925075,2.5725534875425,-4.105937500000002,4.8724375,12.331375000000003,16.5,False,0
2.240617275238037,3.0628129279999996,-6.905686023599999,2.77627242165,6.965000000000001,31.876250000000002,3.9637500000000006,3.6466616424000002,-7.679076198202497,2.5713271659599997,-3.577875000000001,6.3406875,12.336625000000002,16.5,False,0
2.2507259845733643,3.1453653077,-7.116852618049999,2.8438696600999998,12.15375,34.658750000000005,5.11875,3.5783465571699997,-7.5471419420949974,2.5635205822274996,-3.0533125000000014,8.142312500000001,11.864562500000002,16.5,False,0
2.2607860565185547,3.1812576466999993,-7.558926593399999,2.8791637934499996,19.6,36.697500000000005,10.05375,3.520978635334999,-7.462166829512499,2.5570001406425,-2.332312500000002,10.047187500000001,11.480875000000001,16.5,False,0
2.270813226699829,3.2572297642499994,-7.9142607494999995,2.8079773210999996,26.285000000000004,41.02875,16.00375,3.4634013415224993,-7.433452958312499,2.5795225833649997,-1.0045000000000006,11.921000000000001,11.397312500000002,16.5,False,0
2.2808759212493896,3.9074793057999995,-8.49152920175,2.75832625215,31.815,39.821250000000006,22.26,3.431457159812499,-7.428996326219999,2.5903501056300002,0.7748124999999988,13.795250000000001,11.595500000000003,16.5,False,0
2.290886878967285,4.2939201557,-8.74516839735,2.51665116955,30.423750000000002,35.236250000000005,24.106250000000003,3.4261032192449994,-7.456035221599999,2.5884059372675,2.8275624999999995,15.474812500000002,12.015500000000003,16.5,False,0
2.30098295211792,4.36391021675,-9.716056167299998,2.71046980015,26.031250000000004,29.487500000000004,24.885,3.4433016316824996,-7.501020286479999,2.598665164165,4.817749999999999,16.943062500000003,12.412312500000002,16.5,False,0
2.3110809326171875,4.355535337649999,-10.64387313045,3.1507491585499996,21.16625,22.085,31.745000000000005,3.4637303546299996,-7.604091119975,2.6263919960425,6.609750000000001,18.312437500000005,12.908437500000002,16.5,False,0
2.3212568759918213,4.4901316089,-11.670394025849998,3.75134763115,22.067500000000003,18.602500000000003,46.59375000000001,3.492743328655,-7.7656963763224995,2.6778675922249997,8.2700625,19.538312500000004,14.022750000000002,16.5,False,0
2.331472873687744,5.517250709949999,-11.569297271,3.9182470074999998,22.058750000000003,19.775000000000002,63.34125000000001,3.546701478285,-7.949614703414999,2.74779783271,9.8739375,20.744500000000002,15.841437500000001,16.5,False,0
2.3417487144470215,6.6723858201,-11.2881406155,3.7776686797499996,17.3775,23.75625,71.60125000000001,3.6602110003725,-8.138946791639999,2.824547617605,11.2258125,22.0793125,18.383312500000002,16.5,False,0
2.3519976139068604,7.32622459555,-11.584252412249997,3.7770704741,9.58125,24.59625,80.05375000000001,3.819483254685,-8.342336712639998,2.8808088589874994,12.026875,23.475375000000003,21.332937500000003,16.5,False,0
2.364607572555542,7.960322584549999,-11.8731857412,3.6430724084999997,-1.21625,20.8425,95.51500000000001,4.021287930712499,-8.562715674099998,2.9419753866999994,12.356750000000002,24.66275,25.0193125,16.5,False,0
2.3747575283050537,8.6907316832,-12.005987395499998,3.6568311384499994,-15.05,12.670000000000002,103.3375,4.266851350037499,-8.8090866710525,2.9911179808474992,12.132312500000001,25.32775,29.3059375,16.5,False,0
2.3849236965179443,8.507082548649999,-12.230912719899997,3.6999019452499997,-32.760000000000005,6.571250000000001,107.7125,4.544747784745,-9.0716391308375,3.0379873935249995,11.041625000000002,25.2800625,34.107937500000006,16.5,False,0
2.3951375484466553,7.872386354,-12.858430446749999,4.17248440875,-45.47375,-1.44375,111.24750000000002,4.806073922947499,-9.349356103849999,3.1095327892649993,9.0286875,24.7463125,39.109875,16.5,False,0
2.4054174423217773,7.19342294125,-13.20538972375,4.70249461465,-44.6775,-5.97625,125.29125,5.0321956586475,-9.660243580154999,3.1997721115674995,6.636437500000001,23.7195,44.576437500000004,16.5,False,0
2.4156265258789062,6.871588301549999,-12.900903047899998,4.805385986449999,-34.361250000000005,-4.952500000000001,138.775,5.2341498860875,-9.971669441544998,3.3173195217924993,4.6055625,22.491875,50.806875000000005,16.5,False,0
2.4258413314819336,6.8147587648000005,-11.484950274349998,4.293321950049999,-29.146250000000002,-2.07375,144.75125000000003,5.4326943413225,-10.230124192627498,3.4173095961899995,3.0502499999999984,21.220499999999998,57.736000000000004,16.5,False,0
2.4361743927001953,7.134200581899999,-9.89372324535,3.5988051904000002,-33.10125,-1.1287500000000001,138.36375,5.636861929667499,-10.422596860514998,3.4847273729449997,1.4520624999999998,19.896625,64.69137500000001,16.5,False,0
2.4463071823120117,7.1282185253999995,-8.83489924485,2.90309201945,-42.227500000000006,-1.995,122.16750000000002,5.846981664229999,-10.551869101479998,3.5123943842574996,-0.6050624999999996,18.396437499999998,71.1064375,16.5,False,0
2.4571123123168945,6.831508523,-8.16969456205,2.5692932667499995,-52.097500000000004,-4.43625,106.05875,6.046842171894999,-10.629695656545,3.509881920527499,-3.5157500000000015,16.57425,76.55375000000001,16.5,False,0
2.4673759937286377,6.17168769105,-7.679764134699999,2.4681965119,-55.938750000000006,-5.696250000000001,96.355,6.215296882934999,-10.6617295691025,3.4915768276374997,-6.959750000000002,14.5446875,81.25031249999999,16.5,False,0
2.4776370525360107,5.6297133721499995,-6.96610479425,2.2935204621,-55.1075,-4.9350000000000005,91.77875,6.3475003315850005,-10.633613903552499,3.4587951580174994,-10.900312500000004,12.316062500000001,85.3129375,16.5,False,0
2.487941026687622,5.324030284999999,-6.071787347499999,1.9734804393499998,-53.313750000000006,-3.8500000000000005,87.49125000000001,6.4428244019125005,-10.546844174019999,3.4231421012774996,-15.064000000000004,10.054187500000003,88.8829375,16.5,False,0
2.4982519149780273,5.0500520973,-5.224129941449999,1.6402798923,-51.11750000000001,-2.75625,81.71625,6.5016878378725,-10.395797247394999,3.38596362013,-19.265312500000004,7.966875000000002,91.95375,16.5,False,0
2.5086939334869385,4.92741993905,-4.37707074105,1.35134656335,-48.26500000000001,-2.6862500000000002,70.2625,6.53372175043,-10.190612709444999,3.3343982931,-23.202375000000007,6.191937500000003,94.6290625,16.5,False,0
2.518857002258301,4.83768909155,-3.7005001509,1.11086789205,-46.103750000000005,-3.0450000000000004,61.932500000000005,6.5533129854675,-9.890283562862498,3.2544780182599995,-26.74568750000001,4.780125000000003,96.67656250000002,16.5,False,0
2.5289738178253174,4.9459643142,-3.1262227269,0.9343972252999999,-44.441250000000004,-3.8587500000000006,49.28,6.577540314292499,-9.506205625279996,3.1395926231774998,-30.09081250000001,3.6032500000000014,97.5454375,16.5,False,0
2.5391178131103516,5.1098726623,-2.464607278,0.6765705901499999,-42.691250000000004,-6.308750000000001,34.74625,6.5798733163275,-9.069246308237497,2.9920451996049997,-33.415375000000004,2.4495625,97.0353125,16.5,False,0
2.549179792404175,5.256433046549999,-2.4119651807999998,0.5802594805,-40.11000000000001,-9.808750000000002,21.02625,6.537191343199998,-8.620173326782497,2.8230221931974997,-36.52162500000001,0.9874374999999986,95.08099999999999,16.5,False,0
2.559246778488159,5.303093087249999,-2.31086842595,0.6532405697999999,-38.10625,-12.81,6.755000000000001,6.463223214577499,-8.164819186002498,2.6691936103,-39.06262500000001,-0.7966875000000005,92.103375,16.5,False,0
2.5693256855010986,5.26839715955,-2.3712871966,0.8015955709999999,-36.0675,-14.227500000000001,-4.90875,6.343342802317499,-7.70417092522,2.5312473874099997,-41.070750000000004,-2.6425000000000005,87.7970625,16.5,False,0
2.579465627670288,4.989035121,-2.83609298665,1.09292172255,-32.322500000000005,-13.431250000000002,-11.9875,6.182455392749999,-7.232246487934999,2.3990140284774997,-42.494375000000005,-4.248125,82.43331249999999,16.5,False,0
2.589632749557495,4.7712882644,-3.43788787055,1.3902299305999999,-26.67,-9.31,-14.708750000000002,5.9835221038425,-6.784250276649999,2.2838594408525,-42.903875000000006,-5.338375,76.43081249999999,16.5,False,0
2.5997045040130615,4.90468812435,-3.72263375995,1.4063814831500001,-19.7925,-5.495,-13.92125,5.8042398705375,-6.345735624917499,2.1602402432799996,-42.11375000000001,-5.901000000000001,70.28875,16.5,False,0
2.609828472137451,5.239683288349999,-3.882354668499999,1.399801221,-11.051250000000001,-3.2025,-13.947500000000002,5.67685197737,-5.876383471927499,2.0120048832099995,-40.534375,-5.896187500000001,63.78924999999998,16.5,False,0
2.620023488998413,5.556134077199999,-4.1922251952,1.43270253175,-4.64625,-2.1700000000000004,-15.242500000000001,5.5944192388,-5.415316467189999,1.8384953344274997,-38.9230625,-5.741312499999999,56.471187499999985,16.5,False,0
2.6302084922790527,5.70628369535,-4.7102712880999995,1.6660027352499998,-2.8087500000000003,-1.1287500000000001,-13.431250000000002,5.5319366586575,-5.0297131052,1.6832011476875,-37.55018750000001,-5.6354375,48.53056249999999,16.5,False,0
2.64048433303833,5.76012220385,-5.035695161699999,1.81196491385,-3.7187500000000004,1.04125,-8.015,5.4694839887975,-4.7311187550025,1.5708880369,-36.214937500000005,-5.5706875,40.747437500000004,16.5,False,0
2.6505603790283203,5.901298737249999,-5.192425042,1.8963119105,-6.2125,1.8200000000000003,-1.5750000000000002,5.3997930305725,-4.5114875506050005,1.49599268952,-34.63075000000001,-5.4346250000000005,33.849375,16.5,False,0
2.6607162952423096,6.163911017599999,-5.0979085493,1.95433785855,-8.74125,2.75625,5.99375,5.345027303315,-4.3384864766249995,1.4546267688225,-32.632250000000006,-5.175625,28.248062500000003,16.5,False,0
2.6709063053131104,6.6897337839499995,-4.6983071751,2.0721843715999997,-12.328750000000001,2.52875,11.322500000000002,5.333691306247499,-4.18803775565,1.4286945538949998,-30.452625000000005,-4.759562500000001,23.625437500000007,16.5,False,0
2.6811463832855225,7.260421974049999,-4.587639129849999,2.34915358755,-17.360000000000003,0.9625000000000001,12.057500000000001,5.383791029435,-4.044408579085,1.4121840779550001,-28.395937500000002,-4.374562500000001,19.534375000000004,16.5,False,0
2.691338300704956,7.37168822495,-5.0656054442,2.9228328058999997,-20.615000000000002,0.28,14.708750000000002,5.478666445524999,-3.9527634735049992,1.4316257615799999,-26.606125000000002,-4.1243125,15.651125000000002,16.5,False,0
2.7016022205352783,7.548158891699999,-5.632106194749999,3.3493534343499998,-22.30375,0.5687500000000001,24.430000000000003,5.5937313023024995,-3.9294932737199995,1.4948261885025,-25.032000000000004,-3.9256875,12.325687499999997,16.5,False,0
2.711860179901123,7.910671515599999,-6.117250976899999,3.5976087790999993,-25.83875,-1.4787500000000002,39.445,5.726712418297499,-3.9815969858349995,1.5946068909224997,-23.723000000000006,-3.7773750000000015,9.948312500000004,16.5,False,0
2.7222518920898438,8.42572658025,-6.0586268232,3.7154552921499993,-27.335,-5.32,55.09,5.890052471029999,-4.0895431953775,1.7161622790024995,-22.679562500000007,-3.784812500000002,8.874250000000002,16.5,False,0
2.7324600219726562,9.189036989649999,-5.7284173044,3.89491698715,-32.08625,-10.22,63.7,6.080222047164999,-4.2154654847025,1.8541982327399995,-21.847437500000005,-3.9878125000000013,9.009875000000001,16.5,False,0
2.7426390647888184,9.942177903,-5.225924558399999,4.051646867449999,-41.221250000000005,-13.335,63.77,6.311907095409999,-4.34632297064,2.0076978025299996,-21.490000000000002,-4.311125000000001,10.056812500000001,16.5,False,0
2.7528131008148193,10.6372928683,-4.865804757099999,4.1252261624,-49.49875000000001,-17.3775,58.83500000000001,6.562405711347499,-4.4712582206425,2.1818653775274996,-21.645312500000003,-4.6878125000000015,11.717562500000001,16.5,False,0
2.765434741973877,11.221739788349998,-4.80060034125,4.37467791845,-50.268750000000004,-20.028750000000002,52.34250000000001,6.847301152159998,-4.590600247817499,2.3643181007775,-22.24075,-5.0876875,13.713437500000003,16.5,False,0
2.775679588317871,11.227123639199998,-4.95134816505,4.6636112473999995,-43.68000000000001,-19.32,48.70250000000001,7.147181644504999,-4.708386940302499,2.5450659379249996,-22.798562500000003,-5.414937500000001,16.148562500000004,16.5,False,0
2.7859387397766113,11.21097208665,-5.3515477448999995,4.77547570395,-33.32,-15.933750000000002,48.142500000000005,7.452595539112499,-4.833352100587499,2.7351457832124995,-23.039187500000004,-5.6175,19.008937500000002,16.5,False,0
2.7961246967315674,10.944172366749997,-6.55693212965,4.7724846757,-22.4175,-11.48,50.251250000000006,7.767700365249999,-4.9503611257274995,2.9141887342575,-23.006812500000002,-5.733000000000001,22.1235,16.5,False,0
2.8062775135040283,11.049456561149999,-5.8145589179999995,4.456033886849999,-17.683750000000003,-7.813750000000001,51.1525,8.0793655089,-5.047719095264999,3.0759136317349993,-22.7364375,-5.8336250000000005,25.378500000000003,16.5,False,0
2.8166496753692627,10.9519490402,-5.670989562,4.037289931849999,-18.47125,-4.077500000000001,49.227500000000006,8.379126360114999,-5.1431927170049985,3.2187950512374996,-22.7766875,-5.917187500000001,28.598937499999998,16.5,False,0
2.827465772628784,10.673783412949998,-5.65842724335,3.5306097462999997,-23.10875,-1.995,45.158750000000005,8.65172867482,-5.227091059417499,3.34205532542,-23.368625,-5.9005624999999995,31.675875,16.5,False,0
2.8377604484558105,10.194620687299999,-5.657829037699999,3.2093733122499994,-27.063750000000002,-2.1350000000000002,42.682500000000005,8.895497477194999,-5.28789866374,3.437828049985,-24.42475,-5.897937499999999,34.6381875,16.5,False,0
2.8480215072631836,9.7340023368,-5.4825547822499985,2.8480570996499996,-31.675000000000004,-5.040000000000001,41.081250000000004,9.105168557519999,-5.3242994775425,3.50010125815,-25.716250000000002,-6.0449375000000005,37.3135,16.5,False,0
2.8582205772399902,9.33260634565,-5.115256513149999,2.5597219763499997,-34.291250000000005,-10.430000000000001,38.21125000000001,9.293064952184999,-5.3312386630825,3.5417662816725,-27.120187500000004,-6.4780625,39.5810625,16.5,False,0
2.868502378463745,8.82532795445,-4.7814577604499995,2.55373991985,-38.517500000000005,-16.75625,35.62125,9.451380077457497,-5.326632479577499,3.5709288071099996,-28.548625000000005,-7.252437500000002,41.3695625,16.5,False,0
2.8785674571990967,8.185846114599999,-4.3453658416,2.77627242165,-44.03,-19.845000000000002,33.136250000000004,9.5624070460975,-5.310660388722499,3.603112271079999,-30.078562499999997,-8.3265,42.671125,16.5,False,0
2.888646364212036,7.4069823583,-4.055834307,3.0125636533999995,-50.2775,-21.122500000000002,31.92,9.603713146230001,-5.290770050859999,3.6389148792324995,-31.698625000000003,-9.4661875,43.678250000000006,16.5,False,0
2.8986732959747314,6.742375881149999,-3.7387853124999997,3.3786655112,-53.13875,-18.2875,33.54750000000001,9.593513739897501,-5.248985386207499,3.6696327393599995,-33.327,-10.5205625,44.662625,16.5,False,0
2.9086973667144775,6.265605978099999,-3.3511480512999996,3.5114671654999996,-51.99250000000001,-11.978750000000002,36.16375,9.5451189028125,-5.166642378484999,3.6864423181249997,-34.932624999999994,-11.342187500000001,45.465,16.5,False,0
2.9216253757476807,5.9994044638499995,-2.5232314317,3.1698917393499997,-47.39000000000001,-3.00125,37.415000000000006,9.46588656447,-5.02109894384,3.680520082189999,-36.250812499999995,-11.685625000000002,45.8425625,16.5,False,0
2.9318110942840576,5.922834140649999,-2.0781664281,2.6638097594499994,-39.89125000000001,-0.36750000000000005,35.761250000000004,9.36287555154,-4.827130761827499,3.642982677652499,-37.127562499999996,-11.6125625,45.40725000000001,16.5,False,0
2.9421470165252686,5.8803615395,-1.7724833409499998,2.3467607649499995,-31.342500000000005,-0.7350000000000001,31.027500000000003,9.225168610910002,-4.6248475212799995,3.5754751700499994,-37.4924375,-11.2730625,44.119687500000005,16.5,False,0
2.9523608684539795,5.74576526825,-1.5661023916999999,2.16969189255,-23.94,-2.33625,24.587500000000002,9.0370030237025,-4.433152520737499,3.4912179042475,-37.0575625,-10.7856875,42.29443750000001,16.5,False,0
2.9625070095062256,5.417350366399999,-1.5822539442499999,2.2360927197,-17.841250000000002,-2.12625,18.94375,8.808159452295,-4.2603309084525,3.3961630264624993,-35.858812500000006,-10.156125,40.30993750000002,16.5,False,0
2.972679853439331,5.198407098500001,-1.54875442785,2.3066809864,-14.761250000000002,1.9425000000000001,15.0325,8.525327820974999,-4.10093901301,3.294976540764999,-34.13068750000001,-9.2658125,38.42256250000001,16.5,False,0
2.9828038215637207,5.1128636905499985,-1.5242279962,2.3341984463,-12.66125,3.54375,9.065000000000001,8.2200933880625,-3.937688691124999,3.183231725345,-32.41700000000001,-8.196562500000002,36.5903125,16.5,False,0
2.9929039478302,5.034498750399999,-1.51405850015,2.4131615921,-11.27875,8.505,7.175000000000001,7.909893848254998,-3.7624144356749993,3.0666115338775,-31.052437500000007,-6.996062500000001,34.64956250000001,16.5,False,0
3.0031638145446777,5.1134618962,-1.52721902445,2.4861426813999996,-11.26125,12.62625,3.5262500000000006,7.605317441557498,-3.558785232414999,2.948136904895,-30.137187500000003,-5.788125000000001,32.4988125,16.5,False,0
3.013392925262451,5.254638429599999,-1.5643077747499998,2.6650061707499995,-11.628750000000002,15.137500000000001,-0.7875000000000001,7.311179723452499,-3.35988185379,2.84530535366,-29.798125000000006,-4.613875,30.0514375,16.5,False,0
3.023667573928833,5.354538773149999,-1.6091731985,2.739781877,-11.182500000000001,16.3975,-6.063750000000001,7.0237419086275,-3.1546674055574995,2.7670301443575,-29.536500000000007,-3.5258124999999993,27.3669375,16.5,False,0
3.03389573097229,5.5968120614,-1.6833506991,2.8606194183,-10.027500000000002,16.161250000000003,-12.13625,6.754579276409999,-2.9522944341625,2.71501616309,-29.050437500000005,-2.575125,24.582250000000002,16.5,False,0
3.0441346168518066,5.732604743949999,-1.8610177771499998,3.0855447426999993,-8.60125,16.896250000000002,-18.567500000000003,6.517241184772499,-2.75437809486,2.6895625126825,-28.311062500000002,-1.6729999999999994,21.596750000000004,16.5,False,0
3.054367780685425,5.7882378694,-2.3551356440499998,3.5186456332999994,-7.017500000000001,17.675,-23.012500000000003,6.3058951286275,-2.575454784945,2.7005096760775,-27.283375,-0.6671874999999995,18.473875,16.5,False,0
3.0645086765289307,5.878566922549999,-2.9108686929000003,4.0235312019,-2.0475000000000003,23.5025,-24.080000000000002,6.116234027295,-2.4407388725649994,2.75521558277,-25.9258125,0.6308750000000005,15.270500000000002,16.5,False,0
3.0827383995056152,6.595815496899999,-3.4259237575499992,4.8430729424,-1.7412500000000002,28.253750000000004,-23.03,5.972604850730001,-2.3571695432599995,2.8568507227049995,-24.201187499999996,2.5659375000000004,12.243437499999999,16.5,False,0
3.102766275405884,7.506284496199999,-3.8877385193499996,5.5585268997999995,-11.252500000000001,28.988750000000003,-25.593750000000004,5.88203651532,-2.3036002273025,2.9729923496525,-22.296749999999996,4.946812500000001,9.3428125,16.5,False,0
3.1149613857269287,8.195417404999999,-4.165904146599999,6.089733516999999,-17.325000000000003,25.751250000000002,-27.72875,5.8847284407450005,-2.2927128844725,3.1212277097224996,-20.732687499999997,7.3854375,6.4150625,16.5,False,0
3.138242244720459,9.05623533535,-5.440680386749999,6.975077879,-6.921250000000001,21.53375,-27.063750000000002,5.966772345642499,-2.3415264655125,3.29898451862,-18.906124999999996,9.502500000000001,3.2510624999999997,16.5,False,0
3.152754068374634,9.7878408453,-5.98983317345,7.216154755949999,1.0850000000000002,22.40875,-22.26,6.1121363185924995,-2.4497717778799997,3.4848171037925,-16.4189375,11.383750000000001,0.1833125000000006,16.5,False,0
3.1665289402008057,10.302297704299997,-6.353542208649999,7.09531721465,-4.4887500000000005,24.508750000000003,-17.57,6.3062540520175,-2.61092837999,3.6735509863674993,-13.930875000000004,12.901875000000004,-2.6337500000000027,16.5,False,0
3.1843910217285156,10.639685690899999,-6.65025221105,6.612565255099999,-27.413750000000004,24.036250000000003,-15.0325,6.531747671785,-2.81718968811,3.87744938217,-12.418000000000003,14.223125000000001,-5.294625000000001,16.5,False,0
3.197573184967041,10.558927928149998,-6.9367927173999995,6.159723578049999,-36.9425,15.0325,-13.755,6.7676500698625,-3.0594330660774998,4.0779380057675,-12.211937500000001,15.309875000000002,-7.717499999999999,16.5,False,0
3.2164857387542725,10.071988529050001,-7.01755048015,5.7846486355,-32.34,-6.317500000000001,-8.785,7.0008306322325,-3.3270403636049997,4.26209561512,-12.571125,15.44375,-9.6560625,16.5,False,0
3.2289867401123047,9.50608598415,-6.95653350385,5.89651309205,-32.243750000000006,-12.250000000000002,-3.77125,7.206792837527499,-3.6030823607975,4.445684929104999,-13.101374999999999,15.106437500000002,-11.102875000000001,16.5,False,0
3.2390737533569336,9.0879402348,-6.524629024549999,5.855236902199999,-35.105000000000004,-13.72,3.1675000000000004,7.408597513554999,-3.8677584506399993,4.628915319699999,-13.93175,14.5228125,-12.021625,16.5,False,0
3.249403953552246,8.863613116049999,-5.855236902199999,5.544169964199999,-40.46875000000001,-13.99125,8.25125,7.601219732854998,-4.10572465821,4.8030230741325,-15.100750000000001,13.762875000000003,-12.417125000000002,16.5,False,0
3.259565830230713,8.80379255105,-5.28275409515,5.266602542599999,-45.92,-15.96,10.508750000000001,7.784629585145,-4.306063730395,4.9559842588375,-16.682750000000002,12.750937500000003,-12.411437500000002,16.5,False,0
3.270265579223633,8.28574645815,-4.457230298149999,5.11406010185,-51.66875,-20.11625,12.4075,7.944529955389998,-4.47206579827,5.089234567375,-18.579750000000004,11.379812500000003,-12.138000000000002,16.5,False,0
3.2803964614868164,7.988438250099999,-3.9188452131499996,4.75752953445,-53.698750000000004,-22.023750000000003,11.9175,8.0916586350075,-4.607200454605,5.209593544154999,-20.644750000000002,9.637250000000003,-11.600312500000003,16.5,False,0
3.2906734943389893,7.637889739199999,-3.3990045032999996,4.82213574465,-53.182500000000005,-23.5725,10.535,8.2179398477225,-4.7094637104725,5.31792858737,-22.782375000000002,7.7113749999999985,-10.88325,16.5,False,0
3.3007845878601074,7.331608446399999,-3.0496524037,4.60438888805,-47.6,-24.3075,7.5075,8.321459335454998,-4.792195551867499,5.416901712162501,-24.811937500000003,5.714625000000001,-9.967562500000001,16.5,False,0
3.310903549194336,6.74596511505,-2.8025934702499993,4.25862602235,-38.508750000000006,-22.653750000000002,4.9350000000000005,8.399555083062499,-4.85515669653,5.497420192652499,-26.4985,3.7209375000000002,-8.8781875,16.5,False,0
3.3210794925689697,6.5252272302,-2.6452653843,4.137190275399999,-32.917500000000004,-21.621250000000003,4.47125,8.464609947499998,-4.903102879377499,5.5474600952749995,-27.913375000000002,1.714562499999999,-7.6282499999999995,16.5,False,0
3.331204414367676,6.314060635750001,-2.8707889143499994,3.76570456675,-25.80375,-18.786250000000003,3.4650000000000003,8.4991563237875,-4.9185664954299995,5.559962593359999,-29.113437500000003,-0.26293749999999927,-6.2453125,16.5,False,0
3.3414382934570312,6.472585132999999,-3.784248941899999,3.3511480512999996,-14.262500000000001,-13.53625,3.43,8.481987821632497,-4.885037068747499,5.5187761343575,-30.1315,-2.366437500000001,-4.88075,16.5,False,0
3.351654291152954,5.7391850061,-2.81575399455,3.2015966387999995,-15.198750000000002,-10.701250000000002,5.1625000000000005,8.4494454342725,-4.837180616747499,5.4758847892524996,-30.945250000000005,-4.493125,-3.4286875,16.5,False,0
3.361894369125366,5.7589257925499995,-2.7074787719,1.8933208822499998,-12.81,-8.426250000000001,4.17375,8.3485580514,-4.771617277507499,5.33527655122,-30.882687500000003,-6.3844375,-1.8672500000000003,16.5,False,0
3.3722453117370605,5.855236902199999,-2.2396819535999994,2.41136697515,-12.468750000000002,-6.956250000000001,1.32125,8.196045520932499,-4.635794684675,5.13667227542,-30.766750000000002,-7.831687499999999,-0.12600000000000056,16.5,False,0
3.3824920654296875,5.833701498799999,-1.9812571127999998,2.2995025185999998,-13.256250000000001,-4.961250000000001,-1.7237500000000001,8.0204721626575,-4.4522951015375,4.89511683395,-31.2659375,-9.250937500000001,1.2000624999999998,16.5,False,0
3.392702102661133,5.442475003699999,-1.9680965885,2.3437697366999997,-6.755000000000001,-0.22750000000000004,-4.87375,7.810262697247498,-4.2448672923999995,4.6523051606150005,-31.8556875,-10.615499999999999,1.9893125,16.5,False,0
3.402924060821533,5.682355469349999,-1.8293128776999996,2.3473589705999998,-4.68125,3.7887500000000003,-5.32,7.578158905047498,-4.0232620093575,4.4197527141775,-31.506124999999997,-11.815562500000002,2.5169375,16.5,False,0
3.4131569862365723,5.787639663749999,-1.8664016279999998,2.2061824372,1.60125,8.715000000000002,-8.74125,7.333552614762499,-3.7750664851725007,4.2111584040225,-29.9866875,-12.5540625,2.9189999999999996,16.5,False,0
3.4234650135040283,5.877370511249999,-1.9908284031999999,2.11346056145,7.1312500000000005,11.541250000000002,-13.055000000000001,7.098457794312499,-3.5202009679899993,4.0221852391874995,-28.041562499999998,-12.0736875,2.9168125000000003,16.5,False,0
3.4337000846862793,5.925825168899999,-2.27976173215,1.9764714675999997,12.0225,13.457500000000001,-14.175,6.921897396715001,-3.3410682860975003,3.949293880735,-25.7088125,-10.856562499999999,2.5331249999999996,16.5,False,0
3.443969964981079,6.28175753065,-2.3718854022499998,2.1152551784,14.79625,18.69875,-13.378750000000002,6.7549381998,-3.1199714778575,3.757808252169999,-23.431625000000007,-9.426375,1.9643749999999998,16.5,False,0
3.454152822494507,6.811767736549999,-2.47716959665,1.9651055602499996,15.601250000000002,20.18625,-11.602500000000001,6.643731769465001,-2.9336005076,3.587050449377499,-20.731812500000007,-7.6838125,1.064,16.5,False,0
3.4643137454986572,7.313662276899999,-2.4825534474999995,1.9244275760499998,16.905,21.778750000000002,-9.73,6.553133523772499,-2.7871896747625002,3.417967622404999,-17.755062500000005,-5.887875000000001,0.08749999999999947,16.5,False,0
3.474501848220825,7.99501851225,-2.5579273594,2.0889341298,16.126250000000002,20.055000000000003,-8.426250000000001,6.516553248275,-2.6800211325650003,3.2629725384899997,-14.466812500000003,-3.975999999999999,-0.9086875000000006,16.5,False,0
3.484640598297119,7.91485895515,-2.5621147989499997,2.4358934068,14.560000000000002,20.781250000000004,-6.965000000000001,6.523043779577499,-2.6255545081325,3.2142187780149998,-10.908187500000006,-1.8672499999999999,-1.9433750000000003,16.5,False,0
3.494741678237915,9.1453679772,-2.52263322605,2.79182576855,7.883750000000001,22.277500000000003,-5.985,6.576224261862498,-2.5860729352325,3.1005297942324996,-7.596750000000005,0.3132500000000006,-2.8393750000000004,16.5,False,0
3.5049026012420654,9.698708203449998,-2.775674216,3.2273194817499995,-0.43750000000000006,21.770000000000003,-5.1625000000000005,6.669065778742498,-2.5527827908100003,3.0142087189375,-4.803750000000003,2.6000624999999995,-3.6115625000000002,16.5,False,0
3.514993667602539,10.3884393179,-3.0729824240499997,3.6909288604999997,-3.2025,20.930000000000003,-1.8200000000000003,6.802944203212499,-2.5512573664025,2.9625536610600003,-2.7527500000000016,4.863250000000001,-4.144875000000001,16.5,False,0
3.525270462036133,11.093125573599998,-3.4480573665999996,4.02532581885,1.4525000000000001,20.9825,1.21625,6.9856960292874986,-2.5631317485549996,2.943710183085,-1.017187499999999,7.0367500000000005,-4.38375,16.5,False,0
3.5354223251342773,11.726625356949997,-3.7597225102499996,4.1300118076,9.38,21.6125,3.5525,7.231229538329998,-2.5974089322999996,2.948376187155,0.7122500000000003,9.1380625,-4.444562499999999,16.5,False,0
3.545823335647583,12.169895743599998,-3.9326039431,3.8237305147999994,15.260000000000002,19.64375,3.8237500000000004,7.536254599264998,-2.6572893178649992,2.9656344201575,2.4539375000000008,11.02325,-4.417,16.5,False,0
3.5560262203216553,12.3373933256,-4.3298124947,3.7357942842499994,18.567500000000003,15.163750000000002,4.4275,7.84762064009,-2.736431925359999,2.9522346135974997,4.287500000000001,12.590375,-4.508,16.5,False,0
3.5660972595214844,12.2069844939,-4.8729832249,3.669393457099999,16.528750000000002,10.6575,7.621250000000001,8.1722967566275,-2.833430971507499,2.9893233638974994,5.9058125000000015,13.732687500000003,-4.486125,16.5,False,0
3.5761783123016357,12.016755097199999,-5.149952440849999,3.5724841417999995,11.847500000000002,6.4225,13.361250000000002,8.491379650337501,-2.971586566374999,3.0323642604149996,7.2568125000000006,14.535500000000003,-4.173312500000001,16.5,False,0
3.5863051414489746,11.86301624515,-5.183451957249999,3.4564322457,5.11875,2.89625,18.340000000000003,8.795238210255,-3.128077164414999,3.0909285935499993,8.4223125,15.1143125,-3.3836250000000008,16.5,False,0
3.5963563919067383,11.568699065350001,-5.1822555459499995,3.29910415975,-4.235,-0.7962500000000001,22.618750000000002,9.094430766102501,-3.2881569963549993,3.1410582270199994,9.099125,15.354500000000002,-2.2295000000000003,16.5,False,0
3.606487274169922,11.173285130699998,-5.0177489922,3.31944315185,-7.9887500000000005,-3.31625,26.871250000000003,9.3718785465725,-3.442733336314999,3.1870901517875,9.173062500000002,15.1983125,-0.7564375000000005,16.5,False,0
3.6165690422058105,10.56251716205,-4.7994039299499995,3.3014969823499998,-11.926250000000001,-4.3925,32.532500000000006,9.628179757315001,-3.5989248315299998,3.2352756168949997,8.771437500000001,14.647937500000001,0.9944375000000012,16.5,False,0
3.6290459632873535,10.148558852249998,-4.3884366484,3.1728827676,-14.008750000000001,-3.3950000000000005,35.70875,9.854391223862502,-3.73555500199,3.2896226001974993,7.938000000000001,13.895000000000001,3.2458125000000018,16.5,False,0
3.6397249698638916,9.896116067949999,-3.8315071882499994,2.83728939795,-14.840000000000002,-4.62875,36.4525,10.043603670957499,-3.7675590042650002,3.2226833879625,6.476750000000003,12.981937500000004,5.803,16.5,False,0
3.6500000953674316,9.6047899164,-3.3523444625999996,2.5495524802999996,-13.238750000000001,-9.388750000000002,35.42875,10.231769258164999,-3.8255849523150003,3.2517860928349998,5.141937500000002,11.858,8.236375,16.5,False,0
3.6602118015289307,9.0400837828,-3.15433839245,2.5435704238,-12.59125,-13.203750000000001,34.30875,10.361938807604998,-3.8596527640825,3.25878509894,3.682437500000001,10.250625,10.604125000000002,16.5,False,0
3.6704347133636475,8.507680754299999,-2.901297402499999,2.5256242543,-13.01125,-15.155000000000001,34.291250000000005,10.455557991829997,-3.8831622461275,3.2848070447149995,2.2636250000000007,8.4875,12.818750000000003,16.5,False,0
3.6805508136749268,7.9477602658999995,-2.6069802227,2.58125737975,-15.505,-16.03875,34.27375,10.492586921564996,-3.890789368165,3.311995491507499,0.7227500000000007,6.649125,14.9725625,16.5,False,0
3.6906747817993164,7.33579588595,-2.7290141752999997,2.7882365346499998,-16.94,-14.41125,35.980000000000004,10.461510138047498,-3.8728431986649996,3.245445112945,-0.9782499999999995,4.7866874999999975,17.117187500000004,16.5,False,0
3.7007486820220947,6.8889362654,-2.6374887108499996,3.0137600646999996,-21.227500000000003,-7.927500000000001,39.64625,10.373065432694997,-3.8676388095099994,3.262314512275,-2.5003124999999993,3.113249999999997,19.322625000000002,16.5,False,0
3.7109527587890625,6.787241304899999,-2.3359930632499997,2.8558337730999996,-28.813750000000002,-0.8400000000000001,41.431250000000006,10.244211935684996,-3.862673702614999,3.2604301644775,-3.9904374999999996,1.7744999999999986,21.655375000000003,16.5,False,0
3.7211875915527344,6.755536405449999,-1.9938194314499997,2.51246373,-33.29375,3.21125,41.510000000000005,10.086106182390001,-3.823939886777498,3.2236704272849996,-5.438125,0.7796250000000001,23.943062500000003,16.5,False,0
3.7313575744628906,6.905686023599999,-1.423729447,2.2755742925999995,-31.290000000000003,2.8525000000000005,38.12375,9.8926165648975,-3.7468610887749976,3.1520951212624997,-7.0415625,-0.06868749999999939,25.9625625,16.5,False,0
3.7416434288024902,6.936194511749999,-1.1353943237,2.1607188078,-24.001250000000002,-0.043750000000000004,31.255000000000003,9.672626437109999,-3.6318560525624988,3.0572795257374996,-8.757000000000001,-1.0583125,27.609750000000002,16.5,False,0
3.751981496810913,6.729215356849999,-1.19342027175,2.35154641015,-15.391250000000001,-0.28,22.820000000000004,9.41479980196,-3.4965419345324995,2.9674290371074994,-10.444875,-2.1638749999999995,28.785312500000003,16.5,False,0
3.762333393096924,6.412764567999999,-1.4189438018,2.5268206656,-8.05,3.3512500000000003,17.01,9.128678039565,-3.3494132549149995,2.8980072714249996,-11.929750000000002,-3.020500000000001,29.583312500000005,16.5,False,0
3.772543430328369,6.07477837575,-1.70428789685,2.5471596577,-0.7350000000000001,9.38,13.781250000000002,8.823802530042498,-3.1972895581199996,2.8405496187424992,-13.051499999999999,-3.375312500000001,30.090375000000005,16.5,False,0
3.7827694416046143,5.871986660399999,-1.93639168905,2.36111770055,1.00625,15.9075,13.615000000000002,8.515457427749999,-3.039452997367499,2.7812674388275,-13.730062499999999,-3.1723125000000016,30.270625000000006,16.5,False,0
3.792938470840454,5.799005571099999,-2.07158616595,2.2205393728,-2.4762500000000003,20.798750000000002,14.446250000000001,8.207889992802498,-2.8801508327725,2.71836611473,-14.217000000000002,-2.5186875000000004,30.189250000000005,16.5,False,0
3.8031792640686035,5.65962365465,-1.9160526969499998,2.03389921,-7.1225000000000005,20.177500000000002,16.642500000000002,7.912914786787498,-2.7237499655799993,2.6574089589949996,-14.522375000000002,-1.526875000000001,29.948625000000003,16.5,False,0
3.813610076904297,5.96710135875,-1.66480632395,2.2097716711,-9.7475,18.515,13.55375,7.6466235416899995,-2.555205523692499,2.6004597811149996,-14.689937500000003,-0.4388125000000004,29.525125000000003,16.5,False,0
3.8238601684570312,6.013761399449999,-1.7461622923499998,2.51246373,-11.68125,16.423750000000002,10.6575,7.406922537734999,-2.395035960904999,2.550689071035,-14.719687500000003,0.6724374999999989,28.6916875,16.5,False,0
3.834123134613037,5.979065471749999,-1.7443676754,3.2745777280999997,-10.45625,16.738750000000003,9.502500000000001,7.1932135692724986,-2.2507786684074995,2.5313371182575,-14.656250000000005,1.7036249999999995,27.500812500000002,16.5,False,0
3.844257116317749,6.046064504549999,-1.8951154991999999,3.6729826909999996,-6.571250000000001,18.9525,9.485000000000001,6.9929941382175,-2.1349062340024996,2.5535305478724997,-14.39725,2.7680625000000005,26.126187500000004,16.5,False,0
3.854369878768921,6.23868672385,-1.8131613251499998,3.9373895883,-1.3825,23.065,9.52875,6.806204424004998,-2.0481065941874994,2.6114966753574995,-13.901124999999999,4.136125000000002,24.807562500000003,16.5,False,0
3.8644258975982666,6.299703700149999,-2.0087745726999997,4.2508493489,1.2425000000000002,25.2525,9.231250000000001,6.649324992292499,-1.9789540210475,2.6883062808175,-13.3030625,5.897500000000001,23.518250000000002,16.5,False,0
3.8745100498199463,6.6807606991999995,-2.1104695332,4.4763728789499995,-0.20125,26.801250000000003,11.252500000000001,6.52917538749,-1.9311274793299997,2.7801308480925,-12.59825,7.922250000000003,22.298062500000007,16.5,False,0
3.8845508098602295,7.434499818199998,-1.97108761675,4.838885502849999,-6.781250000000001,26.433750000000003,13.072500000000002,6.4614285976275,-1.8944275627025,2.8888846352625,-12.002812500000001,10.087437500000002,21.179375000000007,16.5,False,0
3.8946049213409424,8.408378616399999,-1.7347963849999999,5.2223353244999995,-17.036250000000003,25.305000000000003,11.322500000000002,6.473961005994999,-1.8491733052800001,3.004966441645,-11.79325,12.155937500000004,20.121062500000004,16.5,False,0
3.9046998023986816,9.594022214699999,-1.4781661611499999,5.5208399438499995,-26.285000000000004,24.552500000000002,10.57,6.5693448968875,-1.7913268189250005,3.12765842046,-11.9021875,14.032812500000002,18.885125000000002,16.5,False,0
3.9146978855133057,10.7270237158,-1.5882360007499998,5.836094321399999,-27.518750000000004,24.3775,3.5875000000000004,6.733342975834999,-1.7393128376575,3.2597721382624996,-12.028625000000002,15.477437500000002,17.248875000000005,16.5,False,0
3.9247958660125732,11.326425777099999,-2.045863323,6.02572551245,-18.235000000000003,21.691250000000004,-2.3887500000000004,6.94289441503,-1.7164912921099997,3.4147672221775,-11.5836875,16.549749999999996,15.206187500000002,16.5,False,0
3.9348886013031006,11.60339499305,-2.6991038927999997,6.27936470805,-3.7625,18.94375,-7.008750000000001,7.177121837287499,-1.7504394627474997,3.6022149626049993,-10.5301875,17.388875000000002,12.968812500000002,16.5,False,0
3.9449896812438965,11.6267250134,-3.4049865597999993,6.303891139699999,5.5825000000000005,16.922500000000003,-7.936250000000001,7.410362220222498,-1.8370895511499998,3.8091941175049997,-9.0085625,18.2004375,10.800125000000001,16.5,False,0
3.9553215503692627,11.5322085207,-4.0109688832499995,6.099903013049999,5.52125,16.1,-5.005000000000001,7.646174887452498,-1.9650457396849998,4.008635881215,-7.619937500000001,19.089000000000002,9.054062500000002,16.5,False,0
3.9655535221099854,11.514860556850001,-4.19162698955,5.845665611799999,-4.62,13.370000000000001,0.27125000000000005,7.8929347180775,-2.1095423144424994,4.187439549999999,-7.009625,19.7911875,7.911312500000004,16.5,False,0
3.9758057594299316,11.481361040449999,-4.12103872285,5.603990529199999,-17.298750000000002,7.691250000000001,5.5825000000000005,8.158238923852497,-2.2421645070474994,4.3439002377575,-7.259874999999999,20.0423125,7.287000000000001,16.5,False,0
3.9860734939575195,11.450254346649999,-3.882952874149999,5.5226345608,-27.44,-1.3125000000000002,10.35125,8.433832266807498,-2.3545673486824996,4.5000917329725,-8.423625,19.6,7.0205625,16.5,False,0
3.9962475299835205,11.194222328449998,-3.50249408075,5.61057079135,-32.66375,-11.418750000000001,12.687500000000002,8.709515340609997,-2.4397219229599996,4.664329094179999,-9.94175,18.4415,6.8893125,16.5,False,0
4.0070013999938965,10.794620954249998,-3.1501509529,5.845665611799999,-33.7575,-20.055000000000003,13.711250000000001,8.970213362879997,-2.5020848619724996,4.8443590845474995,-11.370625,16.639000000000003,6.7991875,16.5,False,0
4.0196332931518555,10.11864856975,-2.8211378453999996,6.16809845715,-30.861250000000002,-25.47125,14.962500000000002,9.194510571347498,-2.567887483472499,5.036233546785001,-12.588624999999999,14.537250000000004,6.718250000000002,16.5,False,0
4.029917478561401,9.61137017855,-2.6620151424999996,6.272784445899999,-27.238750000000003,-26.188750000000002,15.916250000000002,9.385308263414998,-2.6176581935524994,5.233761052415,-13.5345,12.333125,6.910312500000002,16.5,False,0
4.040178298950195,9.16510876365,-2.5148565526,6.042475270649999,-22.37375,-25.2175,16.922500000000003,9.55238710146,-2.659353127357499,5.401019352155,-14.1981875,10.227437500000002,7.2034375,16.5,False,0
4.050411224365234,8.84805976915,-2.4508485480499997,5.45144808845,-18.43625,-25.1475,17.78,9.70361348978,-2.692344168954999,5.51832748012,-14.784,8.075375000000001,7.613812500000002,16.5,False,0
4.060527086257935,8.4167534955,-2.42213467685,4.9543391933,-15.872500000000002,-26.9675,18.786250000000003,9.833812949502502,-2.720370103657499,5.589125118797499,-15.410937500000003,5.756187499999998,8.0395,16.5,False,0
4.070668935775757,8.021339560849999,-2.3760728418,4.625924291449999,-16.240000000000002,-29.925000000000004,20.396250000000002,9.934221767855002,-2.749951373049999,5.626453151357499,-16.175687500000002,3.1386250000000024,8.550500000000001,16.5,False,0
4.080843925476074,7.58106020245,-2.2271196349499998,4.3920258823,-18.777500000000003,-32.331250000000004,21.76125,10.006036356137498,-2.7608088055974993,5.633900811699999,-17.107562500000004,0.27125000000000077,9.1091875,16.5,False,0
4.091007947921753,7.252047094949999,-2.11106773885,4.2484565263,-21.49875,-34.720000000000006,22.032500000000002,10.032447135584999,-2.766940413509999,5.615446167397499,-18.000937500000003,-2.777249999999999,9.60575,16.5,False,0
4.101124048233032,6.994220459799999,-1.8616159827999998,4.168895174849999,-21.621250000000003,-35.175000000000004,21.332500000000003,9.994341435679997,-2.7717559689924993,5.575635581389999,-18.515875,-5.801687499999998,10.018312499999999,16.5,False,0
4.11126708984375,6.7453669093999995,-1.6187444888999998,4.0821553556,-20.08125,-33.783750000000005,19.0925,9.889117061844997,-2.780878605154999,5.513123090964999,-18.5325,-8.8108125,10.408124999999998,16.5,False,0
4.121429920196533,6.43609458835,-1.5577275125999999,3.96430884255,-19.048750000000002,-30.257500000000004,16.31875,9.7158467953225,-2.785155775552499,5.435595638724999,-18.148812500000002,-11.642750000000001,10.8924375,16.5,False,0
4.1317548751831055,6.141179202899999,-1.5978072911499999,3.8973098097499994,-16.345000000000002,-25.830000000000002,14.682500000000001,9.4817091039125,-2.7789045265099994,5.338566682294998,-17.924374999999998,-14.242812500000003,11.6375,16.5,False,0
4.142242670059204,5.93240543105,-1.5810575329499996,3.68793783225,-11.182500000000001,-20.8075,13.431250000000002,9.2074318133875,-2.741397032254999,5.220839810374999,-18.0123125,-16.43425,12.578124999999998,16.5,False,0
4.152516841888428,5.8313086762,-1.4051850718499999,3.3296126479,-3.9112500000000003,-16.35375,12.040000000000001,8.915118622515,-2.6695226234074996,5.0825047538125,-18.5049375,-18.263,13.623312499999997,16.5,False,0
4.162636756896973,5.85942434175,-1.4123635396499998,2.93659153585,0.49875,-12.88,9.318750000000001,8.628009820797502,-2.560858567085,4.928406978372501,-18.9126875,-19.823125000000005,14.532,16.5,False,0
4.1727635860443115,5.972485209599999,-1.2089736186499997,2.5998017549,2.9925,-12.836250000000001,5.34625,8.346733524167501,-2.4207887141374993,4.766801722025,-18.8339375,-21.193375000000003,15.057875,16.5,False,0
4.182801723480225,5.9371910762499995,-1.0731809361,2.4598216327999998,3.99,-13.405000000000001,2.0825,8.068657627764999,-2.2677377985849994,4.6068116209325,-18.202624999999998,-22.411812500000003,15.096374999999995,16.5,False,0
4.192854404449463,5.90010232595,-0.82013994615,2.5854448192999997,3.7625,-12.250000000000002,-0.9275000000000001,7.790372359384998,-2.11250343241,4.453252230577499,-16.882687500000003,-23.275875000000006,14.713562499999995,16.5,False,0
4.202931642532349,6.018547044649999,-0.6197410534,2.7451657278499995,3.33375,-8.505,-4.348750000000001,7.518128968069997,-1.96283237878,4.3081873604525,-15.189125,-23.569437500000003,14.027562499999997,16.5,False,0
4.21302056312561,6.222535171299999,-0.4881358103999999,3.01435827035,7.09625,-3.6400000000000006,-8.190000000000001,7.270681200947498,-1.8231812697874996,4.1613278733775,-13.285125000000003,-23.142875000000007,13.054999999999996,16.5,False,0
4.235673189163208,6.940381951299999,-0.44267218099999994,2.7702903651499997,25.156250000000004,7.420000000000001,-14.21,7.060920389774999,-1.6935501054324997,4.0092639971474995,-10.570000000000002,-21.773500000000006,11.704874999999998,16.5,False,0
4.256558179855347,7.8406814545499985,-0.5670989562,2.6033909887999998,21.910000000000004,5.827500000000001,-17.648750000000003,6.922734884624998,-1.5809678021024998,3.8332120743524998,-7.8575,-20.102250000000005,10.065124999999998,16.5,False,0
4.276896238327026,9.53360344405,-0.4899304273499999,3.4384860762,10.6925,0.6737500000000001,-18.90875,6.8592652651599995,-1.4794523032974998,3.6598520769824994,-5.95525,-18.716250000000002,8.352749999999999,16.5,False,0
4.299041271209717,11.4520489636,-0.9308079913999999,4.1958144290999995,19.083750000000002,2.3537500000000002,-18.87375,6.959255339557499,-1.3943276393025,3.5689248181824995,-4.105937500000001,-17.394125000000006,6.495562499999998,16.5,False,0
4.3144402503967285,12.157931630599998,-1.1712866627,4.35912457155,20.580000000000002,4.296250000000001,-14.201250000000002,7.113143743019999,-1.3285848383674999,3.5230424448274995,-2.1896875000000016,-15.906625000000005,4.7201875,16.5,False,0
4.333440065383911,12.555140182199999,-1.7060825138,4.3657048337,17.955000000000002,-2.30125,-7.3500000000000005,7.3252973767925,-1.2779168198124997,3.5038400434624997,-0.41650000000000065,-14.3233125,3.1233124999999977,16.5,False,0
4.351115942001343,12.6329069167,-2.26899403045,4.2939201557,16.2225,-5.915000000000001,-4.103750000000001,7.56227654504,-1.2630514094099996,3.494837048429999,1.2866875,-12.994187499999999,1.7819374999999993,16.5,False,0
4.36125373840332,12.576077379949998,-2.6033909887999998,4.188037755649999,14.297500000000001,-10.03625,-1.65375,7.8230642981575,-1.2745369578899999,3.4900514032299994,3.0463125,-11.704437499999996,0.5333125000000015,16.5,False,0
4.371541738510132,12.25065350635,-3.0167510929499994,4.1204405172,16.03875,-13.527500000000002,2.1437500000000003,8.092645674329999,-1.3154243140674997,3.4846675523799986,4.877687500000002,-10.528874999999996,-0.5678749999999994,16.5,False,0
4.3822877407073975,11.651849650699997,-3.4432717213999995,4.115056666349999,16.5725,-14.41125,7.481250000000001,8.34676343445,-1.3897214557974997,3.4837403336224995,6.745375000000001,-9.494624999999997,-1.3829374999999995,16.5,False,0
4.392529726028442,11.090732751,-3.7435709577,4.00259400415,14.087500000000002,-11.375000000000002,15.758750000000001,8.582665832527498,-1.4939887005924997,3.4878679526074996,8.544375,-8.44375,-1.6983750000000004,16.5,False,0
4.402669668197632,10.725827304500001,-3.79441843795,3.6215370050999995,8.338750000000001,-7.831250000000001,24.2025,8.814261149924999,-1.6034902448249997,3.4863425281999993,10.059000000000001,-7.481687500000002,-1.5058750000000005,16.5,False,0
4.412823438644409,10.393823168749998,-3.5724841417999995,3.1304101664499995,2.9487500000000004,-6.921250000000001,30.6075,9.042476605399997,-1.7092230934624997,3.4677682427674994,11.0823125,-6.648687499999999,-0.8561875000000002,16.5,False,0
4.423010587692261,10.137192944899999,-3.3056844218999997,2.7050859492999995,-0.7175,-9.336250000000001,34.195,9.267372019517499,-1.8021543411899998,3.434866932017499,11.5635625,-6.107062500000001,0.12643749999999923,16.5,False,0
4.433365345001221,9.655637396649999,-2.9156543381,2.53699016165,-4.0512500000000005,-12.538750000000002,36.74125,9.4723770957725,-1.8849460031499998,3.4083365114399995,11.50275,-5.922875,1.3593125000000004,16.5,False,0
4.444132566452026,8.9766739839,-2.44486649155,2.53579375035,-6.816250000000001,-13.97375,39.331250000000004,9.647202696985001,-1.9541284865725,3.3947273329024994,11.122562499999999,-5.970125000000001,2.8778750000000004,16.5,False,0
4.454390525817871,8.583054666199999,-2.0967108032499997,2.6428725617,-5.626250000000001,-13.3175,41.728750000000005,9.78831940982,-2.0103299073899996,3.3971201555025,10.639125,-5.991562500000001,4.697000000000001,16.5,False,0
4.464558362960815,8.02253597215,-1.6594224731,2.58484661365,-4.112500000000001,-9.835,43.225,9.903115074054998,-2.0575283331749996,3.4026834680475,10.1714375,-5.9460625,6.796562500000002,16.5,False,0
4.47473931312561,7.633104094,-1.1946166830499998,2.4394826406999996,-1.9425000000000001,-6.2562500000000005,43.07625,10.003075238169998,-2.0923439020049996,3.3946675123374996,9.804812499999999,-5.8191875,9.080312500000002,16.5,False,0
4.487377405166626,7.3064838090999995,-0.7363911551499999,2.27856532085,-0.46375000000000005,-1.8112500000000002,41.27375000000001,10.072945658090001,-2.1180069243899995,3.3768409839675,9.498562499999998,-5.694500000000001,11.501875000000002,16.5,False,0
4.497588157653809,7.05583564175,-0.5192425042,2.1559331626,0.24500000000000002,0.6300000000000001,38.290000000000006,10.116853952800001,-2.125245212755,3.339602682255,8.4310625,-5.985437500000001,14.155750000000001,16.5,False,0
4.507771015167236,6.765107695849999,-0.41635113239999993,2.07996104505,1.44375,2.345,35.665000000000006,10.107701406354998,-2.1239291603249995,3.3102606951225,7.226187499999999,-6.274187499999999,16.8756875,16.5,False,0
4.51789927482605,6.5760747104499995,-0.32841490184999994,2.0614166699,4.6725,4.2175,33.59125,10.033613636602498,-2.1172591673274996,3.2787651676499996,6.6845625,-6.1963124999999994,19.51075,16.5,False,0
4.528001308441162,6.481558217749999,-0.11186445655,1.9537396528999997,7.385000000000001,6.702500000000001,30.642500000000002,9.811170865649999,-2.0883957447149997,3.1779376053424997,6.2151250000000005,-6.00075,22.1160625,16.5,False,0
4.5381200313568115,6.49232591945,0.0263210486,1.8747765071,9.808750000000002,8.715000000000002,24.05375,9.5489474189725,-2.0362023017524993,3.0597321689025,5.5715625000000015,-5.803437499999999,24.395875,16.5,False,0
4.548358201980591,6.410371745399999,-0.022133609050000003,1.8329021115999997,14.857500000000002,8.855,17.2025,9.246464732049999,-1.9632511227349998,2.9325536477125,5.1786875000000006,-5.5199375,26.068437500000005,16.5,False,0
4.558455944061279,6.2889359984499995,-0.22013967919999997,1.92801680995,23.5025,8.96875,10.780000000000001,8.935158511789998,-1.8674783981699998,2.8074688462975,5.241250000000001,-4.739875,27.044062500000003,16.5,False,0
4.56851601600647,6.1932230944499995,-0.5623133109999999,2.2133609049999996,27.0025,9.318750000000001,6.4575000000000005,8.615327861017496,-1.7647963983475,2.6953950177699997,5.7824375,-3.9042499999999998,27.639937500000002,16.5,False,0
4.5785439014434814,6.1028940413,-0.7932206919,2.38624233785,25.497500000000002,10.85875,4.61125,8.297202096347496,-1.6578073178449997,2.6040490150149997,6.39625,-2.834999999999999,27.923437500000006,16.5,False,0
4.588807821273804,6.215954909150001,-0.8428717608499999,2.51186552435,23.528750000000002,11.165000000000001,3.8850000000000002,8.00470944378,-1.5373286999349998,2.5225135849199996,6.836375000000001,-1.5583749999999987,27.9260625,16.5,False,0
4.598954677581787,6.379863257249999,-0.9008977089,2.7122644170999997,19.1625,10.91125,2.24,7.752954595977499,-1.3988740022424997,2.4444776578774996,7.115937500000001,-0.43531249999999916,27.51875,16.5,False,0
4.609098672866821,6.57128906525,-0.9343972252999999,3.02751879465,15.793750000000001,9.835,0.13125,7.5279993612950005,-1.255573838785,2.3916860092650003,7.368375,0.5652500000000016,26.623625000000004,16.5,False,0
4.619266748428345,6.866802656349999,-1.0414760366499998,3.44865557225,12.915000000000001,7.035000000000001,-3.2637500000000004,7.335526693407499,-1.1175079747649999,2.3807089355874997,7.783125000000001,1.3475000000000013,25.221,16.5,False,0
4.629564523696899,7.234699131099999,-1.1808579531,4.13419924715,9.432500000000001,1.7675,-6.553750000000001,7.173233500562499,-1.00091769358,2.4245574097324996,8.3234375,1.9656875,23.371250000000003,16.5,False,0
4.639748573303223,7.5134629639999995,-1.53798672615,5.076373145899999,5.013750000000001,-2.31875,-10.972500000000002,7.044858568072499,-0.9090931263049999,2.5221247512474996,8.8291875,2.501625,21.140437499999997,16.5,False,0
4.6500184535980225,7.5517481256,-2.0249261252499995,6.22074055435,-0.6212500000000001,-3.1325000000000003,-13.431250000000002,6.95103001187,-0.8610572126099999,2.6734707806974995,9.26275,3.0139375,18.62875,16.5,False,0
4.660254716873169,7.776075244349999,-2.3503499988499996,7.110870561549999,-2.5812500000000003,0.8575,-11.76875,6.889654112179999,-0.85770726097,2.8742285968375,9.497687500000001,3.6155,15.974437500000002,16.5,False,0
4.6704676151275635,7.801798087299999,-2.51665116955,7.604390222799999,-2.8262500000000004,8.041250000000002,-8.811250000000001,6.867430772282499,-0.883250642225,3.1130921128824993,9.58125,4.4410625,13.33675,16.5,False,0
4.680683374404907,8.32881726495,-2.43409878985,7.817949639849999,-3.3862500000000004,14.761250000000002,-7.9625,6.871767763244999,-0.9376574460924999,3.3750762773,9.571625000000001,5.423687500000001,10.754187500000004,16.5,False,0
4.690866470336914,9.128618219,-2.3539392327499997,7.76770036525,-0.6212500000000001,16.905,-8.828750000000001,6.9282682868875,-1.0044770171975,3.6435509730199995,9.527875,6.424250000000001,8.231125,16.5,False,0
4.701021432876587,9.7794659662,-2.3581266722999996,7.69950492115,2.4675000000000002,15.417500000000002,-11.69875,7.0361247655825,-1.08861464187,3.9200416244499996,9.5519375,7.2900625,5.733874999999999,16.5,False,0
4.711175441741943,9.921240705249998,-2.5531417142,7.697710304199999,4.375,11.55,-14.700000000000001,7.18133918712,-1.1863913553625,4.198506354525,9.664375,7.886375000000001,3.2038124999999993,16.5,False,0
4.721313238143921,10.1132647189,-3.0119654477499997,7.79521782515,1.61,9.6425,-15.198750000000002,7.351379143132499,-1.3048958946274998,4.4841196421175,9.7514375,8.237250000000001,0.7188124999999987,16.5,False,0
4.731540203094482,10.137791150550001,-3.5413774479999995,7.7730842161,-7.402500000000001,9.572500000000002,-14.323750000000002,7.5265337574524995,-1.45854501583,4.776373012424999,9.337125,8.453812500000002,-1.6380000000000006,16.5,False,0
4.741817235946655,10.204191977699999,-3.7256247882,7.465606511999999,-19.696250000000003,10.49125,-11.71625,7.710751187369999,-1.6383058136549997,5.0628237879275,8.253874999999997,8.5483125,-3.721812500000001,16.5,False,0
4.752211093902588,10.10668445675,-3.8703905554999998,7.127620319749999,-31.4825,9.826250000000002,-8.610000000000001,7.8981391072325,-1.8295820702424996,5.338118028057499,6.336749999999998,8.61525,-5.2801875,16.5,False,0
4.762474298477173,10.03729260135,-3.93080932615,6.809374913949999,-36.321250000000006,7.236250000000001,-5.643750000000001,8.08498864201,-2.01930299214,5.593880853714999,3.669312499999998,8.5015,-6.357312500000001,16.5,False,0
4.772665977478027,9.88175913235,-3.8303107769499993,6.51146850025,-35.542500000000004,3.5000000000000004,-3.0275000000000003,8.270611855205,-2.194397785895,5.827330608627499,0.55475,8.3129375,-7.0096250000000015,16.5,False,0
4.7828049659729,9.66879792095,-3.5258241010999996,6.262016744199999,-32.41875,1.3650000000000002,-0.9362500000000001,8.45479937484,-2.346940226645,6.038557023642499,-2.5046875,7.939750000000001,-7.39025,16.5,False,0
4.7929651737213135,9.3966143502,-3.2925238975999997,5.942574927099999,-30.432500000000005,-0.30625,0.1925,8.6253777159375,-2.4760629161975,6.221219118869998,-5.304687500000001,7.42,-7.624750000000001,16.5,False,0
4.803302764892578,9.081958178299999,-2.9252256285,5.52323276645,-30.79125,-2.1,1.8987500000000002,8.772147472164999,-2.5903800159125,6.381747605047498,-7.883312500000001,6.8079374999999995,-7.7516250000000015,16.5,False,0
4.813588857650757,8.7290168448,-2.66739899335,5.07816776285,-32.908750000000005,-5.013750000000001,2.9312500000000004,8.8965144268,-2.684328213245,6.508656933694999,-10.318437499999998,6.104437500000001,-7.6916875000000005,16.5,False,0
4.824278831481934,8.37428089435,-2.3904297774,4.701896409,-36.93375,-7.805000000000001,4.961250000000001,8.9868135696675,-2.7644877703449997,6.596682895092499,-12.7623125,5.353687500000001,-7.4545625,16.5,False,0
4.834350824356079,8.026125206049999,-1.9537396528999997,4.505086750149999,-40.67,-10.561250000000001,5.643750000000001,9.040023962235,-2.820360178055,6.6430438329675,-15.2840625,4.654125000000001,-6.9549375,16.5,False,0
4.844421863555908,7.739584699699999,-1.61694987195,4.2496529376,-41.30875,-11.978750000000002,5.696250000000001,9.067421781004999,-2.8470401500449998,6.632664964939998,-17.731,4.096312500000001,-6.2286875,16.5,False,0
4.854548692703247,7.36929540235,-1.2699905949499997,4.024129407549999,-42.07875000000001,-11.9,5.5125,9.0731346449625,-2.8339095360275,6.563811494624998,-19.9434375,3.6583750000000017,-5.3186875,16.5,False,0
4.864653825759888,7.30947483735,-1.016949605,3.5234312785,-41.93000000000001,-11.68125,4.095000000000001,9.064131649930003,-2.782433939845,6.428766569137498,-21.965125000000004,3.1766875000000017,-4.424437500000001,16.5,False,0
4.874760627746582,7.1617180418,-0.95174518915,3.2769705506999998,-40.60875,-11.996250000000002,1.3475000000000001,9.038438717262503,-2.7112474674950002,6.233213142152498,-23.8476875,2.3576875000000017,-3.7782500000000008,16.5,False,0
4.887268543243408,6.942774773899999,-0.8913264184999999,2.9084758702999998,-39.52375000000001,-13.3175,-1.2337500000000001,8.992317061647501,-2.6311776412425,6.001916927579998,-25.690000000000005,1.1624375000000016,-3.3683125000000005,16.5,False,0
4.897430419921875,6.725027917299999,-0.8691928094499999,2.72961238095,-37.651250000000005,-14.35875,-4.2,8.905936165787502,-2.554039022675,5.752524992094998,-27.524875,-0.3254999999999999,-3.0795624999999993,16.5,False,0
4.9076244831085205,6.5874406178,-0.8141578896499999,2.56091838765,-34.62375,-14.367500000000001,-6.930000000000001,8.769664918717499,-2.48386949993,5.497838936607499,-29.350562500000002,-1.8641874999999992,-2.8594999999999997,16.5,False,0
4.917801380157471,6.4558353747999995,-0.6747759731999999,2.46520548365,-30.073750000000004,-14.105000000000002,-10.5875,8.600492360897501,-2.40071891458,5.237140914337499,-31.147375,-3.2431875,-2.615375000000001,16.5,False,0
4.927994251251221,6.417550213199999,-0.6305087550999998,2.4999014113499998,-24.368750000000002,-12.818750000000001,-15.26875,8.420851204202497,-2.2943878602925003,4.969473796244998,-32.760875,-4.4454375,-2.49725,16.5,False,0
4.938202381134033,6.35593503125,-0.69092752575,2.428714939,-17.78,-10.062500000000002,-20.641250000000003,8.238219019257498,-2.1612272826025003,4.700251343462499,-33.7483125,-5.514687500000001,-2.6171250000000006,16.5,False,0
4.94837212562561,6.165107428899999,-0.8327022647999999,2.5256242543,-10.508750000000001,-5.775,-24.45625,8.042635681989998,-2.0164016947375,4.440420719384999,-33.7920625,-6.426,-3.0891875,16.5,False,0
4.9584972858428955,6.24466878035,-0.8967102693499999,2.5040888509,-1.88125,2.00375,-25.698750000000004,7.840561813419998,-1.8699310413349994,4.197549225485,-32.839625,-7.04375,-3.8189374999999997,16.5,False,0
4.968693256378174,6.4079789228,-0.9822536772999998,2.3509482045,7.95375,9.450000000000001,-27.335,7.651469007454999,-1.7224135280449997,3.9698721550949996,-30.997750000000003,-7.2244375000000005,-4.75475,16.5,False,0
4.9788360595703125,6.653841444949999,-0.9385846648499999,2.1607188078,15.566250000000002,13.597500000000002,-28.385,7.480322370989998,-1.5792928262824995,3.7500614890024986,-28.581875000000004,-6.884062499999999,-5.924625,16.5,False,0
4.989110946655273,7.143771872299999,-1.0612168230999999,2.0811574563499997,19.083750000000002,15.225000000000001,-29.688750000000002,7.333791897022498,-1.4397613584199995,3.5290245013274992,-25.95775000000001,-6.2733124999999985,-7.2581250000000015,16.5,False,0
4.999313116073608,7.5792655855,-0.8392825269499998,2.2181465501999997,17.368750000000002,14.936250000000001,-30.108750000000004,7.222914479794999,-1.3139587102249997,3.3260832345649995,-23.478000000000012,-5.537874999999998,-8.7495625,16.5,False,0
5.009616136550903,8.4693955927,-0.6544369810999998,2.6285156261,13.343750000000002,13.632500000000002,-28.323750000000004,7.1543302020225,-1.193001527795,3.154637495275,-21.1658125,-4.752999999999998,-10.255875000000001,16.5,False,0
5.019882917404175,9.5413801175,-0.43848474145,3.2446674455999998,8.592500000000001,13.06375,-26.538750000000004,7.151757917727499,-1.0807781478550003,3.0321847987200004,-19.026437499999997,-3.917812499999998,-11.7705,16.5,False,0
5.030148029327393,10.5535440773,-0.19920248144999997,3.83390001085,5.11,14.14,-24.99875,7.219564528154999,-0.9687641398925001,2.9645576499875004,-16.989874999999998,-2.945249999999999,-13.2636875,16.5,False,0
5.040395975112915,11.240882369149999,-0.07058826669999999,4.2508493489,4.83875,16.35375,-25.191250000000004,7.3572415585024995,-0.8656334858325,2.9279773744899997,-14.863624999999995,-1.723749999999998,-14.783562500000002,16.5,False,0
5.050632953643799,11.770892575049999,-0.19202401365,4.3573299546,9.2225,16.4325,-25.488750000000003,7.538109036780002,-0.7773383318925,2.924926525675,-12.509437499999995,-0.3136874999999996,-16.328375,16.5,False,0
5.060805797576904,12.00538918985,-0.63230337205,4.347160458549999,13.877500000000001,14.533750000000001,-25.847500000000004,7.7504421322475014,-0.7225426943525,2.93551476568,-9.896687499999995,1.0771249999999994,-17.91825,16.5,False,0
5.070974588394165,12.035299472350001,-1.4548361408000001,4.2496529376,15.750000000000002,9.7475,-26.503750000000004,7.9838021563125015,-0.7093821700525,2.9640192649024995,-7.053812500000002,2.2964374999999992,-19.4980625,16.5,False,0
5.0811567306518555,12.0179515085,-2.2085752598,4.4362931003999995,15.207500000000001,4.121250000000001,-23.485000000000003,8.225925893150002,-0.74799634476,3.0090641503474997,-4.246375,3.2676874999999996,-20.894125000000003,16.5,False,0
5.0913496017456055,11.94437221355,-2.8295127244999994,4.6145583840999995,14.481250000000001,0.6737500000000001,-17.465000000000003,8.476514239935002,-0.8335098424274999,3.0817461368224994,-1.4288750000000021,4.0249999999999995,-21.9655625,16.5,False,0
5.1016526222229,11.7679015468,-3.4875389395,4.718646167199999,11.75125,-1.6800000000000002,-10.92875,8.72506868751,-0.95222375367,3.1732416909899994,1.1983125000000008,4.6624375,-22.576750000000004,16.5,False,0
5.111890554428101,11.36530914435,-3.94277343915,4.7712882644,6.781250000000001,-0.63875,-2.2837500000000004,8.9743110715825,-1.09495562176,3.2821450295724994,3.4978124999999998,5.2871875,-22.6480625,16.5,False,0
5.122451305389404,11.0464655329,-3.93439856005,4.58404989595,0.25375000000000003,2.0475000000000003,7.498750000000001,9.2140718961025,-1.2587443287299998,3.3940992169699995,5.384312500000001,6.0423124999999995,-22.098125000000007,16.5,False,0
5.132653474807739,10.792826337299998,-3.5796626096,4.11266384375,-6.16875,2.8087500000000003,15.408750000000001,9.438488745699999,-1.4187942503874997,3.4886755302349997,6.663125000000001,6.843374999999999,-20.898062500000005,16.5,False,0
5.1428444385528564,10.453643733749999,-3.2518459134,3.70708041305,-9.773750000000001,-0.0175,20.466250000000002,9.652676278682499,-1.5602399763299997,3.5626436588574997,7.3154375,7.524999999999999,-19.150687500000007,16.5,False,0
5.152904510498047,9.985846915449999,-2.9467610318999995,3.26440823205,-11.707500000000001,-3.8500000000000005,24.01875,9.8528957097375,-1.6795820035049995,3.6178879506349992,7.486937500000001,7.854874999999998,-16.91068750000001,16.5,False,0
5.162976503372192,9.369695095949998,-2.715853651,3.17467738455,-12.941250000000002,-6.88625,27.44,10.033882829145,-1.7764015879575,3.6558440991275,7.2791250000000005,7.699999999999998,-14.364000000000008,16.5,False,0
5.173046112060547,8.783453558949999,-2.4801606249,2.9778677257000004,-13.3175,-9.047500000000001,31.036250000000003,10.175537927065001,-1.8594624424599995,3.6900614623075,6.537999999999999,7.0266874999999995,-11.59681250000001,16.5,False,0
5.183213233947754,8.37069166045,-2.18045959425,2.9084758702999998,-13.291250000000002,-8.321250000000001,33.0225,10.28483009932,-1.9264315649774997,3.72263375995,5.2845625,5.96925,-8.604750000000006,16.5,False,0
5.2025580406188965,7.432705201249999,-1.6941184008,2.5070798791499995,-16.782500000000002,-0.74375,37.37125,10.321320643970001,-1.9759929030799992,3.754278838834999,3.598875000000002,5.072375,-5.352812500000002,16.5,False,0
5.212634086608887,7.1593252192,-1.28674035315,2.1613170134499997,-22.540000000000003,1.155,39.22625,10.32012423267,-2.0030317984599995,3.768516133304999,1.6935625000000012,4.327750000000002,-1.928062499999999,16.5,False,0
5.2227160930633545,6.937989128699999,-0.7465606511999999,1.9495522133499998,-25.786250000000003,1.5662500000000001,37.126250000000006,10.2788779531025,-2.0166708872799997,3.752484221884999,-0.316312499999999,3.6920625000000014,1.4603750000000015,16.5,False,0
5.232818126678467,6.7226350947,-0.2979064137,1.79282233305,-25.208750000000002,-0.7000000000000001,33.08375,10.1797552768975,-2.0183757733824996,3.6914672455849997,-2.1892499999999995,3.089625000000002,4.640125,16.5,False,0
5.242987871170044,6.577271121749999,0.0083748791,1.7730815465999998,-21.770000000000003,-3.4125000000000005,25.69,10.01803037942,-2.0079071745075,3.5981770744675003,-3.6754374999999997,2.329250000000001,7.468999999999999,16.5,False,0
5.253226041793823,6.093322750899999,-0.023330020349999998,2.02851535915,-16.887500000000003,-5.223750000000001,16.231250000000003,9.7908617838325,-1.9985153458024996,3.49100853227,-4.8741875,1.3466250000000002,9.830625000000001,16.5,False,0
5.26346492767334,5.6297133721499995,-0.29012974025,2.28215455475,-13.877500000000001,-2.0825,13.168750000000001,9.50919665353,-2.0046768639974997,3.3831819638575,-5.929,0.26337499999999997,11.872437500000004,16.5,False,0
5.273738861083984,5.565107161949999,-0.24227328824999997,2.2570299174499997,-15.417500000000002,4.768750000000001,9.388750000000002,9.1909811580125,-2.0011175403799997,3.278585705955,-7.1811250000000015,-0.49262500000000004,13.637312500000004,16.5,False,0
5.284013748168945,5.97308341525,0.00059820565,2.0105691896499995,-14.402500000000002,10.648750000000001,2.2925000000000004,8.872675931647498,-1.9649859191199996,3.165764120365,-8.727250000000002,-0.7770000000000001,15.344875000000002,16.5,False,0
5.296551704406738,6.3864435194,0.11665010174999998,2.00937277835,-5.871250000000001,10.377500000000001,-7.245000000000001,8.580572112752499,-1.8734604546699998,3.045405143585,-10.0620625,-0.6046249999999999,16.541875,16.5,False,0
5.306757926940918,6.623931162449999,0.08315058534999999,2.0829520732999995,7.630000000000001,8.557500000000001,-18.235000000000003,8.302615857479998,-1.7345571027399997,2.9194828542600004,-10.8066875,-0.24456249999999963,17.035375000000002,16.5,False,0
5.3169026374816895,6.763313078899999,-0.21954147355,2.3336002406499996,15.767500000000002,6.195,-27.098750000000003,8.044849042894999,-1.5736098726074996,2.7982564792874998,-10.8714375,0.17237500000000017,16.647312500000005,16.5,False,0
5.327148675918579,6.931408866549999,-0.6095715573499999,2.735594437449999,10.89375,6.081250000000001,-34.8425,7.805387321199999,-1.4077274458624998,2.6825635065775,-10.6045625,0.562625,15.426687500000003,16.5,False,0
5.337404727935791,7.0600230813,-0.9427721043999999,3.25005129645,-0.061250000000000006,6.2475000000000005,-39.92625,7.590212748895,-1.2518948740374995,2.5958236873275,-10.531937500000002,0.8312500000000002,13.442187500000003,16.5,False,0
5.347641468048096,7.8233334907000005,-0.40498522504999995,4.4386859229999995,3.75375,8.977500000000001,-45.517500000000005,7.400432006432501,-1.1100304041399995,2.561696054994999,-10.536750000000001,1.0141250000000004,10.8285625,16.5,False,0
5.3822972774505615,8.57049234755,0.1447657673,4.7036910259499995,32.89125000000001,16.54625,-61.74875000000001,7.266254479137501,-0.9436095923099999,2.590170643934999,-9.621500000000001,1.4498750000000005,7.5565,16.5,False,0
5.402696371078491,8.930612148849999,-0.31046873235,4.13061001325,54.932500000000005,25.3225,-76.405,7.1848386901725005,-0.7875078279425,2.6492434518724997,-7.159249999999998,2.4933125000000005,3.1198124999999974,16.5,False,0
5.422795295715332,10.4997055688,0.05443671415,2.4179472372999995,65.25750000000001,15.636250000000002,-94.68375,7.159863604285002,-0.6633801555675001,2.6753850387775,-3.6920624999999987,3.9851875000000008,-2.1533750000000027,16.5,False,0
5.435434103012085,11.61775192865,0.28055844984999995,1.2777672683999999,70.35000000000001,1.2950000000000002,-109.64625000000001,7.2445097037599995,-0.531146796635,2.6235804294875,0.40862499999999996,4.94375,-8.572812500000001,16.5,False,0
5.459593057632446,13.323236236799998,1.8299110833499999,-1.37766761195,62.728750000000005,-40.67875,-166.3375,7.477809907260001,-0.33726834546999995,2.436910356405,4.364937500000001,4.235875,-17.478125,16.5,False,0
5.478963851928711,13.509278193949998,3.3631121643,-2.7625136916999997,47.258750000000006,-88.48875000000001,-207.235,7.763094181745001,-0.09514460863249993,2.1835702636299996,7.749875000000001,0.7949374999999996,-28.9778125,16.5,False,0
5.489109039306641,14.3042935028,4.0139599115,-3.3954152693999995,40.0925,-121.63375,-223.21250000000003,8.088817158169999,0.15801602244750004,1.91605269695,10.927437500000002,-4.52725,-41.6670625,16.5,False,0
5.499186992645264,15.4600268186,5.22054070755,-3.9326039431,34.790000000000006,-151.55,-234.09750000000003,8.47370267338,0.4281357837049999,1.6293028186225,14.008750000000001,-11.319875000000001,-55.093500000000006,16.5,False,0
5.509294748306274,17.795421676199997,6.661618118399999,-4.3752761241,33.425000000000004,-174.48375000000001,-246.21625000000003,8.947421727614998,0.7495815897325,1.3385748727225,17.0489375,-19.463937500000004,-68.8095625,16.5,False,0
5.519284725189209,19.5996099166,7.41595544305,-4.61037094455,27.545,-193.72500000000002,-263.48,9.574580531075,1.1073085684325,1.0268499085074996,19.802124999999997,-28.623437500000005,-82.99768750000001,16.5,False,0
5.5293028354644775,19.5996099166,7.7383882883999995,-5.521438149499999,18.41,-218.40000000000003,-286.72,10.2375419426875,1.4807384454449999,0.6950850550174997,21.998812499999996,-38.43525000000001,-97.810125,16.5,False,0
5.53961968421936,19.5996099166,7.4153572373999985,-5.7882378694,2.205,-254.9225,-286.72,10.9223079502425,1.8804295504924997,0.29739793889749994,23.367312499999993,-49.867125,-112.92531250000002,16.5,False,0
5.549784421920776,19.5996099166,4.84008191415,-5.1996035098,-30.38875,-281.18125000000003,-286.72,11.626306269445,2.2263419676049994,-0.10175478106499991,23.490249999999996,-63.2568125,-127.73425000000002,16.5,False,0
5.559986591339111,19.5996099166,0.17108681589999997,-4.0869410008,-71.88125000000001,-286.72,-286.72,12.322228812372499,2.3612672519624995,-0.44943190484499984,21.954187499999996,-77.95462500000001,-142.4478125,16.5,False,0
5.570167541503906,19.5996099166,-4.2628134618999995,-2.784647300749999,-115.50875,-286.72,-286.72,12.9898861383375,2.2811076948624995,-0.7113263384149999,18.100687499999992,-92.8274375,-156.72562500000004,16.5,False,0
5.580361366271973,19.5996099166,-8.1128650253,-3.2338997439,-167.79875,-281.82875,-286.72,13.644293209154998,1.9697715643199996,-0.9581160793224999,11.238937499999997,-107.63900000000001,-170.48281250000005,16.5,False,0
5.592916488647461,19.5996099166,-10.0103733471,-3.3966116807,-266.79625000000004,-268.71250000000003,-269.43875,14.2878129371425,1.5126826271549998,-1.2407981592299997,0.4121249999999918,-121.858625,-183.70493750000006,16.5,True,1
5.6032445430755615,19.5996099166,-7.591827904149999,-1.1174481541999999,-286.72,-248.78875000000002,-222.90625000000003,14.925679621737498,1.0570592938324999,-1.5158531170999994,-14.681625000000007,-135.26493750000003,-194.77150000000003,16.5,True,1
5.613485336303711,19.5996099166,-1.09651095645,3.9696926934,-286.72,-200.4625,-174.23875,15.557594160114999,0.8342276892074996,-1.618923950595,-29.338312500000008,-146.98556250000001,-202.87968750000007,16.5,True,1
5.623932361602783,14.96531074605,9.9110712092,5.096712138,-286.72,-139.07250000000002,-172.36625,16.171472798145,1.1064411702399997,-1.5483655941775,-43.53693750000001,-156.03568750000002,-209.10356250000004,16.5,True,1
5.634105205535889,4.6743789491,19.1234382192,2.04287229475,-258.90375,-89.17125000000001,-194.04875,16.353028212919998,1.872084581675,-1.5622439652574998,-58.33012500000001,-162.5085,-215.89575000000008,16.5,True,1
5.644759178161621,-11.609377049549998,19.5996099166,-6.9924258428499995,-239.43500000000003,-63.55125,-210.19250000000002,15.750694943934999,2.8520949877875,-1.9295721446400003,-72.27237500000001,-167.003375,-222.47443750000008,16.5,True,1
5.65485405921936,-19.5996099166,19.5996099166,-12.2644122363,-286.72,-67.84750000000001,-274.72375000000005,14.30824166009,3.8481373053200003,-2.6225036593175,-88.24156250000001,-171.15175000000002,-230.6928750000001,16.5,True,1
5.6649391651153564,-19.5996099166,19.5996099166,-11.371889406499998,-286.72,-146.94750000000002,-286.72,12.786466307054999,4.82739995437,-3.3713973125525003,-106.026375,-176.2350625,-240.05143750000008,16.5,True,1
5.675185203552246,-19.5996099166,19.5996099166,-3.0855447426999993,-286.72,-246.61,-286.72,11.1367646757675,5.730869947565,-3.7672299911575005,-123.66287500000003,-184.643375,-247.0890625000001,16.5,True,1
5.685417890548706,-19.5996099166,19.5996099166,7.3531438497999995,-286.72,-286.72,-286.72,9.4906821886625,6.563871315190001,-3.5937503526575,-140.61118750000006,-195.3669375,-251.73531250000005,16.5,True,1
5.695620059967041,-19.5996099166,19.5996099166,19.5996099166,-286.72,-286.72,-286.72,7.819504974539998,7.362774960764999,-2.72698027609,-157.14868750000005,-204.409625,-255.30006250000005,16.5,True,1
5.705851078033447,-19.5996099166,13.401002971299999,19.5996099166,-286.72,-286.72,-286.72,6.102684669322498,8.12339344474,-1.5629917223199998,-173.36331250000006,-212.0435625,-258.13287500000007,16.5,True,1
5.716036796569824,-19.5996099166,-3.1698917393499997,19.5996099166,-231.3325,-286.72,-275.66875000000005,4.304986960224999,8.2254174183475,-0.3775874062800003,-189.42743750000008,-218.28625000000002,-260.5470000000001,16.5,True,1
5.7262139320373535,-19.5996099166,-19.5996099166,19.5996099166,286.67625000000004,1.0675000000000001,-120.72375000000001,2.3645573830374973,7.1309104508250005,0.8261220026499997,-186.84881250000007,-217.54337500000003,-259.0643125,16.5,True,1
5.736361980438232,-19.5996099166,-19.5996099166,4.939384052049999,286.67625000000004,212.87875000000003,199.61375,0.40459639137749726,5.7757054610325,2.0454445790449998,-173.71156250000004,-201.63281250000006,-243.567625,16.5,True,1
5.746506690979004,-19.5996099166,-5.19421965895,-19.37767562045,286.67625000000004,135.4675,286.67625000000004,-1.5553646002825026,4.406532369312499,1.8949061272225003,-159.98543750000005,-179.526375,-214.93587500000004,16.5,True,1
5.756706714630127,-12.293724313149998,8.604590069599999,-10.6564354491,-56.455000000000005,54.10125000000001,197.84625000000003,-3.4147672221775003,4.267898209925,1.2000902647475,-145.12268750000004,-162.16025,-186.26606250000003,16.5,True,1
5.769191741943359,-11.359925293499998,5.239683288349999,1.1712866627,-286.72,93.49375,126.385,-4.961936405055,4.514358937725001,1.2058629492700002,-154.71137500000006,-144.311125,-164.1276875000001,16.5,True,1
5.779266834259033,-11.94796144745,5.2426743166000005,8.81695307535,-222.33750000000003,101.53500000000001,147.0875,-6.524329921725,4.8553361582250005,1.59146631126,-164.60587500000005,-124.75618750000005,-143.4015625000001,16.5,True,1
5.789485454559326,-12.3026973979,9.104689993,12.7621193371,30.301250000000003,76.31750000000001,202.65875000000003,-8.105178082697497,5.49045109683,2.3274985430200004,-163.74006250000008,-105.71531250000001,-120.59031250000007,16.5,True,1
5.799593687057495,-11.413763801999997,12.107084150349998,12.8291183699,145.8975,64.11125000000001,227.18500000000003,-9.674271502647498,6.4806309989925,3.1351659013675004,-148.52381250000002,-88.571875,-95.34831250000005,16.5,True,1
