window size: 20,acc threshold: 14
time,aX,aY,aZ,gX,gY,gZ,faX,faY,faZ,fgX,fgY,fgZ,temp,punchReg,punchCount
0.08887767791748047,2.901297402499999,-8.717052731799999,0.013758729949999998,-13.072500000000002,7.210000000000001,22.4875,3.2647073348749993,-8.950532396995001,0.8968598207624998,-26.0946875,-13.768562500000007,12.802562500000002,15.5,False,0
0.0992116928100586,2.88275302735,-8.5854474888,0.17706887240000002,-11.217500000000001,8.977500000000001,22.942500000000003,3.1921449895299996,-8.8683090304025,0.5808277758675001,-13.447437500000007,-1.5189999999999997,16.9754375,15.5,False,0
0.10950970649719238,3.0203403268499995,-8.435297870649999,0.0634097989,-7.271250000000001,10.123750000000001,21.665000000000003,2.9554051035424997,-8.735118542430003,-0.24442682859000003,-1.0828125,2.148125,18.62,15.5,False,0
0.11975765228271484,3.22373024785,-8.25463976435,-0.08793623055000001,-2.9050000000000002,9.2575,20.361250000000002,2.9696423980125,-8.672905154830001,-0.28426732488,0.845250000000001,3.5091875000000003,19.599125,15.5,False,0
0.12973761558532715,3.2865418410999996,-8.008179036549999,-0.2141576227,-1.6362500000000002,7.481250000000001,17.19375,2.9856743094324996,-8.609136432540001,-0.3213859854625,1.9464375000000007,4.581062500000001,20.232187500000002,15.5,False,0
0.13995051383972168,3.2494530907999994,-7.802994498599999,-0.20817556619999997,-2.77375,6.6937500000000005,12.88,3.0017062208525,-8.5425860539775,-0.34983066412,2.7413750000000014,5.448187500000001,20.432562500000003,15.5,False,0
0.1499614715576172,3.1298119607999997,-7.79521782515,-0.29371897415,-5.617500000000001,7.1312500000000005,7.53375,3.009512804585,-8.4795949990325,-0.36861432153000007,2.7304375000000007,5.981062500000001,20.048875000000002,15.5,False,0
0.16013765335083008,2.8462624827,-8.160721477300001,0.028713871199999998,-7.9887500000000005,8.3475,3.31625,3.006162852945,-8.4250386437525,-0.3649054465,1.5115624999999997,6.314437500000001,19.210187500000004,15.5,False,0
0.17029166221618652,2.69850568715,-8.58365287185,0.17048861024999998,-5.34625,10.77125,4.6025,2.982473909205,-8.397910017525,-0.34438699270500006,0.10150000000000073,6.675812500000001,18.1829375,15.5,False,0
0.18041634559631348,2.6554348803499996,-8.85045259175,0.33858439789999994,-2.4850000000000003,14.166250000000002,7.7525,2.9483163665900003,-8.4018282645325,-0.31004998839500003,-1.1488749999999996,7.155312500000001,17.254125000000002,15.5,False,0
0.1906423568725586,2.49272294355,-9.32782070045,0.39900316855,-17.080000000000002,18.43625,13.92125,2.8986952079224997,-8.3781991413575,-0.20389839580250008,-2.1918750000000005,7.766062500000001,16.56725,15.5,False,0
0.2007453441619873,2.86241403525,-9.19501904615,0.7250252477999999,-33.6,27.562500000000004,11.287500000000001,2.8753651875725,-8.4265939784425,-0.1353739385950001,-4.2936250000000005,8.63625,16.072000000000003,15.5,False,0
0.21103119850158691,2.7792634498999997,-9.4061856406,0.6843472635999999,-44.1525,33.565000000000005,12.24125,2.8536503224775,-8.473792404227499,-0.0717248574350001,-6.9050625,9.9036875,15.582437500000003,15.5,False,0
0.22127413749694824,3.0681967788499995,-9.3236332609,0.5635097223,-45.727500000000006,34.063750000000006,11.795000000000002,2.849074049255,-8.5269728865125,-0.003379861922500027,-9.756687500000002,11.323375,15.303750000000003,15.5,False,0
0.23149704933166504,3.0466613754499994,-9.200402896999998,0.47198425785,-39.45375000000001,29.84625,12.293750000000001,2.8550561057549997,-8.566992844497499,0.059641103304999984,-12.331375000000001,12.6258125,14.959875000000006,15.5,False,0
0.2439591884613037,3.2781669619999994,-8.6345003521,0.82253276875,-28.761250000000004,24.298750000000002,15.155000000000001,2.8690840282475,-8.5990566673375,0.125204442545,-14.2541875,13.645187500000002,14.659750000000003,15.5,False,0
0.254688024520874,3.41754887845,-8.0769726863,0.7429714172999999,4.2787500000000005,21.14,15.505,2.8938796524399995,-8.593403623944997,0.20324036958749994,-14.854000000000003,14.518437500000001,14.485187500000004,15.5,False,0
0.2648289203643799,3.5928231338999996,-8.04167855295,0.5060819798999999,36.478750000000005,11.80375,18.200000000000003,2.9300710942649997,-8.564330829354999,0.26530420577499997,-13.604062500000001,15.06225,14.473812500000003,15.5,False,0
0.27495408058166504,3.7639099497999995,-8.4191463181,-0.09870393224999999,39.935,9.502500000000001,15.820000000000002,2.9746374151899997,-8.5433637213225,0.30000013347499993,-11.069625000000002,15.278375000000002,14.4204375,15.5,False,0
0.2850809097290039,3.5892338999999995,-8.62193803345,-0.11784651304999999,22.855,14.271250000000002,8.977500000000001,3.0247371383774992,-8.5279300155525,0.31465617189999995,-8.9840625,15.480937500000005,14.1798125,15.5,False,0
0.2951641082763672,3.38763859595,-9.12323436815,-0.39122649509999996,5.27625,21.411250000000003,6.728750000000001,3.0730422446149994,-8.527152348207501,0.31217361845249997,-7.5263125,16.097812500000003,13.520500000000002,15.5,False,0
0.30529093742370605,3.2446674455999998,-9.273383986299999,-0.31824540579999994,-10.526250000000001,23.152500000000003,7.726250000000001,3.0946374685799993,-8.557002810142501,0.290309201945,-6.999125000000001,16.808312500000003,12.7155,15.5,False,0
0.3153829574584961,3.3631121643,-9.129814630299999,-0.41635113239999993,-19.188750000000002,24.255000000000003,7.035000000000001,3.1127331894924994,-8.587900131965,0.263629229955,-7.294437500000003,17.531937500000005,11.9678125,15.5,False,0
0.3254566192626953,3.2793633732999994,-9.378668180699998,-0.3613162126,-25.173750000000002,25.786250000000003,9.91375,3.1259535343574996,-8.632675824867501,0.244127725765,-8.129187500000002,18.278312500000002,11.310250000000002,15.5,False,0
0.3355987071990967,3.3816565394499993,-9.453443886949998,-0.27816562724999994,-29.793750000000003,24.552500000000002,13.177500000000002,3.12849590837,-8.697371765915001,0.22495523468249998,-9.435125000000001,19.134937500000003,10.908187500000002,15.5,False,0
0.34570860862731934,3.45822686265,-9.32901711175,-0.10947163395000001,-28.630000000000003,23.703750000000003,14.498750000000001,3.1279874335675,-8.772984960075002,0.231804689375,-10.876250000000002,19.963125,10.839937500000003,15.5,False,0
0.3558175563812256,3.6221352107500002,-9.3475614869,-0.08195417405,-22.128750000000004,22.155,13.09875,3.1430622159475003,-8.8500039375125,0.2384148618075,-11.982250000000002,20.793937500000002,10.997875000000004,15.5,False,0
0.36588358879089355,3.6634114005999994,-9.32303505525,-0.021535403399999997,-16.5375,19.775000000000002,9.353750000000002,3.1717760871475003,-8.923852425005,0.24003001706249996,-12.616625000000003,21.467687500000004,11.347437500000002,15.5,False,0
0.3760075569152832,3.5994033960499996,-9.2350988247,-0.0017946169499999999,-11.156250000000002,18.383750000000003,2.0475000000000003,3.2167910623100004,-8.971290133050001,0.23404796056250002,-12.951750000000004,21.946312500000005,11.501875000000002,15.5,False,0
0.386277437210083,3.4426735157499997,-9.319445821349998,-0.0382851616,-8.16375,17.49125,-3.5087500000000005,3.2622846019925,-8.993483562665,0.21843479309750005,-13.213812500000003,22.201812500000003,11.173312500000003,15.5,False,0
0.39647865295410156,3.1651060941499995,-9.5389872949,-0.062213387599999996,-12.503750000000002,17.675,-5.897500000000001,3.3199217163699997,-9.06377272654,0.13483555351000004,-13.584375000000003,22.285812500000002,10.437000000000003,15.5,False,0
0.4067423343658447,3.1238299042999995,-9.75613594585,0.0,-21.560000000000002,19.582500000000003,-7.7787500000000005,3.34791774079,-9.076275224624998,0.09185447755750001,-13.100062500000002,22.097687500000006,9.415000000000003,15.5,False,0
0.4169323444366455,2.9024938137999996,-9.7782695549,0.08255237969999998,-29.863750000000003,22.793750000000003,-8.21625,3.3661929233975,-9.092815610847499,0.06379863257249999,-12.460437500000001,21.616000000000003,8.445500000000001,15.5,False,0
0.42711639404296875,2.87198532565,-9.6394858441,-0.0077766734499999995,-38.12375,23.87,-8.54875,3.364846960684999,-9.107621200685,0.03314059300999996,-11.8094375,21.079187499999996,7.405125000000001,15.5,False,0
0.4373292922973633,2.9216363945999997,-9.328418906099998,-0.03529413334999999,-46.52375000000001,22.23375,-10.815000000000001,3.3550064777424993,-9.127003063744997,0.005712863957499964,-11.650625000000002,20.62025,6.31575,15.5,False,0
0.457714319229126,2.8737799425999997,-8.99641477035,0.43130627364999996,-49.70875,11.891250000000001,-25.462500000000002,3.3450762639524996,-9.127332076852499,-0.012502498084999994,-12.4219375,20.0445,4.616500000000002,15.5,False,0
0.4737532138824463,2.4406790519999997,-9.162117735399999,1.14436740845,-38.727500000000006,6.790000000000001,-31.342500000000005,3.3138499290225,-9.157242359352498,-0.02027917153500001,-14.044187500000001,19.260062499999997,2.4504375000000005,15.5,False,0
0.4890470504760742,2.11346056145,-9.607182738999999,1.3567304141999996,-28.595000000000002,10.123750000000001,-29.321250000000003,3.251666451705,-9.223493635089998,0.014715858989999997,-16.765,18.769187500000005,-0.0008749999999992042,15.5,False,0
0.5059499740600586,1.62173551715,-9.9565348386,1.4374881769499999,-38.115,17.4825,-26.433750000000003,3.1621748864649994,-9.304879513772498,0.07830511958499999,-20.65875,18.964312500000002,-2.1288749999999994,15.5,False,0
0.5221090316772461,1.4380863825999999,-9.783653405749998,1.0348957745,-44.59,21.875000000000004,-25.47125,3.0514470206499995,-9.374271369172499,0.14539388323249997,-24.241875,19.4495,-4.155375,15.5,False,0
0.535876989364624,1.43569356,-9.624530702849999,0.9906285563999999,-59.946250000000006,19.591250000000002,-26.145000000000003,2.940061128619999,-9.423384053037498,0.21185453094749995,-27.787375000000004,19.541375000000002,-5.7955625,15.5,False,0
0.5505106449127197,1.4309079148000001,-9.0484586619,1.48055898375,-61.713750000000005,15.750000000000002,-25.077500000000004,2.8568507227049995,-9.427212569197497,0.28202405369249994,-30.740499999999997,19.263125000000002,-7.491750000000001,15.5,False,0
0.568408727645874,1.87178547885,-8.1176506705,2.285145583,-54.02250000000001,15.9075,-31.22875,2.7760630496725,-9.394879553814999,0.4033700697949999,-32.92843750000001,18.748625000000004,-9.2255625,15.5,False,0
0.5910074710845947,1.4530415238499998,-8.6129649487,2.3389840915,-28.070000000000004,15.70625,-43.837500000000006,2.696411967375,-9.335926387007497,0.5479563753999999,-34.135062500000004,18.409562500000003,-11.441062500000001,15.5,False,0
0.6012225151062012,0.85244305125,-9.6012006825,2.3425733254,-20.85125,11.576250000000002,-45.325,2.5864916791874997,-9.311788789029999,0.6916752828124999,-33.9784375,17.814562500000005,-14.252875,15.5,False,0
0.6115126609802246,-0.01974078645,-10.17846913475,2.51246373,-22.645000000000003,9.98375,-46.36625000000001,2.4550359876,-9.361888512217499,0.8242376548525,-33.551437500000006,17.157875000000004,-17.177125,15.5,False,0
0.6218974590301514,0.47437708045,-10.118050364099998,2.6584259086,-30.371250000000003,11.103750000000002,-40.573750000000004,2.2833808763325,-9.3861756616075,0.95724868113,-33.4735625,16.407562500000004,-20.236124999999998,15.5,False,0
0.6320195198059082,0.15613167464999997,-10.043274657849999,3.1663025054499996,-36.79375,22.566250000000004,-32.78625,2.12255328733,-9.437352154964998,1.1100603144224999,-34.166125,16.218562500000008,-22.70975,15.5,False,0
0.6420152187347412,0.64307107375,-9.878768104099999,3.098705267,-34.142500000000005,23.240000000000002,-30.003750000000004,1.9547865127875,-9.485507709789998,1.2672388489599997,-35.365750000000006,16.480625000000003,-24.5875,15.5,False,0
0.6521313190460205,0.93738825355,-10.009176935799998,3.43549504795,-19.040000000000003,20.361250000000002,-25.226250000000004,1.8148662112524998,-9.5206522917275,1.4322538775124998,-36.4161875,16.712937500000002,-25.98225,15.5,False,0
0.6622803211212158,1.1647064005499999,-9.843473970749999,3.5377882141,-1.6450000000000002,18.69875,-15.575000000000001,1.7045570893924995,-9.538807833204999,1.6108182640375,-36.5614375,16.814875,-26.787249999999993,15.5,False,0
0.6726293563842773,1.0731809361,-9.451649269999999,3.1537401868,12.503750000000002,16.3625,-11.891250000000001,1.6058830674249998,-9.5304030438225,1.7893228299974997,-35.36137500000001,16.8035,-27.0939375,15.5,False,0
0.6829323768615723,0.12981062605,-10.610971819699998,2.7080769775499998,17.08875,15.05,-15.365000000000002,1.5156437451224996,-9.5175416223475,1.9430616820474995,-33.36462500000001,16.536625,-27.3380625,15.5,False,0
0.6931471824645996,0.7393821834,-9.939186874749998,2.68654157415,10.15,20.0375,-14.778750000000002,1.4389836910749996,-9.5393163080075,2.0898613485574997,-30.867812500000007,16.165187500000002,-27.575624999999995,15.5,False,0
0.7057590484619141,0.8721838377,-10.6325072231,2.1858434451,2.0125,26.1275,-14.498750000000001,1.3351052799524994,-9.5835835261075,2.2087547214949996,-28.64531250000001,16.116625,-27.878375,15.5,False,0
0.7157871723175049,1.0713863191499997,-10.66062288865,2.0087745726999997,-4.2787500000000005,25.54125,-13.238750000000001,1.2418749293999995,-9.6502236355175,2.2978275427799995,-26.09031250000001,16.66525,-27.514375,15.5,False,0
0.7258801460266113,1.1730812796499999,-10.024730282699998,2.4562323989,-5.5475,22.715000000000003,-12.040000000000001,1.1627622321874997,-9.695178790115,2.37176576112,-24.068625000000004,17.462812500000002,-26.682687500000007,15.5,False,0
0.7360711097717285,1.1306086784999998,-9.719047195549999,2.2037896146,-0.5162500000000001,19.407500000000002,-12.67875,1.0937592104599996,-9.7244609566825,2.4194128411425,-22.524687500000002,18.1418125,-25.69393750000001,15.5,False,0
0.7461941242218018,1.2221341429499997,-9.620343263299999,2.28454737735,5.031250000000001,17.3425,-14.280000000000001,1.0546664712324998,-9.71832934877,2.4628724816150003,-20.720437500000003,18.337375,-25.080562500000006,15.5,False,0
0.7563490867614746,1.1802597474499998,-9.655039190999998,2.2199411671499996,9.756250000000001,15.916250000000002,-13.335,1.05571333112,-9.710492854755,2.51689045181,-18.424875,18.222750000000005,-24.482937500000006,15.5,False,0
0.7665817737579346,0.7615157924499998,-9.87697348715,1.4291132978499999,18.9525,11.340000000000002,-10.31625,1.0272088318974997,-9.72275607058,2.5720749230225,-15.093749999999996,17.8451875,-23.843750000000007,15.5,False,0
0.776770830154419,1.9633109432999998,-10.995618052649998,3.6771701305499995,56.85750000000001,17.4825,-2.6775,0.9783354302925,-9.673374194172501,2.5388745094475,-9.210249999999997,17.92525,-22.845375000000008,15.5,False,0
0.7871568202972412,1.1551351101499998,-8.9312103545,1.98065890715,13.895000000000001,9.09125,-10.543750000000001,0.9715457961649999,-9.7312805010925,2.5052553519175,-5.652937500000002,17.562562500000002,-21.871937500000005,15.5,False,0
0.7974216938018799,1.2675977723499998,-9.153144650649999,1.6002001137499997,5.031250000000001,7.735,-12.197500000000002,0.957428142825,-9.794361286885,2.4658934201475,-2.8210000000000024,17.0646875,-20.63425,15.5,False,0
0.8076558113098145,1.4015958379499998,-9.766305441899998,1.7335999736999999,10.447500000000002,7.280000000000001,-14.21,0.9624829805674999,-9.816614537065,2.43529520115,-1.1952500000000021,16.782500000000002,-19.04525,15.5,False,0
0.8178858757019043,1.26640136105,-10.007382318849999,1.7353945906499997,7.201250000000001,3.8500000000000005,-13.55375,0.9974181905274999,-9.784191790835,2.39461721695,0.4195624999999998,16.558937500000003,-17.5315,15.5,False,0
0.8280355930328369,1.0815558152,-10.2628161314,2.10628209365,0.665,3.5087500000000005,-10.40375,1.0528120337175,-9.8000143302775,2.3636301642799995,1.8353125000000006,16.2929375,-15.774500000000003,15.5,False,0
0.838193416595459,1.19940232825,-10.1431750014,2.18763806205,-3.43,4.62,-5.95,1.0846963948625,-9.7943313766025,2.3187946508125,3.4028750000000003,15.641500000000002,-14.345625000000002,15.5,False,0
0.8482813835144043,1.4368899712999998,-9.769894675799998,2.0949161863,-5.95,4.64625,-2.9400000000000004,1.1379366977124998,-9.7850591890275,2.2702801725975,5.048750000000001,14.647500000000003,-12.990250000000003,15.5,False,0
0.8584363460540771,1.3794622288999998,-9.483952375099998,1.8855442087999998,-4.69875,4.2525,-2.44125,1.1700304308349998,-9.764391183819999,2.20893418319,6.289062499999998,13.748875000000002,-11.674687500000001,15.5,False,0
0.868558406829834,1.8382859624499999,-9.871589636299998,2.15054931175,-7.411250000000001,2.5025000000000004,-3.42125,1.19150601367,-9.733673323692498,2.11704979535,6.643437499999999,12.973187500000003,-10.811062500000002,15.5,False,0
0.8791873455047607,1.9369898947,-9.188438783999999,1.25204442545,-12.293750000000001,-3.8587500000000006,-5.5825000000000005,1.2054741155974997,-9.7326563740875,2.0102999971075,5.775874999999998,12.098187500000002,-10.313187500000002,15.5,False,0
0.8894572257995605,1.6767704369499998,-8.417949906799999,1.3064811395999998,-23.371250000000003,-2.3712500000000003,-12.416250000000002,1.2637692561899996,-9.7081897630025,1.9276578865599998,4.241999999999999,11.113812500000002,-10.060750000000002,15.5,False,0
0.899611234664917,1.6199409001999998,-8.48793996785,1.8125631194999998,-31.123750000000005,-2.5112500000000004,-16.966250000000002,1.3023535206149999,-9.632845761385,1.8556040160174994,2.057562499999999,10.184125000000002,-10.150000000000002,15.5,False,0
0.9097373485565186,1.38364966845,-8.728418639149998,2.19960217505,-28.577500000000004,-1.61,-17.45625,1.3288839411924998,-9.5433242858625,1.8351154725049994,0.43093749999999975,8.962187500000002,-10.266375,15.5,False,0
0.919924259185791,1.1856435983,-8.669196279799998,2.2037896146,-19.652500000000003,-2.8087500000000003,-13.308750000000002,1.3496715875299998,-9.477551574644998,1.8583557620074995,-0.7940624999999999,7.532437500000003,-10.352125,15.5,False,0
0.9299602508544922,1.09651095645,-8.8749790234,2.2743778813,-20.212500000000002,-12.381250000000001,-16.450000000000003,1.3505688960050002,-9.4270331075025,1.8385551549924994,-1.456437500000001,6.0672500000000005,-10.465875000000004,15.5,False,0
0.9400162696838379,1.7036896912000001,-9.08734202915,2.380858487,-8.540000000000001,-16.922500000000003,-10.185,1.3737493649425,-9.3973621072625,1.8384056035799996,-2.060625000000001,4.207875,-10.553375000000003,15.5,False,0
0.9500200748443604,1.4141581565999999,-9.150153622399998,2.29651149035,-3.5875000000000004,-11.453750000000001,-11.9175,1.3912169699225,-9.370113839904999,1.8363118838049999,-2.488500000000001,2.5265625,-10.423875,15.5,False,0
0.9600362777709961,1.5684952143,-9.47497929035,2.4029920960499997,3.9637500000000006,-5.407500000000001,-13.396250000000002,1.395075396365,-9.35258641436,1.8434305310400003,-2.763250000000001,1.2096875000000011,-10.367437500000003,15.5,False,0
0.9701039791107178,1.4488540842999997,-9.710074110799999,2.0398812664999997,7.420000000000001,0.14,-13.343750000000002,1.4271093089224998,-9.332217511977499,1.8445372114925,-3.064687500000001,0.4213125,-10.433500000000002,15.5,False,0
0.9802629947662354,1.47098769335,-9.732805925500001,1.8795621523,4.095000000000001,3.5525,-11.488750000000001,1.4679966650999998,-9.39816968489,1.9225731385349998,-5.508562500000001,-0.4081875000000005,-10.696000000000002,15.5,False,0
0.9903759956359863,1.2813565023,-9.681360239599998,2.2384855423,1.54875,7.5512500000000005,-8.478750000000002,1.4571691428349998,-9.400113853252497,1.955594090415,-5.959625,-0.5092500000000003,-10.837750000000003,15.5,False,0
1.0004878044128418,1.1330015010999999,-9.794421107449999,2.3198415107,7.0875,13.3,-5.0925,1.4443376316424996,-9.424819746597498,1.9839191279425,-6.349437499999999,-0.40687500000000004,-10.639125000000003,15.5,False,0
1.0106029510498047,1.11206430335,-10.1742816952,2.1714865095,17.981250000000003,17.1675,-0.026250000000000002,1.4410475005674996,-9.446385060279999,2.0066509426424997,-6.228250000000001,-0.01925000000000008,-10.136000000000003,15.5,False,0
1.020765781402588,1.51525491145,-9.844670382049998,1.7096717476999999,23.660000000000004,15.207500000000001,0.07,1.4236397161524998,-9.446235508867499,2.0179869397099996,-5.7242500000000005,0.5101250000000006,-9.4066875,15.5,False,0
1.0309836864471436,1.1892328321999999,-10.182656574299997,1.05702938355,30.371250000000003,14.35875,1.5925000000000002,1.4470893776325,-9.433224535979999,2.0040487480649998,-4.68125,1.0736250000000005,-8.770125000000002,15.5,False,0
1.0413098335266113,2.21635193325,-10.18445119125,1.0935199281999999,23.003750000000004,12.0225,1.8637500000000002,1.516271861055,-9.415338187044998,1.9684256016074997,-3.266374999999999,1.4682500000000007,-8.300250000000002,15.5,False,0
1.0516116619110107,1.8705890675499997,-9.8739824589,0.8398807326,16.642500000000002,10.211250000000001,1.9600000000000002,1.5575779611875,-9.411868594275,1.9095023450825,-2.1035000000000004,1.8453750000000002,-8.024625,15.5,False,0
1.0618035793304443,2.3401805028,-10.111470101950001,0.7274180704000001,7.3500000000000005,8.391250000000001,2.21375,1.6028023083275003,-9.440343183215,1.8510576530775,-1.1865,2.0527500000000005,-7.791875000000002,15.5,False,0
1.0719726085662842,2.2384855423,-10.265208953999998,0.6544369810999998,-0.14875000000000002,3.87625,4.6375,1.6397714174975004,-9.479376101877502,1.8025431748625,-0.7249374999999986,2.2019375000000005,-7.480812500000001,15.5,False,0
1.0821325778961182,2.1320049365999996,-10.518249943949998,0.7459624455499999,-2.9050000000000002,-1.4000000000000001,11.375000000000002,1.6747664480225002,-9.521818792745,1.7678173368799999,-0.3871874999999988,2.2522500000000005,-6.951874999999999,15.5,False,0
1.0923664569854736,1.9118652573999997,-10.44407244335,1.19102744915,-1.6712500000000001,5.10125,20.8775,1.660559063835,-9.6017689778675,1.7335700634174998,0.24937499999999888,2.3441250000000005,-5.8480625,15.5,False,0
1.115936279296875,2.4490539311,-10.148558852249998,0.8751748659499998,1.6800000000000002,4.576250000000001,15.697500000000002,1.6636398229325,-9.69966533249,1.7085949775300002,1.5684374999999982,2.7387500000000005,-4.121250000000001,15.5,False,0
1.126129150390625,2.8067809097999996,-10.4111711326,0.84765740605,7.376250000000001,1.3125000000000002,6.343750000000001,1.72749827607,-9.777461977272498,1.6494025284625,3.2720624999999997,3.010875,-2.6324375000000004,15.5,False,0
1.1362783908843994,2.58006096845,-10.974680854899999,0.7704888771999999,15.373750000000001,-3.3075,2.45875,1.7923138582474998,-9.850233694595,1.5643975055975003,5.1126249999999995,3.0699375,-1.6375625000000007,15.5,False,0
1.1464602947235107,2.2755742925999995,-11.282756764649998,1.0289137179999999,17.885,-7.1225000000000005,1.8112500000000002,1.8562022216674996,-9.965807026174998,1.5175280929200006,7.0643125000000015,3.045000000000001,-0.7949375,15.5,False,0
1.1567282676696777,1.9537396528999997,-11.3886391647,1.13001047285,16.75625,-6.9125000000000005,7.945000000000001,1.9089639599975001,-10.086046361824998,1.4619248777525002,8.757437500000002,3.4938750000000005,0.08793750000000064,15.5,False,0
1.166973352432251,1.746760498,-11.565708037099999,1.3621142650499998,13.46625,-5.5475,12.8625,1.9206887907374999,-10.206495069452497,1.4115260517400001,9.938250000000004,3.9160625,1.0618125,15.5,False,0
1.177295207977295,1.6893327556,-11.315658075399998,1.3950155758,12.617500000000001,-2.2575000000000003,21.8575,1.9259829107400002,-10.31820997459,1.3599009041450003,10.570437500000004,4.1391875,2.52175,15.5,False,0
1.1875190734863281,1.7270197115499997,-10.9567346854,1.11326071465,10.6925,0.4025,29.111250000000002,1.9414465267924998,-10.3955878754175,1.3131212223150002,10.866625000000003,4.2196875,4.4463125,15.5,False,0
1.1976232528686523,2.2636101795999997,-10.33400260375,0.9625128908499999,10.290000000000001,0.43750000000000006,30.4675,1.959422606575,-10.441978723574998,1.2719945838775,11.020187500000002,4.2223125,6.535812500000001,15.5,False,0
1.2078921794891357,2.1744775377499996,-9.9098747979,0.92662055185,8.540000000000001,-1.435,31.19375,2.0009978992499997,-10.4540325674225,1.21758778001,11.407812500000002,3.9781875000000007,8.641937500000001,15.5,False,0
1.2179417610168457,2.31445765985,-9.344570458649999,1.2275179938,0.09625,-1.5137500000000002,25.585,2.0556140750949994,-10.451340641997499,1.1571989196424997,11.524625000000002,3.3880000000000003,10.5083125,15.5,False,0
1.2279667854309082,2.6925236306499998,-9.0628155975,1.12881406155,-14.323750000000002,-1.88125,19.512500000000003,2.1212073246174996,-10.423135245599997,1.09399849272,10.573500000000001,2.4762500000000007,11.805062500000002,15.5,False,0
1.2380609512329102,2.80977193805,-8.57527799275,1.6821542877999998,-25.558750000000003,1.4612500000000002,14.621250000000002,2.207019925109999,-10.375607806707501,1.0581360640025,8.5640625,1.5736875000000001,12.78025,15.5,False,0
1.2480907440185547,2.6021945774999997,-8.5591264402,1.6893327556,-26.722500000000004,6.2125,8.4,2.25080857869,-10.3094761721,1.0606485277325,5.9933125,1.0491249999999994,13.3074375,15.5,False,0
1.2586557865142822,2.4047867129999996,-8.609973920449999,1.7306089454499998,-25.733750000000004,9.336250000000001,4.41875,2.2731216494349997,-10.242028485062502,1.06875421429,3.352125,0.8548749999999998,13.598375000000004,15.5,False,0
1.268690824508667,2.05603281905,-8.80020331715,1.5332010809499996,-25.025000000000002,7.98,3.9637500000000006,2.2848763904575002,-10.17966554605,1.0998908183725,1.2070624999999995,0.7183750000000001,13.737062500000002,15.5,False,0
1.2787797451019287,1.8705890675499997,-8.708079647049999,1.8346967285499995,-21.953750000000003,7.638750000000001,4.5062500000000005,2.2684257350824995,-10.1152687078275,1.1400902380525,-0.6864374999999991,0.6825000000000001,13.817125000000004,15.5,False,0
1.289111614227295,1.9465611851,-8.7290168448,1.7473587036499998,-17.885,7.498750000000001,2.975,2.249552346825,-10.052546845424999,1.1932108997725002,-1.9284999999999997,0.732375,13.866562500000004,15.5,False,0
1.299290657043457,1.8616159827999998,-8.93300497145,1.7347963849999999,-12.10125,5.5825000000000005,1.6187500000000001,2.2433609183475,-9.974959572619998,1.2458829072549997,-2.5939375,0.9869999999999999,13.648687500000003,15.5,False,0
1.3094966411590576,1.9704894111,-9.0341017263,1.5756736821,-1.8375000000000001,5.460000000000001,0.27125000000000005,2.2452751764274996,-9.89288575744,1.2920045628699999,-2.7300000000000004,1.3549375000000001,12.995500000000002,15.5,False,0
1.3197264671325684,2.2791635265,-9.117850517299999,1.4368899712999998,3.8850000000000002,6.746250000000001,-1.435,2.2398913255774997,-9.8193961933375,1.3162019814124997,-2.6508125000000007,1.3684999999999998,11.995375,15.5,False,0
1.3299155235290527,2.3001007242499996,-9.340383019099999,1.1778669248499998,1.4875,9.47625,-3.7800000000000002,2.2269401732549996,-9.774740141565,1.3452448657199998,-2.670499999999999,1.57675,11.255999999999998,15.5,False,0
1.3400626182556152,2.1146569727499998,-9.63649481585,1.0109675485,-3.5000000000000004,13.51875,-7.008750000000001,2.1993030722249993,-9.72742207465,1.3632209455024997,-3.294375000000001,2.1651875,10.788749999999999,15.5,False,0
1.3501973152160645,1.8083756799499997,-10.0438728635,0.72083780825,-7.3500000000000005,15.645000000000001,-6.2562500000000005,2.1770797323274995,-9.658748066030002,1.3674083850524998,-4.56575,3.24275,10.323687499999998,15.5,False,0
1.3604152202606201,1.70428789685,-10.378868027499998,0.7860422241,-9.96625,9.607500000000002,-3.0100000000000002,2.14684043672,-9.586066079555,1.3366307043599996,-5.936000000000001,4.2100625,9.884875,15.5,False,0
1.3705551624298096,1.46261281425,-10.370493148399998,0.9451649269999999,-5.460000000000001,10.342500000000001,1.6275000000000002,2.1474386423699996,-9.51888758506,1.3174283029949998,-7.137812500000001,5.027312500000001,9.36075,15.5,False,0
1.3806750774383545,1.4392827938999997,-10.097113166349997,1.088734283,-1.5750000000000002,11.165000000000001,7.586250000000001,2.1372392360375,-9.458887558365,1.2931710638874998,-7.947625,5.765812500000001,8.756562500000001,15.5,False,0
1.3909664154052734,1.53798672615,-10.036096190049998,1.0660024682999998,-3.6400000000000006,11.383750000000001,12.232500000000002,2.1212970554649995,-9.406305281729999,1.2868599942799999,-8.6835,6.392750000000001,7.987,15.5,False,0
1.4012212753295898,1.7473587036499998,-9.92602635045,0.8087740387999999,-7.008750000000001,10.49125,15.216250000000002,2.1219849919625,-9.372416931657499,1.28027973213,-9.464,6.874437500000001,7.1933750000000005,15.5,False,0
1.4113430976867676,2.08953233545,-9.9505527821,0.99601240725,-9.012500000000001,7.3500000000000005,18.69875,2.1044276561349995,-9.374121817759999,1.2783654740499997,-10.3845,7.364437500000001,6.4903125,15.5,False,0
1.4218120574951172,2.1302103196499997,-9.654440985349998,1.09172531125,-10.071250000000001,5.97625,21.945000000000004,2.0957536742099996,-9.378967283525,1.2820145285149998,-11.169374999999999,7.763437500000002,6.003375000000001,16.5,False,0
1.4319911003112793,2.02612253655,-9.48813981465,1.16350998925,-8.811250000000001,4.17375,22.163750000000004,2.080020865615,-9.3977808512175,1.2939487312325,-11.2555625,8.153687500000002,5.985875000000002,16.5,False,0
1.4421629905700684,1.8807585635999997,-9.432506689199998,1.5212369679499997,-6.055000000000001,4.2787500000000005,21.813750000000002,2.0430218461624996,-9.432028124679999,1.3010374681849997,-10.658375000000003,8.399125000000002,6.0821250000000004,16.5,False,0
1.4523470401763916,1.8586249545499995,-9.638887638449999,1.7419748528,-3.8937500000000003,8.102500000000001,22.575000000000003,2.0067705837724996,-9.478867627075,1.29559379677,-9.562000000000003,8.511125000000003,6.63425,15.5,False,0
1.4625670909881592,1.2963116435499997,-9.848857821599998,1.6821542877999998,-1.16375,8.68875,25.698750000000004,1.9350756366199995,-9.546345224394999,1.2958031687475002,-8.3873125,8.566250000000004,7.4471250000000015,15.5,False,0
1.4728717803955078,1.4458630560499999,-10.0163554036,1.6618152956999999,1.32125,5.696250000000001,31.22875,1.8821344365949997,-9.610233587815,1.2953246042275004,-7.1715,8.482250000000004,8.634937500000001,15.5,False,0
1.4831669330596924,1.6737794087,-9.8991070962,1.5738790651499999,4.313750000000001,4.64625,35.306250000000006,1.8598811864149998,-9.673553655867497,1.29607236129,-5.794687499999999,8.340937500000003,10.079125000000001,15.5,False,0
1.493424654006958,2.1924237072499997,-9.7651090306,1.32981115995,3.7975000000000003,2.6250000000000004,36.2775,1.8614664313875005,-9.727840818604998,1.2784851151799999,-4.5591875,8.152375000000003,11.686500000000002,15.5,False,0
1.506908655166626,2.63150665435,-9.669994332249999,1.4703894876999999,3.0537500000000004,-3.7800000000000002,33.0225,1.8775880736549997,-9.7692665598675,1.25683007065,-3.629062499999999,7.763437500000004,13.324062500000002,15.5,False,0
1.5171246528625488,2.5501506859500003,-9.6454679006,1.6492529770499997,4.4625,-5.005000000000001,32.20875,1.8980467068849998,-9.8055178222575,1.2450454193450002,-3.173625,7.272125000000001,14.88025,15.5,False,0
1.5273206233978271,2.380858487,-9.593424009049999,1.6671991465499998,5.11875,-3.33375,32.261250000000004,1.9128522967224992,-9.833244654134997,1.2536894909875,-2.9395624999999987,6.779937500000003,16.49025,15.5,False,0
1.5374915599822998,2.30129713555,-9.945168931249999,1.7670994901,7.017500000000001,0.58625,32.36625,1.9075282664374995,-9.8450592157225,1.272921802635,-2.8048124999999997,6.312687500000001,18.228,15.5,False,0
1.5476675033569336,2.29531507905,-10.0235338714,1.6731812030499997,6.317500000000001,4.89125,33.03125,1.909292973105,-9.866624529404998,1.3066306910124996,-2.45,5.8830625,20.1355,15.5,False,0
1.5577826499938965,2.42333108815,-9.76451082495,1.543370577,3.5875000000000004,9.835,32.71625,1.9341484178625,-9.877930616190001,1.3446167497874997,-1.8567499999999988,5.4814375,22.132250000000006,15.5,False,0
1.567861557006836,2.667997199,-9.90688376965,1.30947216785,3.0625000000000004,7.411250000000001,28.218750000000004,1.979043751895,-9.865398207822498,1.3799407934199999,-1.2319999999999998,5.334000000000001,23.939125000000008,15.5,False,0
1.5778684616088867,2.7469603447999997,-10.3405828659,1.34656091815,5.53,3.31625,21.7175,2.0327925295475002,-9.835129001932497,1.4019846716225,-0.5748750000000001,5.165125000000001,25.221437500000004,15.5,False,0
1.5879194736480713,3.0741788353499997,-10.442876032049998,1.66480632395,11.707500000000001,-8.8725,26.740000000000002,2.1072093124075,-9.843533791314998,1.4228321385249998,-0.04156250000000021,4.692625,26.212375,15.5,False,0
1.6121084690093994,3.1447671020500003,-10.360921858,1.7276179172000001,5.0575,-11.36625,26.101250000000004,2.1898813332374996,-9.860283549514998,1.4500205853175,0.5626250000000003,3.580062499999999,27.084312500000003,16.5,False,0
1.6260111331939697,2.9694928465999992,-10.0534441539,1.9028921726499999,-8.75,-5.661250000000001,21.6475,2.2560428781274995,-9.875298511329998,1.4884253880475,0.5971875000000001,2.6433750000000003,27.613687500000005,15.5,False,0
1.649679183959961,2.6751756667999995,-10.163513993499999,2.0997018315,-17.0625,-3.6662500000000002,18.585,2.3130817868549998,-9.881430119242498,1.5400206253600002,0.3429999999999997,1.9118750000000009,27.742750000000008,16.5,False,0
1.6738121509552002,2.739781877,-9.3140619705,1.9698912054499997,-14.560000000000002,-6.273750000000001,8.0325,2.3322841882199996,-9.88570728964,1.5864712940825,0.08137499999999989,1.3781249999999994,27.555500000000006,15.5,False,0
1.6937718391418457,2.6177479243999993,-8.78464997025,2.2169501388999997,-15.023750000000001,-3.8150000000000004,1.5750000000000002,2.366561371964999,-9.865308476974999,1.6297215625775,-0.1540000000000002,0.7927500000000001,26.69931250000001,15.5,False,0
1.7076659202575684,2.7134608283999992,-8.467600975749999,2.1511475173999997,-21.122500000000002,1.3475000000000001,-5.57375,2.4125633864499996,-9.814460996725,1.6703397262125002,-0.6041875,0.5223749999999998,25.653250000000007,15.5,False,0
1.7266638278961182,2.12781749705,-8.400601942949999,2.1200408235999997,-25.261250000000004,2.0825,-10.045000000000002,2.42440785832,-9.7455177955625,1.6860127142425,-1.5653750000000006,0.3084374999999996,24.17100000000001,15.5,False,0
1.7369368076324463,1.6773686425999996,-7.8400832489,2.02014048005,-27.8075,5.3025,-10.6925,2.4566810531375,-9.680971405927501,1.7183457296249998,-2.7466250000000008,-0.07306249999999999,22.47043750000001,16.5,False,0
1.7471165657043457,1.7766707805,-8.20678331235,2.1164515896999996,-25.523750000000003,5.10125,-13.623750000000001,2.4847368981224998,-9.597940461707502,1.7577076613949998,-4.081,-0.0660625,20.473250000000004,16.5,False,0
1.757737636566162,1.7706887239999998,-9.01555735115,1.9968104596999998,-12.521250000000002,-4.0512500000000005,-11.838750000000001,2.49152653225,-9.523493768565,1.7761323954150003,-5.294625000000001,-0.2353750000000004,18.143125000000005,15.5,False,0
1.7680435180664062,1.84905366415,-8.80020331715,1.8652052167,5.8187500000000005,-10.395000000000001,-3.7800000000000002,2.4923341098774996,-9.480542602895003,1.8053846517,-5.6446250000000004,-0.7643125000000002,15.923687500000003,15.5,False,0
1.7782084941864014,2.0344974156499998,-8.7768732968,1.6283157792999998,11.025,-13.037500000000001,-4.996250000000001,2.4717857457999997,-9.4492564474,1.822313871595,-5.3554375,-1.3033125000000005,13.981187500000004,15.5,False,0
1.7884175777435303,2.0075781614,-8.867800555599999,1.5924234403,5.78375,-14.901250000000001,-8.54875,2.4519552285024995,-9.401908470202498,1.8289838645924998,-5.0203125,-1.7710000000000001,12.065375,15.5,False,0
1.7985525131225586,2.10987132755,-8.83489924485,1.7599210222999997,-2.2662500000000003,-10.080000000000002,-12.617500000000001,2.4307787484924996,-9.349715027239998,1.817049661875,-5.169062500000001,-2.2701875,9.972375000000003,15.5,False,0
1.8086953163146973,2.08713951285,-8.867800555599999,1.9393827172999998,-15.872500000000002,-2.6075000000000004,-15.74125,2.4238096526699997,-9.30377283332,1.8259330157774998,-5.96925,-2.5086250000000003,7.639624999999998,15.5,False,0
1.8189074993133545,1.9764714675999997,-8.7373917239,2.0327027987,-21.02625,1.1900000000000002,-14.603750000000002,2.4008385557099996,-9.2472124891125,1.83625206324,-7.237125000000003,-2.6193125000000004,5.193124999999998,15.5,False,0
1.8290493488311768,2.189432679,-8.279764401649999,2.07637181115,-26.661250000000003,3.1325000000000003,-13.378750000000002,2.3890239941224998,-9.167920330204998,1.8556339263,-8.726812500000003,-2.939125,2.877437500000001,15.5,False,0
1.8394603729248047,2.1834506225,-7.84785992235,2.0662023151,-27.903750000000002,4.9350000000000005,-17.19375,2.3594726350124997,-9.073732850612497,1.9011872865475,-10.291750000000004,-3.1723125000000008,0.5722499999999996,15.5,False,0
1.8496732711791992,2.31804689375,-7.9764741371,2.0769700168,-21.09625,2.31,-18.935000000000002,2.3361426146624997,-8.994919256225,1.9360925862249996,-11.761750000000003,-3.2436250000000006,-1.5614375000000007,15.5,False,0
1.8598413467407227,2.44486649155,-8.140382485199998,1.8747765071,-9.87875,-2.4937500000000004,-21.20125,2.3030020216524996,-8.868129568707499,1.9639390592324997,-12.906250000000005,-3.2681250000000004,-3.7384375,15.5,False,0
1.869936227798462,2.2875384055999994,-8.1571322434,1.8305092889999999,1.6187500000000001,-6.571250000000001,-24.395000000000003,2.2829023118125,-8.729794512145,1.9730018748299998,-13.623312500000003,-2.9286250000000003,-6.2090000000000005,16.5,False,0
1.879993200302124,2.35872487795,-8.5268233351,1.8340985228999995,7.612500000000001,-12.075000000000001,-26.862500000000004,2.2428225332625,-8.630462463962498,1.9742281964125,-13.171812500000001,-3.0235625000000006,-8.692250000000001,16.5,False,0
1.890110969543457,2.3988046565,-8.76790021205,1.81196491385,7.901250000000001,-12.8275,-27.168750000000003,2.208994003755,-8.559844286979999,1.9675282931325,-12.104750000000006,-3.3993750000000005,-11.030687500000003,15.5,False,0
1.9002041816711426,2.44486649155,-8.840283095699998,1.9064814065499995,6.291250000000001,-12.766250000000001,-28.297500000000003,2.1856041628400003,-8.5067535355425,1.95122718917,-10.912125000000001,-3.828562500000001,-13.2405,15.5,False,0
1.9102320671081543,1.7724833409499998,-9.4145605197,2.0386848552,2.45875,-2.3887500000000004,-19.145000000000003,2.151925184745,-8.5034035839025,1.9403996669049999,-9.929062499999999,-4.072250000000001,-14.9419375,15.5,False,0
1.920271873474121,1.9453647737999997,-10.5834543598,1.9202401365,-1.3650000000000002,-2.00375,-15.846250000000001,2.0811275460675,-8.596424562477498,1.9379171134574995,-8.9779375,-4.159750000000001,-15.913625,16.5,False,0
1.9302098751068115,2.53459733905,-10.0462656861,2.6362922995499996,-2.7825,7.0875,-11.943750000000001,2.0634804793925,-8.712685830554998,1.9823937035349997,-7.899500000000001,-4.2931875,-16.260125,16.5,False,0
1.9402399063110352,2.02612253655,-10.207183005950002,2.2875384055999994,-1.7850000000000001,5.11875,-5.416250000000001,2.0414066909075,-8.822755670154999,2.004886235975,-6.766812500000002,-3.9808125000000003,-16.200625,15.5,False,0
1.950265884399414,2.4538395763,-10.183852985599998,2.2971096959999997,4.558750000000001,2.42375,-2.42375,2.0636599410875,-8.9200538191275,2.00614246784,-5.3650625,-4.219250000000001,-15.706687500000001,15.5,False,0
1.9628746509552002,2.5597219763499997,-9.8177511278,2.2055842315499996,9.773750000000001,-1.2950000000000002,-2.77375,2.1058334394125,-8.9884287249225,2.0221444689775003,-3.9493125000000004,-4.1842500000000005,-15.162875,15.5,False,0
1.9730958938598633,2.7792634498999997,-9.714261550349999,1.8329021115999997,11.138750000000002,-7.936250000000001,-3.8150000000000004,2.1388543912925,-9.022616177820002,2.0218154558700006,-3.2515,-4.0333125,-14.889000000000001,15.5,False,0
1.9833238124847412,2.8546373617999996,-9.6454679006,2.07756822245,8.12875,-9.02125,-6.553750000000001,2.180280132555,-9.0544108081175,2.0322541444625,-3.2195625,-3.94625,-14.966,16.5,False,0
1.9936347007751465,3.08016089185,-9.6131647955,2.19720935245,7.105,-11.0075,-8.05,2.2234705804850003,-9.094281214690001,2.0640487747600007,-3.3433750000000004,-3.7830625000000007,-15.05,16.5,False,0
2.0037498474121094,3.1447671020500003,-9.593424009049999,2.0614166699,8.89,-10.87625,-8.496250000000002,2.273480572825,-9.139505561830001,2.0914166832475,-3.0699375,-3.647875,-14.947625000000002,16.5,False,0
2.013833522796631,3.21535536875,-9.530014210149998,1.63609245275,9.957500000000001,-11.200000000000001,-8.155000000000001,2.3267507859575,-9.187930309197501,2.0926729151125003,-2.1293125000000006,-3.874062500000001,-14.6470625,16.5,False,0
2.0239875316619873,3.3439695835,-9.401399995399998,1.543370577,11.068750000000001,-10.91125,-8.16375,2.3954846151425,-9.224091840739998,2.0704196649324995,-0.6632500000000001,-4.463375000000001,-14.248500000000002,15.5,False,0
2.034088611602783,3.1399814568499997,-9.4719882621,1.4321043261,13.53625,-6.44,-8.53125,2.470888437325,-9.256454766404998,2.0482561456,1.0762499999999993,-4.9765625,-14.017937500000002,16.5,False,0
2.044142484664917,2.7547370182499993,-9.728020280299999,1.6606188843999998,17.902500000000003,-7.06125,-7.866250000000001,2.512643191695,-9.323064965532497,2.0178672985799997,3.220875000000001,-5.5348125,-13.699000000000002,16.5,False,0
2.0543174743652344,2.58125737975,-9.807581631749999,1.4823536006999998,17.9725,-8.65375,-7.428750000000001,2.5274487815324997,-9.405078960147497,1.9907386723525,5.3265625,-6.127625,-13.152562500000002,16.5,False,0
2.0650503635406494,2.71046980015,-9.9110712092,1.53798672615,17.78875,-10.605,-6.790000000000001,2.5441088088850004,-9.499445901434997,1.9679470370874999,7.0109375,-6.63775,-12.553625,16.5,False,0
2.0752973556518555,2.4532413706500003,-10.0953185494,1.3112667848,11.891250000000001,-11.585,-4.24375,2.5399512796175,-9.617202683637498,1.945065670975,8.034250000000002,-6.989937499999999,-11.730250000000002,15.5,False,0
2.0855443477630615,2.3359930632499997,-10.225727381099997,0.9505487778499999,10.342500000000001,-14.595,-2.5812500000000003,2.57455747647,-9.705647388989998,1.9229619722074998,8.537375,-7.199062500000001,-10.5581875,15.5,False,0
2.0957212448120117,2.38504592655,-10.324431313349999,1.5427723713499997,6.816250000000001,-12.425,-1.6362500000000002,2.5884956681149998,-9.773154896592498,1.9008881837225,8.569750000000003,-7.269062500000001,-9.320937500000001,15.5,False,0
2.1058831214904785,2.10987132755,-10.02532848835,1.6366906583999998,4.313750000000001,-8.916250000000002,-0.37625000000000003,2.603690091625,-9.832407166224998,1.88985128948,8.42975,-7.1736875000000015,-7.9900625000000005,15.5,False,0
2.1160011291503906,1.9692929997999997,-10.231111231949999,1.7060825138,2.1525000000000003,-6.711250000000001,0.5425000000000001,2.5825734321799994,-9.885408186814999,1.88255318055,8.347500000000002,-7.029312499999999,-6.564250000000001,16.5,False,0
2.1261630058288574,2.1068802992999998,-9.814760099549998,1.7910277161,-3.43,-4.340000000000001,2.3800000000000003,2.6120350604424996,-9.8650991049975,1.8609878668674997,8.2298125,-7.1172499999999985,-5.5698125,16.5,False,0
2.136254072189331,2.1864416507499995,-9.43669412875,1.9621145319999997,-7.5075,-1.93375,2.10875,2.6421846252025003,-9.823523812322499,1.8160925328349997,8.0731875,-7.237124999999997,-4.715812500000001,16.5,False,0
2.1465108394622803,2.3868405435,-9.008378883349998,2.0949161863,-8.391250000000001,0.22750000000000004,0.45500000000000007,2.6741886274774997,-9.741240625164998,1.7802301041174995,7.8920625000000015,-7.690375,-4.152312500000002,16.5,False,0
2.156795024871826,2.3174486881,-8.83489924485,1.9884355805999996,-6.4225,0.5075000000000001,-0.09625,2.681337184995,-9.675378183099998,1.7577076613949998,7.466812500000001,-7.8050000000000015,-4.003125000000001,16.5,False,0
2.1669399738311768,2.6033909887999998,-8.636893174699999,1.93160604385,-3.4650000000000003,0.44625000000000004,-3.77125,2.681337184995,-9.613493808607497,1.7345571027399997,6.881875000000001,-7.8824375,-3.9589375,16.5,False,0
2.177142858505249,2.74755855045,-8.56211746845,1.6277175736499998,1.77625,-4.03375,-4.6725,2.6846572263525,-9.556574541009999,1.7254643768600002,6.2269375,-7.7909999999999995,-4.048625,16.5,False,0
2.1873557567596436,2.7367908487499997,-9.464211588649999,1.29032958705,12.39,-18.8825,-1.2775,2.6333610918650003,-9.520054086077497,1.6614862825925,6.1731250000000015,-7.751624999999999,-3.8972500000000005,16.5,False,0
2.197553873062134,2.3437697366999997,-9.28474989365,1.4219348300499999,13.23,-10.325000000000001,0.6737500000000001,2.6087449293675,-9.519186687884998,1.6122838678799998,6.456625000000001,-8.0583125,-3.5048125000000008,16.5,False,0
2.207847833633423,2.0793628394,-9.427721044,1.4877374515499997,11.13,-6.072500000000001,1.00625,2.5709383322874997,-9.5129952594075,1.5832409835725,6.716500000000002,-7.889,-3.0865625,15.5,False,0
2.2178776264190674,2.1044874766999997,-9.535398060999999,1.3651052932999999,6.755000000000001,1.3037500000000002,1.6625,2.5178176705674997,-9.508658268445,1.5596118603974998,6.758937500000002,-7.4528125,-2.5943750000000003,16.5,False,0
2.2279465198516846,2.3162522768,-9.19860828005,1.4464612617,-0.8487500000000001,9.54625,0.9187500000000001,2.462752840485,-9.5056373299125,1.5438192312374999,6.412000000000002,-6.6933125,-2.100875,16.5,False,0
2.2379965782165527,2.18763806205,-8.87438081775,1.6755740256499998,-6.991250000000001,14.560000000000002,-1.44375,2.3896221997725,-9.5047400214375,1.5375978924775,5.624937500000001,-5.609187500000003,-1.6690624999999994,16.5,False,0
2.2479915618896484,2.33718947455,-8.641080614249999,1.7300107398,-8.190000000000001,13.510000000000002,-3.6050000000000004,2.3571994535425,-9.471569518145,1.5462120538375,4.492249999999999,-4.542125,-1.3628124999999998,16.5,False,0
2.2580785751342773,2.4227328824999996,-8.57049234755,1.7814564256999998,-3.6137500000000005,10.027500000000002,-6.816250000000001,2.3492433183975,-9.4126163513375,1.5566806527125001,3.2773124999999994,-3.564312500000001,-1.2355,16.5,False,0
2.2681543827056885,2.31086842595,-8.841479506999999,1.9752750562999999,3.7887500000000003,5.626250000000001,-7.428750000000001,2.3358734221199997,-9.352975248032498,1.571904986505,2.31175,-2.6770625000000012,-1.2381250000000001,16.5,False,0
2.2782344818115234,2.09072874675,-9.28474989365,2.1864416507499995,11.725000000000001,3.33375,-6.300000000000001,2.3152054169125,-9.304341128687499,1.6035500653900001,1.88125,-1.9053125000000009,-1.2862500000000001,16.5,False,0
2.2883193492889404,1.9465611851,-9.771091087099999,2.11106773885,15.776250000000001,2.56375,-2.10875,2.26552443768,-9.278289272629998,1.64590302541,1.8410000000000004,-1.0613750000000008,-1.4266875000000003,16.5,False,0
2.2984182834625244,1.8771693296999998,-9.850652438549998,1.7874384822,18.62,2.3712500000000003,2.6425,2.2291535341599995,-9.269346098162497,1.6773387323175002,2.2500625000000003,-0.22181250000000033,-1.3230000000000002,16.5,False,0
2.308532238006592,1.9190437251999999,-9.6849494735,1.5481562222,19.34625,3.08,4.82125,2.2035204220574998,-9.257292254314997,1.6808083250874997,2.9461250000000003,0.44275000000000075,-1.043,15.5,False,0
2.3186452388763428,1.7742779578999996,-9.478568524249999,0.8153543009499999,22.33875,0.6212500000000001,3.9112500000000003,2.2208683859074996,-9.21655444955,1.6635500920850004,3.7660000000000005,1.0101875000000002,-0.805875,16.5,False,0
2.32895827293396,2.28095814345,-9.38644485415,0.7357929495,18.445,-0.7875000000000001,3.2462500000000003,2.2177577165274993,-9.1934338011775,1.6185052066400005,4.766125000000001,1.2215000000000003,-0.672,16.5,False,0
2.3392350673675537,2.05363999645,-9.10169896475,0.6352944002999998,19.0575,0.45500000000000007,-1.3650000000000002,2.2143778546049995,-9.1711805509975,1.5661323019825002,5.981500000000001,1.4315000000000002,-0.7174999999999998,15.5,False,0
2.3494930267333984,2.0811574563499997,-9.3296153174,0.62871413815,17.1325,-6.43125,-0.9625000000000001,2.2037297940349996,-9.1803330974425,1.49575340726,7.2625,1.3610625,-0.8741249999999999,15.5,False,0
2.362262010574341,2.03090818175,-9.615557618099999,0.9032905314999999,14.665000000000001,-12.005,-1.8462500000000002,2.1835403533475,-9.212546471695001,1.428096348245,8.413125,0.8365,-1.0132499999999998,16.5,False,0
2.3723700046539307,2.0985054202,-9.64845892885,0.8877371846000001,16.51125,-21.586250000000003,0.41125000000000006,2.1588344600025,-9.265098838047502,1.37671048291,9.40625,-0.045500000000000006,-0.9502500000000002,15.5,False,0
2.3825490474700928,1.9824535240999999,-9.792626490499998,1.9028921726499999,13.055000000000001,-15.478750000000002,1.7500000000000002,2.1270099194225,-9.33523845051,1.347338585495,10.2668125,-1.0749375,-0.6256249999999999,15.5,False,0
2.3929100036621094,1.6677973521999998,-9.738787982,2.3868405435,9.870000000000001,-3.2462500000000003,0.11375000000000002,2.137568249145,-9.371908456855,1.4309378250825002,10.422125000000001,-1.0731875000000002,-0.4956875,16.5,False,0
2.403113842010498,1.84785725285,-9.807581631749999,2.4574288101999997,2.8437500000000004,6.62375,0.8575,2.1009879736475,-9.383902480137499,1.4863017579899998,10.096625,-0.25374999999999986,-0.4961249999999998,16.5,False,0
2.413334846496582,1.8544375149999999,-9.426524632699998,2.31804689375,-0.6300000000000001,11.78625,1.1987500000000002,2.0884854755625,-9.399425916754998,1.5371791485225,9.480187500000001,0.5932500000000005,-0.4532499999999999,16.5,False,0
2.4235708713531494,2.2199411671499996,-9.194420840499998,1.89810652745,1.05,9.520000000000001,-1.9250000000000003,2.087797539065,-9.39075193483,1.5687943171249996,8.98975,1.3133750000000008,-0.5210625000000001,16.5,False,0
2.4336888790130615,2.1667008643,-9.67717280005,1.37527478935,1.9512500000000002,3.5875000000000004,-6.44,2.0912970421175006,-9.37376289437,1.5914364009774995,8.905750000000001,1.493625,-0.8019374999999999,16.5,False,0
2.4443557262420654,2.30967201465,-9.530014210149998,0.9667003303999999,1.2862500000000001,-7.822500000000001,-8.16375,2.0868104997425005,-9.383513646465,1.5658930197224996,9.200625,0.8242500000000001,-1.2215,16.5,False,0
2.4546217918395996,2.3138594542,-9.8093762487,0.95413801175,3.8062500000000004,-18.69,-7.437500000000001,2.0914166832475005,-9.4269134663725,1.5272489347324996,9.6928125,-0.5044375000000001,-1.4840000000000004,16.5,False,0
2.4649417400360107,2.10867491625,-9.93320481825,0.51744788725,9.7475,-31.692500000000003,-7.691250000000001,2.0854944473124997,-9.489994252165,1.4824134212649995,10.344687500000001,-2.317875000000001,-1.5929375000000003,16.5,False,0
2.475229501724243,3.4103704106499997,-10.8167545633,2.9551359109999997,17.3425,-6.8425,-6.361250000000001,1.9436000671324998,-9.6030850302975,1.4538790117599996,10.91825,-4.179875000000001,-1.621375,16.5,False,0
2.48541259765625,-0.31345976059999997,-11.23848954655,1.60857499285,26.0225,-9.17875,2.7300000000000004,1.9516758434074997,-9.713723165264998,1.4630016479224994,11.796312500000003,-4.905687500000001,-1.37725,16.5,False,0
2.4955437183380127,1.3842478741,-11.548958278899999,1.76650128445,27.833750000000002,0.42000000000000004,0.7525000000000001,1.9002600677900001,-9.8141918041825,1.4538491014774995,12.535687500000002,-5.190500000000001,-0.9961874999999999,16.5,False,0
2.5056934356689453,1.24965160285,-10.2664053653,1.1898310378499999,24.92875,7.017500000000001,0.28875,1.8607485846074998,-9.889864818907498,1.4219946506149994,12.962250000000001,-5.158125,-1.0189375,16.5,False,0
2.51582932472229,1.4452648504,-11.388040959049999,0.6161518195,8.461250000000001,8.172500000000001,-5.1450000000000005,1.8447166731874998,-9.999545824835,1.3881661211074996,12.907125000000002,-4.8566875000000005,-1.27925,16.5,False,0
2.525925397872925,1.2981062605,-10.72163986495,0.9134600275499999,-3.31625,2.1525000000000003,-8.697500000000002,1.8080765771249996,-10.0707023869025,1.3586147619974998,12.096,-4.697000000000001,-1.8388125000000002,15.5,False,0
2.5359504222869873,1.30588293395,-9.89731247925,1.3770694062999997,-5.661250000000001,-6.65875,-17.01,1.7632410636574996,-10.1168539528,1.3699806693474996,10.786125000000002,-4.721500000000001,-2.632437500000001,15.5,False,0
2.5459532737731934,1.06181502875,-9.67477997745,1.2658031554,-1.00625,-12.600000000000001,-23.301250000000003,1.7171792286075003,-10.142367423772502,1.3973784881174998,9.7295625,-5.2508750000000015,-3.681562500000001,15.5,False,0
2.5560123920440674,1.8281164663999998,-9.037690960199999,1.4608181972999998,6.6675,-10.395000000000001,-36.81125,1.5920944271925,-10.114640591895,1.427617783725,8.83925,-5.737375000000002,-5.162937500000001,16.5,False,0
2.5660042762756348,1.4793625724500001,-9.124430779449998,1.44705946735,11.830000000000002,-3.0625000000000004,-41.685,1.5797115702374998,-10.0911610201325,1.4598909785424998,8.584624999999999,-5.6406875,-7.091000000000001,16.5,False,0
2.5760750770568848,1.3914263418999997,-9.4253282214,1.51405850015,12.075000000000001,8.365,-37.47625,1.5546168432199998,-10.067382345545,1.4933306743775001,8.497125,-4.688250000000002,-9.046625000000002,15.5,False,0
2.586158275604248,1.3860424910499998,-9.681360239599998,1.2251251712,6.737500000000001,19.433750000000003,-28.8575,1.5279368712299999,-10.045129095365,1.496411433475,8.260000000000002,-2.9176875000000004,-10.8985625,15.5,False,0
2.5962162017822266,1.14436740845,-10.004391290600001,0.8195417404999998,-0.31500000000000006,25.226250000000004,-20.641250000000003,1.4836098325649996,-10.05487984746,1.4350355337850003,7.964687500000001,-1.2836249999999998,-12.1664375,15.5,False,0
2.6063292026519775,1.5768700934,-9.5856473356,0.5551348432,-3.6400000000000006,24.281250000000004,-14.297500000000001,1.4629119170749996,-10.057990516840002,1.347817150015,7.498750000000001,0.018812500000000475,-13.062000000000003,16.5,False,0
2.6165032386779785,1.5457633995999998,-9.29910682925,0.7322037156000001,-2.42375,16.2575,-14.21,1.4371292535599998,-10.052068280905,1.25288191336,7.263812500000002,0.61425,-13.908562500000002,16.5,False,0
2.6267101764678955,1.6175480775999997,-9.2685983411,0.9463613382999998,4.751250000000001,7.74375,-16.5725,1.4164014277874997,-10.046325506665,1.1912368211274997,7.293125000000001,0.6768124999999998,-14.653625000000002,16.5,False,0
2.636934995651245,1.7276179172000001,-9.1609213241,1.4488540842999997,8.365,2.42375,-21.148750000000003,1.3918749961374997,-10.0546704754825,1.1668898511725,7.5328750000000015,0.5792499999999992,-15.3890625,16.5,False,0
2.647214889526367,1.6893327556,-9.236893441649999,1.52482620185,8.793750000000001,-3.54375,-24.89375,1.3684851552224997,-10.0540124492675,1.189173011635,7.931000000000002,0.5739999999999994,-16.105687500000002,16.5,False,0
2.657489776611328,1.61096781545,-9.427721044,1.3435698898999997,6.43125,-5.626250000000001,-27.676250000000003,1.3336994966749995,-10.040732283837498,1.2131311479174998,8.257812500000002,0.8999374999999986,-17.037125000000003,16.5,False,0
2.667649984359741,1.4620146085999999,-9.47378287905,1.0157531937,5.29375,-2.3625000000000003,-30.1,1.2963116435499997,-10.019466072979998,1.2333205886049998,8.232000000000001,1.890875,-18.105500000000003,16.5,False,0
2.6778905391693115,1.5110674718999997,-9.51685368585,0.6376872229,5.52125,1.7237500000000001,-31.036250000000003,1.3919049064199998,-9.9446006358825,1.21184500577,8.013250000000001,3.2934999999999994,-19.260062499999997,16.5,False,0
2.6880178451538086,1.4105689226999998,-9.43908695135,0.12263215824999998,2.07375,7.5600000000000005,-29.785000000000004,1.3434801590524998,-9.858728214824996,1.1207083749925,6.992999999999999,4.0175624999999995,-20.674500000000002,15.5,False,0
2.6982388496398926,1.4153545678999997,-9.2530449942,0.028713871199999998,-4.1475,13.02875,-31.430000000000003,1.3659427812099998,-9.752875725057498,1.0206285697475,5.572437500000001,4.624375000000001,-22.332625,15.5,False,0
2.7084286212921143,1.33579321645,-9.44147977395,0.14955141249999998,-12.10125,17.473750000000003,-32.471250000000005,1.3823635263025,-9.647860723199999,0.9527023181900001,3.9589374999999998,5.219374999999999,-23.896250000000002,15.5,False,0
2.7315595149993896,1.11206430335,-10.04566748045,1.0295119236499999,-21.621250000000003,19.06625,-26.635,1.3647762801924999,-9.522416998394998,0.9244071909450001,2.2850625000000004,5.7395625,-25.486124999999998,15.5,False,0
2.7537975311279297,0.37986058775,-10.18445119125,1.2185449090499998,-14.035000000000002,17.473750000000003,-15.793750000000001,1.343390428205,-9.489126853972499,0.9519246508450001,1.0219999999999998,6.2969375,-26.2758125,16.5,False,0
2.77213454246521,1.6516457996499998,-10.3034941156,1.1072786581499998,-9.590000000000002,24.815,-16.44125,1.3782359073175,-9.4786582550975,0.9556036155925,0.6606249999999995,7.2305625000000004,-26.424562499999997,16.5,False,0
2.7922821044921875,1.0677970852499998,-11.61775192865,1.0420742422999998,-13.273750000000001,28.988750000000003,-11.305000000000001,1.3797613317250002,-9.524690179865,0.9409176668849998,0.3167499999999994,9.079437500000001,-26.301624999999994,16.5,False,0
2.8111631870269775,0.7603193811499999,-11.974282496049998,1.43030970915,-23.458750000000002,22.583750000000002,2.0387500000000003,1.444726465315,-9.689316374745,0.9367003170524996,-0.712687500000001,10.973375,-24.8241875,16.5,False,0
2.8284122943878174,0.97328059255,-11.432906382799999,1.6701901747999999,-25.94375,12.722500000000002,0.9625000000000001,1.3949557552349996,-9.8178408586475,0.9550353202249997,-2.543625,12.2294375,-22.617874999999998,15.5,False,0
2.8519530296325684,1.4536397294999999,-10.72881833275,1.6965112234,-21.7175,-2.3975000000000004,-4.0512500000000005,1.38113720472,-9.924411195194997,0.9737292467875001,-4.487,12.589500000000001,-20.677124999999997,16.5,False,0
2.8620359897613525,1.22452696555,-10.95733289105,1.5349956979,-16.957500000000003,-10.36875,-3.10625,1.3677972187249998,-9.991589689689999,0.9877870795625,-6.006875000000001,11.638375,-19.109125,15.5,False,0
2.8720788955688477,1.0540383553,-10.998010875249998,1.29990087745,-13.588750000000001,-18.445,4.760000000000001,1.3701900413249999,-10.052666486554996,1.0093523932450001,-7.04375,9.8,-17.906437500000003,16.5,False,0
2.8827569484710693,0.96610212475,-10.8861464187,0.8153543009499999,-12.048750000000002,-26.048750000000002,10.99,1.353679565385,-10.120263725004998,1.0203294669225,-7.480375,7.410375,-16.6420625,16.5,False,0
2.892908811569214,0.7716852885,-10.374082382300001,0.8751748659499998,-14.857500000000002,-30.082500000000003,17.63125,1.3454841479800002,-10.1889676439075,1.0262517028574998,-7.9590000000000005,4.9249375,-15.106875000000002,15.5,False,0
2.903059720993042,1.495514125,-9.878169898449999,1.0283155123499998,-17.1675,-27.956250000000004,12.582500000000001,1.303789214175,-10.233803157374998,1.0278668581124997,-8.774937500000002,2.7536250000000004,-13.530125000000002,16.5,False,0
2.9131617546081543,1.5547364843499998,-10.21675429635,0.59162538785,-19.433750000000003,-25.856250000000003,7.656250000000001,1.2816256948424996,-10.271968677844999,1.0016654506424996,-10.0524375,1.1226250000000002,-12.143250000000002,16.5,False,0
2.9232876300811768,1.03310115755,-9.4085784632,2.189432679,-15.583750000000002,-3.7975000000000003,-11.76875,1.2206087185424999,-10.292576862487499,0.9736395159399995,-11.509750000000002,-0.050750000000000205,-10.728375,16.5,False,0
2.9334936141967773,-1.24606236895,-10.78863889775,2.3599212892499994,-7.402500000000001,23.21375,-0.07875000000000001,1.1429018046074995,-10.294221928025,1.0568499218549998,-12.301187500000003,1.0276874999999994,-10.146937500000002,16.5,False,0
2.943636655807495,0.058624153699999994,-10.998609080900001,1.9525432415999997,-1.2512500000000002,20.48375,13.95625,1.0474580931499997,-10.354162134155,1.1075478506924998,-12.827062500000002,2.3340624999999995,-8.392125000000002,15.5,False,0
2.953753709793091,0.29730820804999997,-10.91545849555,1.2442677519999998,-5.3812500000000005,25.2875,23.003750000000004,0.9768399161674995,-10.43713325781,1.1301600242625,-13.224750000000004,3.516187500000001,-5.915000000000001,16.5,False,0
2.9638636112213135,0.17647066675,-10.525428411750001,1.3220344865,-13.2825,28.411250000000003,31.298750000000002,0.9171988128624996,-10.4967444508325,1.1723634328699999,-13.9103125,4.6160625,-3.0467500000000007,16.5,False,0
2.974008321762085,0.14536397295,-9.990034354999999,1.37048914415,-20.7375,31.342500000000005,35.07,0.8548657841324998,-10.5390375902875,1.23876426002,-14.716625000000002,5.634125000000001,0.13431250000000095,16.5,False,0
2.984123468399048,0.0,-9.64965534015,1.7090735420499998,-25.43625,36.365,39.55875,0.7899604711075001,-10.569097424199999,1.3141680822025,-15.544375000000002,6.513937500000002,3.5371875000000004,16.5,False,0
2.994251251220703,-0.1459621786,-9.2350988247,1.9465611851,-25.777500000000003,44.073750000000004,46.322500000000005,0.7260122871225001,-10.5709219514325,1.390529033425,-16.067625,7.5543125,7.2765,16.5,False,0
3.00451922416687,-0.17048861024999998,-9.00000400425,2.08474669025,-23.038750000000004,49.087500000000006,53.252500000000005,0.671844765515,-10.51501963344,1.4213665346824997,-16.156437500000003,9.008125000000001,10.867062500000001,16.5,False,0
3.014735460281372,-0.39661034595,-8.6895352719,2.1559331626,-17.56125,55.378750000000004,60.13875000000001,0.5635396325825,-10.444162174197498,1.4716158092824996,-16.5375,10.803187500000002,14.42175,16.5,False,0
3.0249850749969482,-0.0167497582,-8.2468630909,1.9142580799999998,-8.74125,57.35625,68.06625000000001,0.48338007548250006,-10.340194032227497,1.5223735586849998,-16.775062499999997,12.233812500000003,18.479562500000004,16.5,False,0
3.035194158554077,0.5790630692,-7.388437983149999,1.1294122671999998,-6.3875,56.595000000000006,70.20125,0.44676988970250003,-10.129356450885,1.5493227232174998,-16.074625,13.839000000000002,22.085,16.5,False,0
3.0454142093658447,0.9726823868999999,-7.2000032034000006,0.72323063085,-11.270000000000001,51.073750000000004,64.47875,0.4486841477825,-9.902397227275,1.5098112400349997,-15.173812499999997,15.693999999999999,25.309375000000006,16.5,False,0
3.0556700229644775,0.69212393705,-7.621139980999999,1.1126625089999997,-12.4075,45.727500000000006,63.07000000000001,0.4291527333099999,-9.699784973620002,1.4552847950374999,-14.540312499999995,17.6465625,28.538562500000005,16.5,False,0
3.0657999515533447,0.20219350969999997,-7.94835847155,1.7425730584499999,-7.393750000000001,44.581250000000004,66.73625000000001,0.38997026323500006,-9.5409314632625,1.4440983493824997,-14.119437499999998,20.148625000000003,31.926125000000006,16.5,False,0
3.076004981994629,0.4079762533,-7.957331556299999,1.8137595307999999,4.69,49.9275,73.22875,0.347497662085,-9.386863598104998,1.4693725380949996,-13.46975,23.14375,35.54031250000001,16.5,False,0
3.086066961288452,1.5756736821,-7.756334457899999,1.0624132344,9.100000000000001,54.643750000000004,76.67625000000001,0.33607193417,-9.226185560515,1.5063715575474999,-12.489749999999999,26.8463125,38.92568750000001,16.5,False,0
3.096165895462036,2.3078773977,-7.75573625225,0.14177473905,3.08875,55.685,68.01375,0.3684647701175,-9.068827564282499,1.4978172167525,-11.435812499999999,31.136000000000003,41.89412500000002,16.5,False,0
3.106329917907715,2.7403800826499998,-8.5483587385,-0.13818550515,-5.5125,46.751250000000006,55.816250000000004,0.45131625264249997,-8.970003990902498,1.4435898745799998,-10.6911875,35.280437500000005,44.16343750000001,16.5,False,0
3.1165647506713867,2.7732813933999996,-9.32782070045,0.21236300575,-2.30125,35.20125,51.09125,0.5269892673675,-8.909495489404998,1.4078171767099998,-10.0445625,38.739312500000004,46.383750000000006,16.5,False,0
3.1268298625946045,2.7972096194,-9.870393224999999,0.69930240485,2.7475,26.88875,50.916250000000005,0.63637117047,-8.901030879457497,1.382872001105,-9.1205625,41.49818750000001,48.62812500000001,15.5,False,0
3.1370437145233154,2.68055951765,-10.292128208249999,1.2000005339,9.852500000000001,24.955000000000002,53.768750000000004,0.7666902713224999,-8.9353678837675,1.2739985728049996,-8.434999999999999,41.94487500000001,51.94393750000002,16.5,False,0
3.147310733795166,3.0921250048499993,-10.308877966449998,0.87637127725,13.658750000000001,27.606250000000003,56.087500000000006,0.9207880467624999,-8.924330989525,1.2171391257724997,-7.5586875,42.161,54.37468750000001,16.5,False,0
3.157571792602539,4.231108562449999,-10.157531936999998,0.11724830739999999,11.523750000000001,28.918750000000003,50.59250000000001,1.0977372780325,-8.8821275809175,1.1796914520825,-6.7956875,42.464625000000005,56.19293750000001,15.5,False,0
3.167752742767334,5.063810827249999,-10.21675429635,-0.59521462175,10.430000000000001,22.566250000000004,38.963750000000005,1.3144073644624998,-8.8507217842925,1.10739829928,-5.83625,42.532875000000004,57.12568750000001,15.5,False,0
3.1779277324676514,5.3994041969,-10.4039926648,-0.8171489178999999,15.365000000000002,10.6225,30.38875,1.5703795620974996,-8.8541315564975,0.9998708336924998,-4.4410625,41.892375,57.215375000000016,16.5,False,0
3.1879377365112305,5.5417771416,-10.446465265949998,-0.7686942602500001,24.92,-4.9,28.770000000000003,1.8356837678725,-8.882965068827499,0.8856434648249998,-2.3248750000000014,40.390437500000004,56.837812500000005,16.5,False,0
3.1980066299438477,5.89531668075,-10.253843046649997,-0.7393821834,29.6275,-22.977500000000003,30.922500000000003,2.1230617621325,-8.923732783875,0.75098737301,0.35918749999999877,37.79081250000001,56.21962500000001,16.5,False,0
3.208080530166626,6.357131442549998,-9.807581631749999,-0.34755748264999997,25.891250000000003,-36.548750000000005,33.197500000000005,2.4350260086075,-8.974370892147498,0.623629390125,3.0086875000000006,33.974500000000006,55.34462499999999,15.5,False,0
3.2181315422058105,7.1138615898,-9.06461021445,0.23808584869999996,10.1675,-42.41125,36.198750000000004,2.7861727251575,-9.008169511372497,0.5103591502975001,5.120937500000001,29.308562500000004,54.243437500000006,15.5,False,0
3.2308263778686523,9.119645134249998,-7.950153088499999,1.10488583555,-0.39375000000000004,-39.8825,34.160000000000004,3.2080273495375,-9.000422748204997,0.44554356812000007,6.093062500000001,24.424312500000006,52.84212499999999,16.5,False,0
3.2409985065460205,11.212766703599998,-7.130013142349999,1.6420745092499998,1.4000000000000001,-36.3825,26.810000000000002,3.698406431125,-8.987561326729999,0.43139600449750015,6.332375000000002,19.6179375,50.78456249999999,15.5,False,0
3.25176739692688,13.564911319399998,-6.1686966628,1.7455640866999997,16.642500000000002,-38.63125,13.851250000000002,4.268974980095,-8.963932203555,0.47560340203250007,7.0568750000000025,15.056125,48.44831249999999,15.5,False,0
3.2619004249572754,15.53240970225,-5.237290465749999,1.84067878505,45.24625,-39.64625,-6.6850000000000005,4.946921443239999,-8.89029308804,0.5227420072525,9.083375000000002,10.7235625,45.47243749999999,15.5,False,0
3.2719621658325195,16.64148297735,-5.1433721787,1.1880364209,71.435,-45.4825,-29.181250000000002,5.7306605755875,-8.758089639389997,0.5380859821749999,12.522562500000003,6.415062500000002,41.487249999999996,16.5,False,0
3.2820072174072266,17.023138182049998,-5.67756982415,0.24705893344999996,89.39000000000001,-59.071250000000006,-40.057500000000005,6.564439610557498,-8.624390676614999,0.48182474079249993,16.709875000000004,1.5535625000000013,36.119125,16.5,False,0
3.292133331298828,17.95633899605,-6.36191708775,-0.42771703974999997,82.48625000000001,-79.4675,-42.612500000000004,7.380691219982499,-8.523892127415,0.3898207118225,20.860000000000007,-4.385937499999997,30.260124999999995,16.5,False,0
3.3021812438964844,19.5900386262,-6.87039189025,0.2009970984,50.925000000000004,-95.15625000000001,-41.64125000000001,8.221558991904999,-8.4630845230925,0.34857443225499996,23.986375000000002,-11.612125000000002,24.43699999999999,16.5,False,0
3.312346935272217,19.5996099166,-6.4785671895000005,1.7814564256999998,8.82,-101.75375000000001,-42.6475,9.0760060320825,-8.403174227245,0.39433716447999995,25.7201875,-19.2460625,19.2303125,16.5,False,0
3.3225622177124023,19.5996099166,-5.974279826549999,3.34217496655,-12.8275,-94.37750000000001,-47.02250000000001,9.918907703215002,-8.265497196897499,0.5353043259025,25.820375000000006,-26.355,14.227500000000003,16.5,False,0
3.3327901363372803,19.5996099166,-6.18245539275,2.66979181595,-17.82375,-82.62625000000001,-50.050000000000004,10.76554815966,-8.09384208563,0.6838088785149999,25.154937500000006,-32.3575,9.290312500000002,16.5,False,0
3.3430538177490234,19.5996099166,-6.107679686499999,0.6047859121499999,-34.790000000000006,-88.66375000000001,-54.346250000000005,11.60734315034,-7.902206905652501,0.7328019212499999,23.785562500000005,-37.743125000000006,4.1055,16.5,False,0
3.353315830230713,19.5996099166,-5.7152567801,-1.83589313985,-83.93,-101.77125000000001,-64.155,12.4501850009075,-7.6788369159425,0.6575177401974999,20.422062500000003,-43.716750000000005,-1.4875000000000003,16.5,False,0
3.3635916709899902,19.5996099166,-5.971288798299999,-2.2612173569999996,-160.66750000000002,-116.33125000000001,-84.00000000000001,13.251631020495001,-7.446404110634999,0.5158626422774999,14.160999999999998,-50.547000000000004,-7.8203125,16.5,False,0
3.37599778175354,19.5996099166,-5.443671415,1.3076775508999998,-257.48625000000004,-117.69625,-109.305,14.0043831001725,-7.237391056525,0.4508975086875,3.9156250000000012,-57.94250000000001,-14.9550625,15.5,True,1
3.386234760284424,19.5996099166,-2.3060827807499997,9.517451891499999,-281.0325,-88.84750000000001,-140.58625,14.7189995696625,-6.958238389952501,0.6760920256299999,-10.516187500000003,-64.0723125,-22.596875000000004,16.5,True,1
3.396516799926758,19.5996099166,3.9158541848999997,14.318052232749997,-280.84875000000005,-54.276250000000005,-152.04875,15.428232188302498,-6.3488462942975,1.24055887697,-25.721937500000003,-68.18656250000001,-31.313625000000002,16.5,True,1
3.406785726547241,19.5996099166,9.189036989649999,17.5800676422,-248.76250000000002,20.475,-158.62,16.12427437236,-5.5525149330175,2.0868104997425,-40.7334375,-69.07512500000001,-40.6756875,16.5,True,1
3.416959524154663,14.856437317749998,14.870794253349997,14.5615219323,-227.7975,102.06000000000002,-171.37750000000003,16.7301669649625,-4.465425715555,3.0091239709125004,-53.53687500000001,-64.71062500000002,-50.4091875,16.5,True,1
3.4272096157073975,8.6356967634,19.5996099166,3.3661031925500002,-265.78125,209.68500000000003,-225.27750000000003,16.97934952847,-3.0594928866424995,3.5779577234974993,-66.31625000000001,-54.798625000000015,-61.56500000000001,16.5,True,1
3.437370538711548,1.4991033588999996,19.5996099166,-12.85603762415,-286.72,191.17875,-286.72,16.88758478176,-1.6602001404449993,3.2794531041474997,-80.57350000000001,-41.32800000000002,-77.00612500000001,16.5,True,1
3.4475746154785156,-14.585450158299999,19.5996099166,-19.3064891481,-257.58250000000004,-22.172500000000003,-286.72,16.2371258682325,-0.29943183810750007,2.315354968324999,-94.78656250000002,-33.288062500000024,-92.80556250000002,16.5,True,1
3.4578354358673096,-19.5996099166,19.5996099166,-12.604791251149999,-237.09000000000003,-130.62875000000003,-286.72,14.642429246462498,1.0139585767499997,1.3396516428925003,-106.14318750000002,-36.456437500000014,-108.20993750000002,16.5,True,1
3.4679625034332275,-19.5996099166,15.853047930649998,-6.775875397549999,-286.72,-44.283750000000005,-286.72,12.941072557297497,2.1662222997800002,0.7805088218375003,-121.74531250000003,-39.55612500000002,-122.74325000000003,16.5,True,1
3.4780983924865723,-19.5996099166,17.941982060449998,-2.7924239741999997,-286.72,-25.36625,-286.72,11.155069768657498,3.3132517233725003,0.39616169171249993,-138.96181250000004,-37.89187500000002,-136.29000000000005,16.5,True,1
3.488286256790161,-19.5996099166,1.7730815465999998,18.0682034526,-286.72,-155.70625,-286.72,9.3271327639525,4.175954001519999,0.5383551747175004,-157.38187500000004,-39.18337500000002,-148.83662500000005,16.5,True,1
3.4983651638031006,-19.5996099166,-11.706286364850001,19.5996099166,-286.72,-169.03250000000003,-286.72,7.49216684286,4.23003179228,1.5317055668250004,-176.25387500000005,-45.033625000000015,-161.07700000000006,16.5,True,1
3.508406400680542,-19.5996099166,-19.5996099166,19.5996099166,-286.72,-28.20125,-256.06,5.576383338452499,3.5825639070024997,2.5265215627749997,-194.09425000000005,-46.728937500000015,-173.31081250000005,16.5,True,1
3.5183591842651367,-19.5996099166,-19.5996099166,19.5996099166,78.435,75.92375000000001,-50.995000000000005,3.6164223467924983,2.9480471740475,3.469652590565,-203.11856250000008,-40.434187500000014,-179.93018750000007,16.5,True,1
3.5283591747283936,-19.5996099166,-15.856038958899997,9.4348995118,285.64375,123.20875000000001,74.62875000000001,1.6564613551324983,2.274078778475,4.3108194653125,-192.1854375000001,-30.124500000000005,-176.64281250000008,16.5,True,1
3.538386106491089,-7.8053873212,-9.579665279099999,-9.940383286049999,140.10500000000002,124.69625,94.22000000000001,-0.05240281494000172,1.9101005507324995,4.109523264087501,-178.25631250000006,-19.135812500000004,-169.5745625000001,16.5,True,1
3.5484201908111572,-3.4007991202499994,-3.05144702065,-9.6538427797,-161.48125000000002,78.4525,78.76750000000001,-1.2793824236550002,1.8941284598774994,3.4059735991224995,-178.27818750000006,-9.632437500000004,-162.64281250000008,16.5,True,1
3.5584959983825684,-4.10787819855,4.05284327875,0.8949156524,-278.14500000000004,19.477500000000003,78.23375,-2.4146271959425003,2.2248763637624998,3.1662127746024997,-187.22462500000006,-2.2938125000000005,-155.94818750000007,16.5,True,1
3.5685131549835205,-5.42393062855,8.25583617565,11.99342507685,-272.44,-7.621250000000001,61.215,-3.6186057974149994,2.796581503467499,3.5637204290275006,-195.61281250000008,3.359124999999999,-148.56975000000006,16.5,True,1
3.578511953353882,-7.23051169155,8.0374911134,19.5996099166,-216.65875000000003,-1.155,29.636250000000004,-4.901098890449999,3.4667812034449996,4.431926199155,-198.61362500000007,8.8615625,-141.4065625000001,16.5,True,1
3.588495969772339,-11.659028118499997,4.9196432655999995,19.5996099166,-133.9625,33.60875,15.417500000000002,-6.33404070446,4.085086563285001,5.226462943485,-193.82737500000005,14.762125000000001,-134.58987500000006,16.5,True,1
3.5985498428344727,-13.996217593049998,0.4761716973999999,19.5996099166,-33.4425,67.97875,28.16625,-7.94907631833,4.141168342972501,5.6811291477675,-183.81168750000006,21.172375000000006,-126.34343750000005,16.5,True,1
3.608726978302002,-16.41296841905,-2.7242285300999995,19.5996099166,46.935,102.71625000000002,54.60000000000001,-9.670682268747502,3.784129300770001,5.8555060947425,-170.07462500000003,26.873875000000005,-116.42093750000004,16.5,True,1
3.619489908218384,-17.982061838999996,-4.76231517965,12.384651571949998,113.12,101.7625,82.67875000000001,-11.4401745814475,3.0218059306925,5.820092320262499,-154.86187500000003,29.422312500000004,-104.99387500000005,16.5,True,1
3.63228178024292,-19.009779145699998,-5.277370244299998,8.37308448305,145.3725,78.5575,111.84250000000002,-12.936077540120001,1.83553421646,5.785545943974999,-136.72575000000003,26.257875000000002,-90.89062500000003,15.5,True,1
3.642350673675537,-19.5996099166,-4.1503507997,6.1591253724,180.56500000000003,56.43750000000001,148.2425,-14.2320003499975,0.6038886036749995,6.411358784722499,-114.77156250000003,18.3693125,-70.89862500000002,16.5,True,1
3.6525015830993652,-18.97568142365,-1.5625131578,4.9441696972499996,213.57875,32.41875,181.895,-15.058690648014998,-0.5346762099699994,7.567480934194999,-90.726125,14.566999999999997,-48.25275000000001,16.5,True,1
3.6626787185668945,-17.694923127,1.1210373881,6.180660775799999,251.44875000000002,2.4062500000000004,202.34375000000003,-15.000664699965,-1.5351153390299992,8.721180350785,-68.30075000000002,20.6661875,-24.350812500000025,16.5,True,1
3.672886610031128,-16.76949898645,2.5112673186999994,7.4907311493,286.67625000000004,-27.615000000000002,215.00500000000002,-14.885211009515,-2.302104713177499,9.529595466195001,-40.03475000000001,25.129125000000002,0.4033749999999898,16.5,True,1
3.6830644607543945,-15.818352002949998,2.00219431055,7.0097738067,286.67625000000004,-58.32750000000001,221.33125,-14.718550915425002,-3.0657740459674994,10.2051790170225,-11.364937500000005,23.340624999999996,25.634437499999997,16.5,True,1
3.6932594776153564,-14.500504955999999,0.049651068949999995,4.811966248599999,286.67625000000004,-92.79375,233.30125,-14.504542844137498,-3.613730421367501,10.3232648123325,17.304875000000003,23.56243750000001,51.2168125,16.5,True,1
3.703399419784546,-12.787243974399999,-2.1726829208,2.1367905817999997,286.67625000000004,-119.54250000000002,258.545,-14.217763055527499,-3.4159337231949998,9.526125873425,45.974687499999995,27.495562500000013,77.62125,15.5,True,1
3.713489532470703,-10.6073825858,-2.644068973,0.7339983325499999,286.67625000000004,-129.45625,286.67625000000004,-13.83398422077,-2.563879505617499,8.617780504182502,74.6445,27.27506250000001,105.60025000000003,15.5,True,1
3.7236592769622803,-7.379464898399999,-0.7782655506499999,0.1890329854,286.67625000000004,-123.56750000000001,286.67625000000004,-13.319976016007496,-1.6807485045224992,7.656254652655001,96.299,19.547062500000017,128.65606250000002,16.5,True,1
3.7337663173675537,-3.9314075317999997,0.7824529901999999,1.3794622288999998,286.67625000000004,-113.57500000000002,286.67625000000004,-12.645349594219997,-0.7105785813524998,6.691857414007501,99.8983125,8.273125000000016,142.030875,16.5,True,1
3.743906259536743,-1.2658031554,0.5988038556499999,1.8867406200999999,286.67625000000004,-105.18375,286.67625000000004,-12.039068167944997,0.018305092890000173,6.810152581295,101.0279375,-3.7673124999999943,151.7140625,15.5,True,1
3.753993272781372,0.43010986235,-0.9858429111999999,2.667997199,286.67625000000004,-96.29375,286.67625000000004,-11.820244541174999,0.3367598706675001,7.527969451012501,116.45418749999999,-14.0791875,161.7056875,16.5,True,1
3.764071226119995,3.8327035995499994,-3.4815568829999997,3.1818558523499996,286.67625000000004,-86.03875000000001,286.67625000000004,-11.5708825159725,0.2012662909425001,7.930711404875,142.47975,-21.402937500000007,172.1776875,16.5,True,1
3.7742221355438232,5.5429735528999995,-5.216353267999999,4.3094735025999995,286.67625000000004,-66.40375,286.67625000000004,-11.1105632682975,-0.3086442051175,7.824829004825,170.807875,-25.5609375,182.7245,16.5,True,1
3.7842891216278076,4.6863430621,-5.365904680499999,5.645864924699999,248.99000000000004,-32.917500000000004,286.67625000000004,-10.55246730713,-0.9650253545799998,7.275107922757496,197.8641875,-27.55068750000001,194.7439375,16.5,True,1
3.7945590019226074,4.950151753749999,-3.3756744829499996,6.293721643649999,188.71125,13.04625,286.67625000000004,-9.870931610085,-1.58787707736,6.606852391142501,217.89293750000002,-28.962062500000002,208.1506875,16.5,True,1
3.804795980453491,7.316055099499999,0.0789631458,5.818746357549999,180.67875,47.74,286.67625000000004,-8.935188422072502,-1.8257535540825,5.934858074214999,231.0695625,-29.894375000000004,221.51062500000003,16.5,True,1
3.8149919509887695,10.2855479461,1.4338989430499998,4.8664029627500005,202.48375000000001,66.50875,278.08375,-7.764410234175,-1.6992330591074996,5.22664240518,240.35287499999998,-31.25981250000001,233.79606250000006,16.5,True,1
3.825169086456299,14.072189710599998,1.46739845945,3.1926235540500003,231.19250000000002,84.35875000000001,242.97875000000002,-6.290371692010002,-1.4323735186425,4.584468639904999,247.45218749999998,-32.900000000000006,243.62843750000002,16.5,True,1
3.835526704788208,16.785650539,-0.013758729949999998,1.1958130943499998,230.615,102.81250000000001,208.53000000000003,-4.620002055515002,-1.1311171533024997,4.1743089359825,252.8316875,-32.91881250000001,250.18918750000003,16.5,True,1
3.8455498218536377,18.21835307075,-2.6703900216,-0.8536394625499999,182.14875,108.35125000000001,175.6825,-2.7940690397375,-1.0440184106625001,3.7971701839400005,255.50656250000003,-31.135562500000002,253.43631250000004,16.5,True,1
3.865774631500244,17.65723617105,-4.7216371954500005,-1.29750805485,29.671250000000004,102.98750000000001,134.54875,-0.8953343963549998,-1.05487584321,3.4736904787025003,249.48787499999997,-27.943562500000002,252.2813125,16.5,True,1
3.8837387561798096,17.618352803799997,-3.6873396266,0.35234312785,8.478750000000002,79.6075,113.91625,0.8955437683324998,-1.2619447289575,3.1823643271525004,238.68337499999998,-24.235750000000007,249.06525000000002,16.5,False,1
3.896714687347412,18.7549435388,-3.3565319021499995,0.47138605219999996,58.0125,45.508750000000006,90.85125000000001,2.6577379721024994,-1.5095420474925,2.864627396155,225.92675,-20.276375,244.03356250000002,15.5,False,1
3.918823480606079,16.398013277799997,-4.1491543884,-0.14895320685,27.32625,-5.7925,36.566250000000004,4.350181397082499,-1.8326628293399998,2.4898216461475,215.24300000000002,-17.440937500000008,236.43943750000003,16.5,False,1
3.9415204524993896,13.168300973449998,-3.8656049103,-1.3716855554499998,-17.28125,1.7500000000000002,12.162500000000001,5.80989291393,-2.0853149856175,2.1412472138925,201.43024999999997,-13.968062500000002,226.65693750000005,16.5,False,1
3.9584033489227295,11.880364209,-4.4075792292,-1.9046867895999997,-58.511250000000004,13.571250000000001,-26.27625,7.118796786412498,-2.2532014012899997,1.8760925595299998,184.6228125,-8.151937500000004,213.83512499999998,16.5,False,1
3.9727632999420166,10.4997055688,-5.28873615165,-2.21754834455,-35.385000000000005,-11.812500000000002,-35.7175,8.279345657694998,-2.3624935735449997,1.701356689165,167.426,-1.4603749999999995,198.470125,16.5,False,1
3.990535259246826,8.5172520447,-5.061418004649999,-1.6414763035999997,-24.832500000000003,-18.235000000000003,-41.16875,9.223673096785,-2.5440190780374996,1.5751951175799999,151.6484375,4.203499999999998,182.43881250000004,16.5,False,1
4.000690937042236,7.097111831599999,-6.1686966628,-1.5212369679499997,-27.11625,-16.091250000000002,-44.61625,9.938738220512496,-2.8106094259599996,1.4720644635200002,136.13468749999998,9.311749999999996,165.9966875,16.5,False,1
4.0109851360321045,5.7726845225,-6.680162493549999,-1.2837493248999998,-31.4475,-9.54625,-46.698750000000004,10.385896943887499,-3.1844580469274995,1.3060324853625,120.29849999999999,14.146562499999998,149.31393749999998,16.5,False,1
4.021391153335571,5.132604476999999,-7.495516794499999,-1.0145567824,-22.505000000000003,-2.2662500000000003,-36.435,10.681470355552499,-3.5385359711625,1.1445468701450001,104.53887499999996,18.790625000000006,132.815375,16.5,False,1
4.0317089557647705,5.400002402549998,-7.725825969749999,-0.8500502286499999,-15.793750000000001,-1.1375000000000002,-22.015,10.8426269576625,-3.8262130682475,0.9591629392100002,89.26750000000003,23.350687500000006,117.06143749999998,16.5,False,1
4.041913986206055,6.050251944099999,-7.163512658749999,-0.8039883936,-12.888750000000002,4.4625,-10.01875,10.880583106154997,-3.9912879173650007,0.72574309458,74.18118750000001,27.318374999999996,101.86181249999998,16.5,False,1
4.052706003189087,6.12742047295,-6.8279192891,-1.3746765837,-16.625,4.66375,-12.145000000000001,10.904601063002497,-4.054159331179999,0.4123132442625,59.10406250000001,30.076812499999996,86.963625,16.5,False,1
4.06295108795166,6.184250009699999,-6.606583198599999,-1.8161523534,-21.35875,4.2,-12.740000000000002,10.987153442702496,-4.15884531993,0.02189432678999994,47.23381250000001,31.09881249999999,71.9971875,15.5,False,1
4.073354959487915,5.85942434175,-6.89910576145,-2.11346056145,-24.351250000000004,-1.21625,-11.445,10.990264112082496,-4.3964825143925,-0.3859622853799999,37.17131250000001,29.704937499999993,57.0535,16.5,False,1
4.08603572845459,5.684150086299999,-6.292525232349999,-1.7371892076,-24.2025,-9.2575,-11.06,10.862218192699997,-4.742365021222499,-0.7512565655524999,26.628437500000008,26.68968749999999,42.243249999999996,16.5,False,1
4.096184730529785,6.206981824400001,-6.309274990549999,-0.7316055099499998,-27.247500000000002,-11.523750000000001,-12.985000000000001,10.547113366562495,-5.136253531464999,-1.0301699498649999,14.400312499999998,22.326937500000007,28.56393750000001,16.5,False,1
4.106314659118652,6.380461462899999,-6.519843379349999,0.03529413334999999,-31.255000000000003,-2.9400000000000004,-18.121250000000003,10.112457141272499,-5.492903739994999,-1.1609077946724997,1.1689999999999974,17.204687500000006,16.600062499999993,16.5,False,1
4.116564512252808,6.32363192615,-7.110272355899999,0.15074782379999999,-34.34375,8.592500000000001,-20.01125,9.586305361814997,-5.664439210132499,-1.1385049930799997,-11.098062499999997,12.057937500000001,6.039687500000002,16.5,False,1
4.126814603805542,6.3003019058,-7.371090019299999,-0.33080772444999995,-36.74125,16.87875,-17.85875,8.985647068649998,-5.853621746945,-1.0753045661574998,-16.5563125,7.299249999999999,-2.0684999999999953,16.5,False,1
4.136960506439209,6.18365180405,-7.40518774135,-0.8261220026499999,-33.862500000000004,17.28125,-15.505,8.431379623642497,-5.992644740005,-1.0783554149724999,-18.981375,3.411625,-9.255312499999999,16.5,False,1
4.147292613983154,6.165705634549999,-7.453642399,-1.2418749294,-29.531250000000004,12.55625,-12.722500000000002,7.8417881350025,-6.2127245986399995,-1.15070838834,-21.9568125,0.7774375,-15.373750000000001,16.5,False,1
4.157486438751221,6.1519469046,-7.314858688199999,-1.6582260617999998,-21.28875,8.74125,-13.7025,7.2724459076149985,-6.390182304712498,-1.21998060261,-26.833187500000008,0.707875,-19.289375,16.5,False,1
4.167576313018799,6.1926248888,-7.503891673599999,-1.7108681589999999,-17.0625,4.0512500000000005,-17.78,6.884778736132499,-6.5543299350724995,-1.2624831140425,-28.27650000000001,1.197,-21.525000000000002,16.5,False,1
4.17770528793335,6.194419505749999,-7.8281191359,-1.6899309612499998,-15.557500000000001,-1.9425000000000001,-19.6,6.5788563667225,-6.712944163169999,-1.273759290545,-26.621000000000002,0.6995625,-21.709625000000003,16.5,False,1
4.187798261642456,6.063412468399999,-7.883752261349999,-1.2454641632999999,-10.71,-5.1275,-18.523750000000003,6.320820359595,-6.866294181547498,-1.249232858895,-24.447937500000002,0.10981249999999969,-20.997812500000002,16.5,False,1
4.197765111923218,5.992824201699999,-8.897710838099998,-1.3040883169999997,-4.8475,-3.7187500000000004,-14.603750000000002,6.12670262617,-6.982196526234999,-1.20370940893,-23.456999999999997,0.6129374999999998,-20.218187500000003,16.5,False,1
4.207869291305542,5.7948181315500005,-7.719245707599999,-1.0420742422999998,-0.5075000000000001,-1.2775,-13.48375,6.0160046706375,-7.081109830462499,-1.1726625356949998,-22.487937499999994,1.3741875000000001,-18.850125000000002,16.5,False,1
4.217905282974243,5.895914886399999,-7.31665330515,-1.08574325475,2.555,0.74375,-15.426250000000001,5.982265871977501,-7.1513391737725005,-1.1493026050624997,-20.884499999999996,2.0068125,-17.157437500000004,16.5,False,1
4.227963209152222,5.85942434175,-6.9906312259,-1.1078768637999998,17.211250000000003,-0.9800000000000001,-19.50375,6.00873647199,-7.1469423622449995,-1.1519945304874997,-19.079812499999996,2.3813125000000004,-15.893500000000003,15.5,False,1
4.238038063049316,5.854040490899999,-7.13599519885,-1.48055898375,30.730000000000004,-12.013750000000002,-20.562500000000004,6.044210067035,-7.104529581659998,-1.1704491747899997,-16.975875,2.1997500000000003,-15.4791875,15.5,False,1
4.248110294342041,5.875575894299999,-7.451847782049999,-1.6510475939999998,42.008750000000006,-24.552500000000002,-21.516250000000003,6.064130315180001,-7.084549512949998,-1.1944372213549996,-14.4046875,1.23375,-15.687000000000003,16.5,False,1
4.258242130279541,6.062814262749999,-7.7007013324499995,-1.7395820302,44.205000000000005,-36.30375,-23.35375,6.0764533515700005,-7.112306255109999,-1.2125329422674997,-11.417,-0.4978750000000002,-16.220750000000002,16.5,False,1
4.2683610916137695,6.35593503125,-7.8652078862,-1.1700902514,37.861250000000005,-38.001250000000006,-26.031250000000004,6.076154248745,-7.1530739701575,-1.2102298505149998,-8.448999999999998,-2.6656875,-16.8310625,16.5,False,1
4.2784810066223145,6.096313779149999,-7.9788669596999995,-1.016949605,31.150000000000002,-32.112500000000004,-26.293750000000003,6.085845180274999,-7.21806901403,-1.1650653239399997,-5.586437499999998,-4.575375,-17.546812499999998,16.5,False,1
4.288640975952148,5.71346216315,-8.33240649885,-1.11086789205,25.812500000000004,-24.885,-23.485000000000003,6.076214069309999,-7.328168763912499,-1.124447160305,-3.0073749999999997,-5.820500000000001,-18.33825,16.5,False,1
4.2988739013671875,5.600401295299999,-8.3210405915,-1.2556336593499997,22.715000000000003,-21.332500000000003,-18.655,6.058387540939999,-7.437760038992499,-1.1164012943125,-0.5066250000000011,-6.412437500000001,-18.8575625,16.5,False,1
4.309124946594238,5.751149119099999,-8.621339827799998,-1.1850453926499998,21.700000000000003,-19.41625,-19.17125,6.014897990185,-7.5230342544,-1.1699107897049998,1.899624999999999,-7.021000000000001,-18.9765625,16.5,False,1
4.3194239139556885,5.8570315191499995,-8.039883935999999,-1.8005990065,5.250000000000001,-25.882500000000004,-22.382500000000004,5.966443332534999,-7.5872516309275,-1.2740284830874997,4.191249999999999,-8.28625,-19.0386875,16.5,False,1
4.329705715179443,5.622534904349999,-8.2648092604,-1.8813567692499997,2.98375,-31.736250000000002,-25.637500000000003,5.91326285025,-7.649315467115,-1.3808979224599998,6.095249999999998,-10.39675,-19.327437500000006,16.5,False,1
4.3398988246917725,5.2689953651999994,-8.671589102399999,-1.5583257182499999,20.317500000000003,-43.53125000000001,-25.57625,5.874170111022499,-7.703453078440001,-1.4413466033924998,8.326937500000001,-13.114500000000001,-19.74393750000001,16.5,False,1
4.349979639053345,4.65344175135,-8.8163548697,-1.09172531125,33.705000000000005,-56.28000000000001,-23.24875,5.81312322444,-7.7596544992575005,-1.45734860453,11.4069375,-16.3533125,-20.255375000000004,16.5,False,1
4.360141754150391,4.34476763595,-8.3844503904,-0.7381857721,14.253750000000002,-56.58625000000001,-23.222500000000004,5.7270414314049995,-7.816484036007499,-1.436710509605,14.172812500000001,-19.8345,-20.746687500000007,16.5,False,1
4.370271682739258,3.7579278932999998,-9.437890540049999,0.16570296504999998,13.7025,-30.292500000000004,-29.242500000000003,5.625107188645001,-7.887820059769998,-1.3519746792824998,15.639312499999999,-22.3545,-21.39025,16.5,False,1
4.380411386489868,3.2338997439,-10.13300550535,0.09750752095,14.953750000000001,-25.926250000000003,-17.1325,5.4751669424725,-8.014011541637498,-1.2601202017249997,17.223937499999998,-23.6875625,-21.615562500000003,16.5,False,1
4.390618562698364,3.6999019452499997,-10.23350405455,-0.26739792554999997,9.152500000000002,-19.7575,-13.387500000000001,5.3426643909975,-8.139275804747498,-1.1800503754724998,18.6235,-24.731,-21.326812500000003,15.5,False,1
4.400721549987793,3.784248941899999,-10.609775408399999,-0.34217363179999993,-3.7100000000000004,-15.225000000000001,-14.700000000000001,5.242584585752501,-8.260053525482498,-1.1393125707074998,19.1699375,-25.339125,-21.11025,15.5,False,1
4.411009311676025,3.8733815837499996,-10.70130087285,-0.20638094924999997,-7.691250000000001,-16.3625,-13.08125,5.138048148415001,-8.421479320134997,-1.0963614050375,19.054000000000002,-25.9468125,-21.078750000000003,16.5,False,1
4.421865224838257,3.9320057374499995,-10.4183496004,0.22971096959999998,-11.943750000000001,-22.566250000000004,-13.492500000000001,5.0392843956,-8.569983872747498,-1.041416216085,18.413062500000002,-26.97625,-21.052500000000002,16.5,False,1
4.431999444961548,3.7351960785999996,-10.676176235549997,0.6161518195,19.048750000000002,-20.685000000000002,-13.562500000000002,4.9430929270799995,-8.736434594859997,-0.95557370531,18.136125,-28.1505,-20.914250000000003,16.5,False,1
4.442155361175537,3.47976226605,-10.65464083215,0.42592242280000003,36.916250000000005,-29.601250000000004,-5.188750000000001,4.8307798162925,-8.923493501614997,-0.870209759055,18.466,-29.077562500000006,-20.332812500000003,16.5,False,1
4.452354192733765,3.6149567429499996,-10.65224800955,0.27098715944999996,34.46625,-18.375,-3.6225000000000005,4.716791729685,-9.097601256047497,-0.7740482008175,18.532937499999996,-29.552250000000004,-19.498062500000003,16.5,False,1
4.46260404586792,3.5653056739999998,-10.422537039949999,-0.35473595045,18.29625,-6.501250000000001,3.6137500000000005,4.602055886015,-9.261031039627497,-0.6855137646175,17.765562499999998,-28.6811875,-18.433187500000006,16.5,False,1
4.472869157791138,4.0223347905999995,-9.490532637249999,-0.5682953674999999,-18.821250000000003,2.56375,3.3600000000000003,4.475116647085001,-9.380103874259998,-0.6290431512574999,15.89525,-26.8708125,-16.922062500000003,16.5,False,1
4.485583305358887,4.3573299546,-8.650053698999999,-0.3158525832,-65.79125,21.385,-3.2462500000000003,4.375844419467501,-9.440462824344998,-0.6036493214149999,11.7446875,-24.435250000000003,-15.626625000000008,16.5,False,1
4.495652914047241,4.622335057549999,-8.00100056875,0.4354937132,-69.685,26.320000000000004,-4.7250000000000005,4.3099221568375,-9.455597427289998,-0.5510371344975,6.71825,-21.793625,-14.593687500000007,16.5,False,1
4.505719900131226,4.9579284272,-6.7226350947,0.2009970984,-62.67625,22.093750000000004,-5.7925,4.2608094729725,-9.41372303179,-0.48143590711999995,2.1446250000000004,-19.3738125,-13.729625000000004,16.5,False,1
4.515810966491699,5.1158547188,-6.139384585949999,0.2500499617,-55.807500000000005,23.021250000000002,-16.2225,4.232005870925,-9.3371826188725,-0.4004089518274999,-1.8331249999999997,-17.28125,-13.306562500000002,16.5,False,1
4.5258629322052,4.3944187049,-5.8253266197,-0.26739792554999997,-35.673750000000005,28.20125,-23.957500000000003,4.216123510917501,-9.2073719928225,-0.29231319087249985,-5.006750000000001,-14.877187500000002,-13.350750000000001,16.5,False,1
4.535882949829102,4.163511324,-6.8243300552,-0.14536397295,-11.9,20.238750000000003,-25.348750000000003,4.166083608295,-9.134031980132502,-0.19390836144749984,-6.545000000000002,-12.274500000000002,-13.4798125,16.5,False,1
4.545882940292358,4.43210566085,-7.403991330049998,-0.9882357337999998,10.010000000000002,15.172500000000001,-20.203750000000003,4.1060835816,-9.071340028012504,-0.12586246876000004,-6.953187500000001,-9.616249999999997,-13.349,16.5,False,1
4.555901765823364,4.55533602475,-7.933403330299999,-1.6181462832499998,19.188750000000002,14.402500000000002,-18.751250000000002,4.085684768935,-9.023034921775002,-0.12484551915499997,-7.557812500000002,-6.431687500000001,-13.0554375,16.5,False,1
4.565899848937988,4.6277189084,-8.58365287185,-2.1122641501499997,13.405000000000001,15.916250000000002,-18.03375,4.0936708143625,-9.006883369225001,-0.167677043695,-8.154125,-2.7348125000000003,-12.872125,16.5,False,1
4.575983762741089,4.798805724299999,-9.530612415799999,-2.1744775377499996,-0.42875,19.81875,-19.328750000000003,4.132045706809999,-9.0141515678725,-0.2729911483775,-8.3750625,0.29618749999999805,-12.381687500000002,15.5,False,1
4.586038589477539,4.6636112473999995,-10.119246775399999,-2.3641087288,-14.735000000000001,21.376250000000002,-14.726250000000002,4.204368769895,-9.00455036719,-0.38647076018249993,-9.383062500000001,2.661312499999999,-12.152000000000003,15.5,False,1
4.596150636672974,4.48953340325,-10.2317094376,-1.9621145319999997,-16.205000000000002,21.516250000000003,-8.697500000000002,4.2629630133125005,-9.000183465944998,-0.4970789848675,-10.927000000000001,4.9769999999999985,-12.075875000000003,16.5,False,1
4.60631251335144,4.36989227325,-10.225727381099997,-1.5565311012999998,-18.392500000000002,18.62,-0.20125,4.3038802797725,-8.995906295547499,-0.5685047394775,-11.88775,6.848625,-11.594187500000002,16.5,False,1
4.616531610488892,4.28614348225,-9.6993064091,-1.3884353136499998,-16.975,18.488750000000003,4.2175,4.3250268494999995,-8.9579800573375,-0.6307779476425,-12.488000000000001,8.503687500000002,-10.7795625,16.5,False,1
4.626790523529053,4.49312263715,-9.530612415799999,-1.4261222696,-13.256250000000001,16.310000000000002,9.44125,4.3495532811499995,-8.910901272682498,-0.701037201235,-12.7448125,10.454937500000002,-9.845937500000003,16.5,False,1
4.637035369873047,4.977071007999999,-9.10050255345,-1.4871392458999997,-6.378750000000001,12.55625,12.81,4.386313018342499,-8.84686335785,-0.8015656607175,-13.377875,12.2863125,-8.518562500000002,16.5,False,1
4.647293567657471,5.35932441835,-8.863613116049999,-1.6283157792999998,-1.225,9.61625,14.936250000000001,4.4679381792849995,-8.7629650154375,-0.9029016978275,-15.022,14.024937500000002,-7.395500000000001,16.5,False,1
4.657580375671387,5.403591636450001,-8.74157916345,-1.6809578765,-0.9450000000000001,8.627500000000001,14.420000000000002,4.5573101033949985,-8.666354802962498,-0.9993324486074998,-16.942187499999996,15.856750000000002,-6.407625000000003,16.5,False,1
4.667798280715942,5.32103925675,-8.58604569445,-1.6061821702499999,-7.95375,10.40375,13.396250000000002,4.649972158579999,-8.560861236585,-1.0805687758775,-18.536437499999998,17.016125000000002,-5.676125000000001,16.5,False,1
4.677972316741943,5.2594240748,-8.5591264402,-1.387837108,-20.650000000000002,15.750000000000002,14.175,4.732464717714999,-8.489196199715,-1.1341081815525,-19.406187499999998,17.7485,-5.285000000000001,16.5,False,1
4.688106298446655,5.31625361155,-8.34795984575,-1.0211370445499999,-32.23500000000001,20.930000000000003,17.19375,4.782414889489998,-8.4538721560825,-1.1642876565949998,-18.357499999999998,18.0061875,-4.500562500000001,16.5,False,1
4.698317050933838,5.239683288349999,-7.973483108849999,-0.60717873475,-34.7725,22.4525,19.258750000000003,4.8109193887125,-8.43075150771,-1.2039486911899997,-16.489375000000003,17.924375,-3.351250000000003,16.5,False,1
4.7085041999816895,5.465206818399999,-7.1730839491500005,-0.4731806691499999,-36.67125,21.297500000000003,18.13875,4.842115813359999,-8.4334135228525,-1.2412767237499998,-14.900375000000002,17.7734375,-2.142437500000001,16.5,False,1
4.718594074249268,5.730810127,-6.77228616365,-0.47138605219999996,-28.813750000000002,19.547500000000003,9.91375,4.87382071281,-8.4538721560825,-1.2739387522399999,-13.605375,17.7681875,-0.9651250000000005,16.5,False,1
4.728716135025024,5.7702916999,-7.3328048576999985,-0.49950171774999996,-13.95625,15.680000000000001,4.66375,4.907110857232499,-8.5316388905825,-1.3133006840099999,-12.1813125,17.378812500000002,0.4580624999999996,16.5,False,1
4.738919019699097,5.61894567045,-7.363313345849998,-0.7668996432999999,-1.7500000000000002,11.865000000000002,1.5225000000000002,4.96977289907,-8.5446199531875,-1.3393824503499998,-11.2056875,16.8179375,1.9853750000000008,16.5,False,1
4.749142169952393,5.403591636450001,-7.71505826805,-0.9667003303999999,0.1925,13.133750000000001,-2.44125,5.035635341134999,-8.54943550867,-1.3637294203049997,-11.170250000000001,16.555437500000004,3.0664375000000015,16.5,False,1
4.7594850063323975,4.983651270149999,-8.828318982699999,-1.3818550515,-1.09375,17.70125,-4.64625,5.0715575904175,-8.553742589349998,-1.3601700966874997,-11.968687500000001,16.569875000000003,3.8500000000000014,16.5,False,1
4.769604921340942,4.66600407,-8.669196279799998,-1.66959196915,-1.1462500000000002,17.0625,-3.43,5.07816776285,-8.5608313263025,-1.344227916115,-13.013000000000002,16.687125,4.5259375,16.5,False,1
4.779907941818237,4.591826569399999,-9.200402896999998,-2.02133689135,-4.331250000000001,16.03,-0.22750000000000004,5.0692844089474995,-8.55828895229,-1.3254442587049997,-13.464062500000002,16.636375000000005,5.378187500000001,16.5,False,1
4.790616989135742,4.3298124947,-9.674181771799999,-2.0931215693499996,-14.787500000000001,15.30375,0.6475000000000001,5.064678225442499,-8.53567677872,-1.316231891695,-13.682812500000002,16.329687500000006,6.318812500000002,16.5,False,1
4.80071759223938,4.575675016849999,-9.861420140249999,-1.7910277161,-27.466250000000002,11.270000000000001,1.6887500000000002,5.054149806002499,-8.505557124242499,-1.3102797454775,-13.978562500000004,15.965250000000006,7.0231875000000015,16.5,False,1
4.811086654663086,4.6803610056,-9.427721044,-1.3896317249499999,-32.43625,12.538750000000002,4.03375,5.059234554027499,-8.469006759027499,-1.2996316849075,-14.609875000000006,15.609125000000006,7.3661875000000006,16.5,False,1
4.82126259803772,4.6701915095499995,-9.411569491449999,-1.1282158559,-32.243750000000006,13.238750000000001,1.9075000000000002,5.077898570307499,-8.443014723534999,-1.2877872130374999,-15.335687500000002,15.301125000000004,7.429625,16.5,False,1
4.831488609313965,4.498506487999999,-9.69392255825,-1.12761765025,-30.922500000000003,14.14,1.8637500000000002,5.094648328507499,-8.411698657757501,-1.2713365576625,-16.105687500000005,15.101187500000004,7.212625,16.5,False,1
4.841657638549805,4.41894513655,-10.236495082799998,-1.1862418039499998,-25.3575,14.752500000000001,6.16,5.082235561269998,-8.4326358555075,-1.2632607813874999,-16.990750000000002,15.099875000000003,6.786499999999999,16.5,False,1
4.851789712905884,4.39740973315,-10.24546816755,-1.6450655375,-18.43625,13.177500000000002,11.935,5.042484795827498,-8.49882731068,-1.2512368478224998,-17.947125000000003,15.269625000000001,6.5660000000000025,16.5,False,1
4.861914396286011,4.16171670705,-10.426126273849997,-1.5996019081,-20.29125,10.36875,16.87875,4.993970317612499,-8.610033741014998,-1.2465708437524996,-18.812500000000007,15.409625000000002,6.513062500000001,16.5,False,1
4.872159481048584,4.487140580649999,-10.344172099799998,-1.2131610581999999,-38.963750000000005,10.648750000000001,21.218750000000004,4.947729020867498,-8.716604077562497,-1.2429816098524997,-19.987187500000008,15.318625000000003,6.755875000000001,16.5,False,1
4.88495135307312,4.649852517449999,-9.010173500299999,-0.9589236569499999,-42.21,13.781250000000002,17.0625,4.904209559829999,-8.770352855214998,-1.2082856821525,-21.410812500000006,15.397812500000004,7.014000000000001,16.5,False,1
4.89508843421936,5.090131875849999,-8.0410803473,-0.7806583732500001,-51.25750000000001,12.040000000000001,14.000000000000002,4.869005157327498,-8.7842013160125,-1.1923734118625,-22.308125000000008,15.109062499999999,7.143062500000001,16.5,False,1
4.9052393436431885,5.2785666556,-7.4931239719,-0.50069812905,-53.96125000000001,14.84875,8.96875,4.863232472804999,-8.7694854570225,-1.18636144508,-23.222500000000004,14.6890625,6.810562500000001,16.5,False,1
4.915370225906372,5.239683288349999,-7.102495682449999,-0.33858439789999994,-43.5225,13.711250000000001,7.411250000000001,4.860570457662499,-8.7578204468475,-1.1828021214625,-24.017875000000007,14.334687500000001,6.207687500000001,16.5,False,1
4.925493240356445,5.02193643175,-7.0504517908999995,-0.3493520996,-29.085000000000004,11.410000000000002,6.273750000000001,4.834010126802499,-8.772386754425,-1.1771191677875,-24.190687500000003,13.8980625,5.823125000000002,16.5,False,1
4.935573101043701,5.0536413312,-6.9212393704999995,-0.6658028884499999,-22.96,10.85875,3.5000000000000004,4.7938107071225,-8.781329928892498,-1.17391876756,-24.3989375,13.532750000000002,5.736500000000001,16.5,False,1
4.9457011222839355,5.0668018555,-6.9164537253,-1.08693966605,-21.35875,10.508750000000001,0.5075000000000001,4.7696431988625,-8.763294028545,-1.18061867084,-25.0385625,13.405437500000001,5.6870625000000015,16.5,False,1
4.955789089202881,5.0739803233,-6.905686023599999,-1.3088739621999996,-24.508750000000003,9.590000000000002,-3.3775000000000004,4.7434417913925,-8.7499241322675,-1.1933305409025001,-26.157687499999998,13.333687500000002,5.661687500000001,16.5,False,1
4.965903997421265,5.0398826012499995,-6.9332034835,-1.26161571585,-29.645000000000003,9.51125,-7.53375,4.7365624264175,-8.711250136995,-1.1986545711874999,-27.488999999999997,13.072062500000001,5.582937500000002,16.5,False,1
4.975995063781738,4.738985159299999,-7.225726046349999,-0.8213363574499999,-33.87125,9.02125,-12.398750000000001,4.7469113841625,-8.65687324341,-1.1723335225874998,-29.049124999999997,12.6581875,5.323937500000001,16.5,False,1
4.9860498905181885,4.558327053,-7.884350467,-0.24227328824999997,-32.20875,9.31,-12.722500000000002,4.742095828679998,-8.58472964202,-1.1078768637999996,-30.615375,12.2994375,4.739437500000001,16.5,False,1
5.0092010498046875,4.547559351299999,-8.119445287449999,0.09750752095,-13.798750000000002,11.856250000000001,-7.236250000000001,4.740749865967499,-8.5282889389425,-0.9958628558375,-31.116749999999996,12.0990625,4.366250000000002,16.5,False,1
5.029760837554932,4.6839502395,-8.084151154099999,-0.3613162126,-5.78375,11.410000000000002,-9.870000000000001,4.752923350944998,-8.457252018005002,-0.9020941202000001,-30.380000000000003,12.020750000000001,3.879312500000001,16.5,False,1
5.045878648757935,4.834099857649999,-7.7473613731499995,-0.6364908115999999,-2.42375,9.96625,-19.7575,4.758696035467499,-8.3707813912975,-0.843529787065,-29.0250625,11.882062500000002,2.9491875000000007,16.5,False,1
5.059516668319702,4.43928412865,-8.43290504805,-0.46241296745,-1.435,10.64,-23.5725,4.75645276428,-8.28921605092,-0.8138886971075001,-27.4736875,11.757812500000004,1.6200624999999995,16.5,False,1
5.080388784408569,3.978067572499999,-8.44247633845,-0.041874395499999995,-4.103750000000001,12.20625,-19.442500000000003,4.7329432822349995,-8.2753077695575,-0.7661219759550001,-25.9258125,11.636625000000004,0.42612499999999953,16.5,False,1
5.105196475982666,4.099503319449999,-8.27737157905,-0.18843477974999998,-10.123750000000001,20.0025,-18.40125,4.7142493556725,-8.225866072585,-0.7064808726500001,-25.049062499999998,11.7565,-0.5901875000000002,16.5,False,1
5.1252782344818115,4.3453658416,-8.609973920449999,-0.51625147595,-8.47,18.15625,-21.805000000000003,4.703481653972499,-8.1294054115225,-0.6568597139825001,-24.331562499999997,11.957312500000004,-2.1743750000000004,15.5,False,1
5.135482549667358,4.34476763595,-8.5531443837,-0.63589260595,-10.998750000000001,16.835,-21.848750000000003,4.689633193175,-8.00100056875,-0.61531433159,-23.883125,12.265750000000002,-3.9515000000000002,15.5,False,1
5.145614385604858,4.351347898099999,-8.551349766749999,-0.5491527867,-13.055000000000001,15.540000000000001,-21.367500000000003,4.682035981420001,-7.89260570497,-0.5760421306675001,-23.147687500000004,12.608750000000002,-5.983687500000001,16.5,False,1
5.1559672355651855,4.00259400415,-8.5806618436,-0.41694933804999995,-13.641250000000001,16.14375,-22.95125,4.678955222322501,-7.829375367765,-0.5612664511125001,-21.735437500000003,12.687062500000003,-7.994875,16.5,False,1
5.166037321090698,3.8859439023999998,-8.937790616649998,-0.29312076849999996,-11.76875,17.49125,-23.310000000000002,4.6502114408400015,-7.833443166185001,-0.5339882734725,-20.107500000000005,12.921125,-10.049812500000002,16.5,False,1
5.176194190979004,3.8793636402499994,-9.1740818484,-0.43369909624999997,-9.826250000000002,17.360000000000003,-22.391250000000003,4.5974796127925,-7.900143096160001,-0.516909502165,-18.003125,13.1175625,-11.778375,15.5,False,1
5.1861913204193115,3.9906298911499998,-9.178867493599999,-0.5533402262499999,-11.4275,14.463750000000001,-20.606250000000003,4.536971111295001,-7.9972019628724995,-0.5178367209224999,-15.994125,13.197187500000002,-13.2514375,15.5,False,1
5.1962292194366455,4.2101713647,-9.1190469286,-0.65503518675,-12.8975,8.12875,-20.641250000000003,4.481996012060001,-8.09862773083,-0.53216374624,-14.733687500000002,13.133750000000001,-14.6234375,16.5,False,1
5.206241130828857,4.021138379299999,-8.67816936455,-0.5742774239999999,-14.218750000000002,2.3887500000000004,-21.988750000000003,4.4543888213125005,-8.209684609752497,-0.5369793017224999,-14.097562500000006,12.901437500000004,-15.956500000000002,16.5,False,1
5.216449022293091,4.0283168471,-9.321838643949999,0.0646062102,-15.137500000000001,0.8662500000000001,-21.586250000000003,4.410839449992499,-8.323433414099998,-0.5064109930074999,-13.830687500000002,12.401375000000002,-17.181062500000003,16.5,False,1
5.236016035079956,3.7010983565499997,-9.4121676971,0.6891329087999999,-16.68625,13.203750000000001,-18.06875,4.339443605665,-8.435925986582498,-0.41673996607249986,-13.491187500000004,12.366812500000004,-18.060875000000003,16.5,False,1
5.246149063110352,3.8009987000999996,-9.486943403349999,0.44865423749999994,-17.578750000000003,19.0925,-14.323750000000002,4.268586146422501,-8.5582590420075,-0.322253383655,-12.982812500000003,12.705000000000004,-18.6571875,16.5,False,1
5.2562689781188965,3.6927234774499995,-9.647860723199999,0.11306086784999998,-13.527500000000002,19.180000000000003,-10.2025,4.2078084523824995,-8.66991412658,-0.258245379105,-12.1454375,13.224312500000005,-18.773125,16.5,False,1
5.26647686958313,3.7124642638999994,-9.65803021925,-0.26021945775,-5.171250000000001,14.367500000000001,-5.5825000000000005,4.160340834055,-8.781658942,-0.23225334361249997,-10.861812500000003,13.664000000000001,-18.528562500000003,16.5,False,1
5.27674674987793,3.9026936606,-9.427721044,-0.55214381495,-2.87,7.393750000000001,-6.588750000000001,4.119961952679999,-8.846863357849998,-0.25818555853999997,-10.078250000000002,13.6320625,-18.4559375,15.5,False,1
5.286942720413208,3.9433716447999996,-9.819545744749998,-0.24107687694999996,-10.718750000000002,3.5875000000000004,-8.881250000000001,4.083501318312499,-8.916374854379999,-0.27490540645749995,-10.0121875,13.2251875,-18.4065,15.5,False,1
5.297164678573608,3.5874392830499997,-10.006784113199998,0.27457639335,-10.071250000000001,5.696250000000001,-8.207500000000001,4.0366019953525,-9.025667026634997,-0.24478575198000002,-10.494312500000003,12.898812500000002,-18.0429375,16.5,False,1
5.307443618774414,3.6532419045499998,-10.526624823049998,0.55214381495,-6.2125,10.42125,-3.4912500000000004,3.9902111471949993,-9.145756810872497,-0.17647066675,-10.757687500000001,12.764937500000002,-17.234875000000002,16.5,False,1
5.317708730697632,3.7357942842499994,-10.468598874999998,0.17766707805,-5.52125,15.872500000000002,0.74375,3.9647874070699993,-9.236265325717497,-0.14515460097250002,-10.955000000000002,12.842375,-16.2045625,16.5,False,1
5.327900409698486,3.7734812401999998,-10.6588282717,-0.12382856954999999,-11.383750000000001,18.8475,5.08375,3.9417863998274996,-9.328987201467498,-0.14192429046249996,-10.7410625,12.895750000000003,-15.228937500000004,15.5,False,1
5.338014602661133,4.0151563228,-9.8727860476,-0.3565305674,-14.980000000000002,18.392500000000002,11.690000000000001,3.924737538802499,-9.432835702307498,-0.13935200616749993,-11.016250000000001,12.936437500000002,-13.712562500000004,15.5,False,1
5.348190546035767,4.1766718483,-9.28116065975,-0.5515456093,-17.876250000000002,14.79625,10.43875,3.9192938673874993,-9.479944397244997,-0.12924233068249996,-11.364500000000001,12.922875,-12.008937500000005,16.5,False,1
5.3609983921051025,4.387240237099999,-8.709874264,-0.28594230069999993,-20.65875,11.471250000000001,8.8375,3.9203407272749997,-9.49747182279,-0.1156032418625,-11.731125,12.763625000000001,-10.410312500000002,16.5,False,1
5.371212482452393,4.439882334299999,-7.9166535721,0.08315058534999999,-25.042500000000004,11.637500000000001,6.982500000000001,3.925126372475,-9.490682188662499,-0.0977168929275,-12.2145625,12.5286875,-8.881687500000002,16.5,False,1
5.381497383117676,4.8059841920999995,-7.038487677899999,0.16271193679999998,-30.747500000000002,14.35875,2.87,3.9577884009649997,-9.430592431120001,-0.076031938115,-12.962250000000001,12.327,-7.4519375,16.5,False,1
5.3917083740234375,5.003990262249999,-6.433701765749999,0.05084748024999999,-33.74,18.0425,-3.6050000000000004,4.0118961020074995,-9.316993178185,-0.053539405675,-14.067375000000002,12.232062500000001,-6.294312500000001,16.5,False,1
5.401930332183838,5.0093741131,-6.286543175849999,0.15493526335,-27.308750000000003,19.27625,-9.633750000000001,4.073152360567499,-9.167890419922498,-0.025663022385,-15.177750000000003,12.356750000000002,-5.6389375,16.5,False,1
5.412132263183594,4.433302072149999,-6.82373184955,0.30867411539999995,-9.8,16.1525,-10.045000000000002,4.109104520132499,-9.032546391610001,0.01941177334249999,-15.652875000000003,12.7150625,-5.135812499999999,16.5,False,1
5.422250032424927,4.663013041749999,-7.56550685555,0.01734796385,6.072500000000001,11.0075,-10.342500000000001,4.108835327589999,-8.919754716302501,0.05826523030999999,-15.045187500000003,13.1140625,-4.603375000000001,16.5,False,1
5.432330131530762,4.3836510032,-8.19122996545,-0.0077766734499999995,6.763750000000001,8.426250000000001,-12.4075,4.1245382259025,-8.85284541435,0.06891329088,-13.909875000000003,13.534937500000002,-4.0228125000000015,16.5,False,1
5.442563056945801,4.378267152349999,-8.800801522799999,0.27816562724999994,-0.035,8.662500000000001,-13.273750000000001,4.1567216898725,-8.815457561225,0.04301098623499999,-12.923750000000004,13.456187500000002,-3.7506875000000006,16.5,False,1
5.45279598236084,4.313660942149999,-8.8701933782,0.72083780825,-4.89125,14.437500000000002,-13.2825,4.191447527855,-8.78692315172,0.0376570456675,-12.216312500000003,13.181437500000001,-3.5529375,16.5,False,1
5.463006019592285,4.206582130799999,-8.9862452743,0.7740781111,-7.1312500000000005,21.86625,-14.096250000000001,4.21364095747,-8.755068700857498,0.062392849295,-11.6808125,13.066375000000003,-3.6080625000000004,15.5,False,1
5.47317099571228,4.351347898099999,-9.2530449942,0.5461617584499999,-4.40125,29.067500000000003,-13.641250000000001,4.246243165395,-8.725487431464998,0.09741779010249998,-11.606875,13.494250000000003,-3.9086250000000007,15.5,False,1
5.483292818069458,4.371088684549999,-9.72622566335,0.23748764304999997,2.8525000000000005,30.887500000000003,-10.106250000000001,4.279922143489999,-8.733443566609997,0.13677972187249998,-11.494000000000003,14.483437500000003,-4.252937500000001,16.5,False,1
5.4934728145599365,4.4374895117,-9.8321080634,0.04905286329999999,4.812500000000001,28.595000000000002,-4.970000000000001,4.299692840222499,-8.7448393842425,0.1698604943175,-10.956312500000001,15.768375000000002,-4.26825,16.5,False,1
5.50352668762207,4.7928236678,-9.53360344405,-0.09032905315,1.2337500000000001,26.521250000000002,-1.9425000000000001,4.334807511877498,-8.718398694512498,0.1660917987225,-10.1976875,16.955750000000002,-3.974687500000001,16.5,False,1
5.513611793518066,4.7928236678,-9.0915294687,0.32063822839999995,1.6975000000000002,26.425000000000004,0.6125,4.393222293599999,-8.6650387505325,0.1408475202925,-9.770687500000001,17.916062500000002,-3.6881250000000003,16.5,False,1
5.523719787597656,4.8430729424,-8.7469630143,0.5748756296499999,3.33375,27.685000000000002,1.9512500000000002,4.448646047072499,-8.580452471622499,0.1417448287675,-9.442125,18.5815,-3.5393750000000006,16.5,False,1
5.5337605476379395,4.49910469365,-8.7469630143,0.40438701939999994,4.9,29.977500000000003,0.5425000000000001,4.503292133199999,-8.48949530254,0.16707883804499996,-8.79025,19.1205,-3.5546875,16.5,False,1
5.543849468231201,4.2340995907,-8.965308076549999,-0.26620151425,2.9487500000000004,31.071250000000003,-0.42000000000000004,4.533022954004999,-8.4091861940275,0.182153620425,-7.875874999999999,19.6713125,-3.9681250000000006,16.5,False,1
5.553940534591675,4.04327198835,-9.16271594105,-0.9337990196499999,0.25375000000000003,29.7325,-0.6212500000000001,4.5345483784125,-8.391090473114998,0.1812264016675,-6.9829375,20.325375,-4.6265625,16.5,False,1
5.5640153884887695,4.0570307183,-8.997611181649999,-1.31306140175,-4.4625,26.608750000000004,0.88375,4.517589248234999,-8.401020686904998,0.14706885905249995,-6.0878125,21.08575,-5.121812500000001,16.5,False,1
5.574103355407715,4.06959303695,-8.6512501103,-1.4931213023999999,-11.593750000000002,23.528750000000002,2.0650000000000004,4.494139586754999,-8.427072542962499,0.07896314579999994,-5.249125000000001,21.808937500000003,-5.460437500000001,16.5,False,1
5.584203243255615,4.2939201557,-8.146364541699999,-1.5349956979,-17.220000000000002,21.875000000000004,1.5225000000000002,4.468177461545,-8.470412542304999,-0.003050848815000029,-4.557000000000001,22.305500000000002,-5.611375000000001,16.5,False,1
5.59435248374939,4.30648247435,-7.879564821799999,-1.4129617452999998,-20.492500000000003,19.880000000000003,-0.32375000000000004,4.4350966891,-8.53184826256,-0.081774712355,-3.86575,22.548750000000002,-5.592125,16.5,False,1
5.605067253112793,4.3339999342499995,-7.826324518949999,-1.3531411802999997,-18.051250000000003,13.606250000000001,-1.8200000000000003,4.390051803655,-8.6129350384175,-0.15466607080749997,-3.209937500000001,22.504125000000005,-5.228125,16.5,False,1
5.615436315536499,4.30648247435,-8.048258815099999,-1.040877831,-12.748750000000001,10.91125,-1.65375,4.3680378357350005,-8.691359799132501,-0.23066809863999996,-2.8984375000000004,22.2595625,-4.8269375000000005,16.5,False,1
5.625600337982178,3.9792639837999992,-8.1667035338,-0.9559326286999998,-6.063750000000001,6.6325,-3.22,4.3546081188925,-8.738079660397501,-0.2922533703075,-3.353,22.0093125,-4.4130625000000006,16.5,False,1
5.635703086853027,3.9529429351999994,-8.699704767949997,-0.8572286964499999,-0.8487500000000001,2.4937500000000004,-1.6362500000000002,4.327748685207501,-8.7776210538625,-0.3371187940574999,-3.90775,21.786625000000004,-4.046875000000001,16.5,False,1
5.645888090133667,3.7998022887999996,-9.053244307099998,-0.9726823868999999,-0.026250000000000002,-0.1925,2.6075000000000004,4.308576194125001,-8.795836415905,-0.3859921956624999,-4.1076875,21.455000000000002,-3.37575,16.5,False,1
5.656029224395752,3.7962130549,-9.19980469135,-0.9583254512999998,-7.227500000000001,-1.4875,6.88625,4.279772592077499,-8.811030839415,-0.4564608212324999,-4.115125000000001,20.880125,-2.503812500000001,16.5,False,1
5.666143178939819,3.7507494254999996,-9.339186607799999,-0.94815595525,-23.056250000000002,-1.09375,12.32,4.2584764709375,-8.8284087135475,-0.5511866859099999,-4.459437500000001,19.93775,-1.3588750000000003,16.5,False,1
5.676295042037964,3.7256247882,-9.63649481585,-0.8590233134,-44.8875,2.5987500000000003,19.958750000000002,4.2289251118274995,-8.844709817509997,-0.6383452491149998,-5.7032500000000015,18.643625000000004,0.10762499999999955,16.5,False,1
5.686537027359009,3.6167513598999994,-9.8404829425,-0.53539405675,-68.58250000000001,5.76625,30.896250000000002,4.1927336700025,-8.8474914737825,-0.6965207485774998,-8.39825,17.303125,1.9420625,16.5,False,1
5.696806907653809,3.6209387994499997,-9.67238715485,0.0681954441,-91.42875000000001,8.16375,45.893750000000004,4.158187293715,-8.854191377062497,-0.7180860622599998,-12.675250000000002,16.1529375,4.165000000000001,16.5,False,1
5.707064867019653,3.720839143,-9.2159562439,0.7501498851,-103.99375,11.173750000000002,55.20375000000001,4.1167615524525,-8.862117601924998,-0.7068397960399999,-17.8241875,15.2411875,6.8516875000000015,16.5,False,1
5.717360973358154,3.5946177508499995,-8.991030919499998,0.6777670014499999,-109.64625000000001,16.021250000000002,59.010000000000005,4.055924037847499,-8.858498457742497,-0.6805785680049998,-23.271500000000003,14.585375000000004,9.79475,16.5,False,1
5.727672815322876,3.5198420445999994,-9.574879633899998,0.8697910151,-110.70500000000001,18.025000000000002,68.98500000000001,3.9873696703575,-8.884849416624998,-0.6627819499174998,-28.895562500000004,14.173250000000005,12.900125,16.5,False,1
5.73790979385376,3.41874528975,-9.830911652099998,0.6329015777,-112.98,16.14375,82.11875,3.9209688432074996,-8.932795599472499,-0.6519544276524999,-34.759375,13.599687500000002,16.5256875,16.5,False,1
5.7480247020721436,3.55872541185,-9.366105862049999,0.6107679686499999,-129.96375,11.78625,95.40125,3.8725740061224996,-8.9782592288725,-0.6243173266225,-40.90231250000001,12.812625000000002,20.880125000000003,16.5,False,1
5.760704517364502,3.6993037396,-8.89711263245,1.1126625089999997,-147.4375,12.075000000000001,101.82375,3.8445181611374997,-8.9710807610725,-0.5738586800449998,-47.88787500000001,11.8566875,25.851875,16.5,False,1
