time,aX,aY,aZ,gX,gY,gZ,faX,faY,faZ,fgX,fgY,fgZ,temp
0.2438809871673584,-0.37268211995,0.23569302609999998,9.687940501749999,-1.04125,-0.35875,0.18375000000000002,-0.4385246218266667,0.17657036769166665,10.059166987951665,2.231250000000001,4.588500000000002,1.5003333333333344,0.3392293333333333,-0.02341733333333334,-0.09469133333333334,13.5,False
0.2664639949798584,-0.35234312785,0.23569302609999998,9.746564655449998,-1.225,-0.28875,0.385,-0.3461417292783333,0.21940189223166662,9.735418090171667,-6.538875000000002,-2.893333333333334,-0.6335000000000001,0.33897733333333335,-0.02347333333333334,-0.094542,13.5,False
0.2787489891052246,-0.34456645439999994,0.20279171534999998,9.729216691599998,-0.7087500000000001,-0.25375000000000003,0.385,-0.3464009517266667,0.21992033712833328,9.733025267571668,-4.109,-1.3550833333333332,-0.12162500000000014,0.3387253333333334,-0.023529333333333336,-0.094542,13.5,False
0.2908511161804199,-0.33619157529999993,0.22492532440000002,9.72622566335,-1.155,-0.31500000000000006,0.35875,-0.34488549741333335,0.21990039693999994,9.72973513649667,-2.642791666666667,-0.8152083333333334,0.16595833333333337,0.3387813333333334,-0.023725333333333334,-0.09456533333333335,13.5,False
0.30634117126464844,-0.34516466005,0.23629123174999997,9.7172525786,-0.9625000000000001,-0.41125000000000006,0.42000000000000004,-0.34498519835499997,0.22117656899333327,9.727242612955001,-1.4752500000000002,-0.5007916666666666,0.32433333333333336,0.33904266666666677,-0.02398666666666667,-0.09456533333333335,13.5,False
0.3185610771179199,-0.35952159564999997,0.20817556619999997,9.722636429449999,-1.225,-0.5075000000000001,0.44625000000000004,-0.3457828058883333,0.22165513351333327,9.724730149225001,-1.1485833333333335,-0.4077499999999999,0.37712500000000004,0.3390333333333334,-0.02423866666666667,-0.09420133333333335,13.5,False
0.33083200454711914,-0.35114671655,0.20877377184999998,9.72861848595,-1.225,-0.41125000000000006,0.4025,-0.34504501891999995,0.22091734654499992,9.723613498678333,-1.052625,-0.37916666666666654,0.39345833333333335,0.33902400000000016,-0.024490666666666668,-0.09420133333333335,13.5,False
0.34305810928344727,-0.3296113131499999,0.2105683888,9.7435736272,-1.155,-0.41125000000000006,0.44625000000000004,-0.34504501891999995,0.22057836334333328,9.722676309826666,-1.0179166666666668,-0.37216666666666665,0.39258333333333334,0.3391826666666668,-0.02485466666666667,-0.09478000000000002,13.5,False
0.3553450107574463,-0.34755748264999997,0.20338992099999997,9.73699336505,-0.8925000000000001,-0.35000000000000003,0.41125000000000006,-0.345224480615,0.2206182437199999,9.723274515476666,-1.01325,-0.3765416666666666,0.39112499999999994,0.3393973333333334,-0.025060000000000006,-0.09478000000000002,13.5,False
0.36762499809265137,-0.34755748264999997,0.24825534474999997,9.753144917599998,-1.4262500000000002,-0.35875,0.46375000000000005,-0.34550364325166666,0.22095722692166658,9.721938522858332,-1.0170416666666666,-0.3777083333333333,0.39170833333333327,0.33958400000000005,-0.024901333333333338,-0.094892,13.5,False
0.3799309730529785,-0.34277183744999995,0.23330020349999997,9.762716207999999,-0.8400000000000001,-0.27125000000000005,0.41125000000000006,-0.34480573666000003,0.2224527410466666,9.721998343423333,-1.0103333333333333,-0.3785833333333334,0.3838333333333333,0.33977066666666667,-0.02474266666666667,-0.094892,13.5,False
0.39237022399902344,-0.33858439789999994,0.22671994134999998,9.771689292749999,-1.0237500000000002,-0.08750000000000001,0.35000000000000003,-0.34422747119833336,0.22115662880499995,9.722915592086668,-1.0126666666666666,-0.3675,0.3820833333333333,0.34009733333333336,-0.024565333333333335,-0.09492000000000002,13.5,False
0.40459513664245605,-0.3152543775499999,0.23688943739999999,9.7375915707,-1.1287500000000001,-0.5337500000000001,0.39375000000000004,-0.345104839485,0.22217357840999996,9.724391166023333,-0.9977916666666666,-0.36254166666666676,0.3762499999999999,0.34034933333333334,-0.024322666666666663,-0.09492000000000002,13.5,False
0.41681504249572754,-0.34755748264999997,0.21954147355,9.735796953749999,-0.8225000000000001,-0.41125000000000006,0.385,-0.3446661553416667,0.22169501388999996,9.726305424103332,-0.9972083333333334,-0.3584583333333334,0.3712916666666665,0.3404893333333333,-0.024182666666666665,-0.094598,13.5,False
0.4289231300354004,-0.35413774480000004,0.24765713909999998,9.75493953455,-1.04125,-0.49875,0.44625000000000004,-0.34514471986166667,0.22133609049999994,9.727920579358331,-1.0015833333333335,-0.35525,0.3686666666666666,0.34062933333333334,-0.024042666666666664,-0.094598,13.5,False
0.44103121757507324,-0.3296113131499999,0.2105683888,9.774680320999998,-0.9012500000000001,-0.30625,0.41125000000000006,-0.34420753100999996,0.22131615031166663,9.72983483743833,-1.0190833333333336,-0.35175,0.36837499999999984,0.340732,-0.023958666666666663,-0.09492466666666668,13.5,False
0.4531681537628174,-0.34875389395,0.2524427843,9.768100058849999,-1.11125,-0.24500000000000002,0.29750000000000004,-0.34420753101,0.221515552195,9.730712205724997,-1.0217083333333334,-0.3537916666666667,0.3759583333333332,0.3408626666666666,-0.023930666666666663,-0.09492466666666668,13.5,False
0.46530699729919434,-0.33798619224999993,0.20638094924999997,9.75493953455,-1.05875,-0.49000000000000005,0.32375000000000004,-0.3448057366599999,0.22123638955833333,9.731031248738331,-1.0252083333333335,-0.361375,0.3686666666666666,0.3410119999999999,-0.023669333333333327,-0.09498066666666667,13.5,False
0.4774470329284668,-0.3505485109,0.22671994134999998,9.76092159105,-0.8925000000000001,-0.35000000000000003,0.21875000000000003,-0.3440280693149999,0.221754834455,9.732108018908331,-1.0330833333333336,-0.36983333333333335,0.37070833333333325,0.34116133333333326,-0.023407999999999998,-0.09498066666666667,13.5,False
0.48964500427246094,-0.34337004309999997,0.23150558654999998,9.746564655449998,-1.2950000000000002,-0.46375000000000005,0.2625,-0.3437289664899999,0.222592322365,9.732307420791667,-1.0316250000000002,-0.3721666666666667,0.36924999999999997,0.3413106666666666,-0.02314666666666667,-0.09498066666666667,13.5,False
0.501910924911499,-0.3439682487499999,0.22851455829999998,9.762118002349998,-1.3037500000000002,-0.45500000000000007,0.39375000000000004,-0.3431905814049999,0.2224527410466667,9.733105028324996,-1.02025,-0.36983333333333335,0.368375,0.3413946666666666,-0.02306266666666667,-0.09478466666666668,13.5,False
0.5142738819122314,-0.34037901484999994,0.24406790519999996,9.735198748099998,-1.32125,-0.42000000000000004,0.37625000000000003,-0.34472597590666665,0.22189441577333335,9.734660363014997,-1.0190833333333336,-0.3683750000000001,0.370125,0.34156266666666657,-0.02305333333333334,-0.09478466666666668,13.5,False
0.526508092880249,-0.34337004309999997,0.21834506225,9.7435736272,-0.9012500000000001,-0.29750000000000004,0.32375000000000004,-0.34406794969166665,0.22249262142333334,9.73557761167833,-1.0225833333333336,-0.3718750000000001,0.37537500000000007,0.3420946666666666,-0.023053333333333346,-0.094948,13.5,False
0.538640022277832,-0.33678978094999995,0.2165504453,9.757930562799999,-0.8487500000000001,-0.525,0.42875,-0.34380872724333333,0.2227319036833334,9.738429058609997,-1.0360000000000003,-0.3803333333333334,0.3745,0.34240266666666663,-0.023025333333333342,-0.094948,13.5,False
0.5508220195770264,-0.35892339,0.24825534474999997,9.775876732299999,-1.33,-0.63875,0.28,-0.3433501029116667,0.22183459520833335,9.741459967236665,-1.0325000000000002,-0.3762500000000001,0.37070833333333336,0.34231866666666655,-0.02297866666666667,-0.094808,13.5,False
0.5630502700805664,-0.34277183744999995,0.23509482044999996,9.771689292749999,-1.2862500000000001,-0.47250000000000003,0.41125000000000006,-0.34333016272333333,0.22344975046333335,9.74269625891333,-1.037166666666667,-0.3753750000000001,0.37479166666666675,0.3422346666666665,-0.022932000000000008,-0.094808,13.5,False
0.5754790306091309,-0.34636107135,0.22791635265,9.784849817049999,-1.0237500000000002,-0.43750000000000006,0.43750000000000006,-0.3429313589566666,0.22454646082166668,9.743134943056665,-1.0295833333333335,-0.3777083333333335,0.37800000000000006,0.3424866666666666,-0.022493333333333344,-0.094906,13.5,False
0.5883071422576904,-0.34995030525,0.20757736054999998,9.714859756,-1.0150000000000001,-0.2625,0.30625,-0.34291141876833336,0.2246661019516667,9.744770038499999,-1.0287083333333336,-0.3826666666666668,0.37420833333333337,0.3427386666666666,-0.02205466666666667,-0.094906,13.5,False
0.6006021499633789,-0.36311082955,0.23569302609999998,9.749555683699999,-1.155,-0.3325,0.32375000000000004,-0.3431706412166667,0.22448664025666668,9.745866748858331,-1.0450416666666669,-0.38587500000000013,0.37070833333333336,0.34281333333333325,-0.021597333333333336,-0.094906,13.5,False
0.6128721237182617,-0.36311082955,0.2225325018,9.781260583149999,-1.1287500000000001,-0.35875,0.31500000000000006,-0.3438286674316667,0.22382861404166668,9.747122980723331,-1.0465000000000002,-0.3823750000000002,0.37012500000000004,0.34288799999999997,-0.021140000000000003,-0.094906,13.5,False
0.6250619888305664,-0.34995030525,0.22791635265,9.771091087099999,-0.7875000000000001,-0.385,0.28,-0.3453042413683333,0.22474586270500002,9.748678315413331,-1.0418333333333336,-0.38412500000000016,0.368375,0.3432893333333333,-0.02086,-0.09491533333333334,13.5,False
0.6373002529144287,-0.3493520996,0.21954147355,9.75733235715,-0.8575,-0.28,0.37625000000000003,-0.3453840021216667,0.2238286140416667,9.750353291233331,-1.048541666666667,-0.3864583333333334,0.36574999999999996,0.34384933333333334,-0.020869333333333337,-0.09491533333333334,13.5,False
0.6497271060943604,-0.30807590975,0.21894326790000002,9.76451082495,-1.21625,-0.44625000000000004,0.34125000000000005,-0.34518460023833336,0.22348963084000004,9.74989466690167,-1.040375,-0.3864583333333334,0.36341666666666667,0.34412000000000004,-0.02098133333333333,-0.09478466666666668,13.5,False
0.6620612144470215,-0.33200413574999993,0.23629123174999997,9.7794659662,-1.21625,-0.55125,0.25375000000000003,-0.34658041342166673,0.22374885328833335,9.751848805358332,-1.058166666666667,-0.39112500000000006,0.36137499999999995,0.34408266666666676,-0.020953333333333327,-0.09478466666666668,13.5,False
0.6744379997253418,-0.34636107135,0.20279171534999998,9.77886776055,-1.4700000000000002,-0.37625000000000003,0.42875,-0.34697921718833336,0.22362921215833334,9.752646412891664,-1.0710000000000002,-0.39550000000000013,0.3602083333333333,0.3441293333333334,-0.020869333333333327,-0.09468666666666667,13.5,False
0.6867361068725586,-0.35234312785,0.22731814699999997,9.773483909699998,-1.49625,-0.49000000000000005,0.385,-0.3462214900316667,0.2238684944183333,9.754760072855,-1.0745000000000002,-0.3934583333333334,0.3590416666666666,0.3444466666666667,-0.02079466666666666,-0.09468666666666667,13.5,False
0.702294111251831,-0.3439682487499999,0.2500499617,9.76570723625,-1.1375000000000002,-0.42875,0.39375000000000004,-0.34709885831833337,0.2246062813866666,9.755737142083332,-1.0806250000000004,-0.3914166666666667,0.36195833333333327,0.3447080000000001,-0.020813333333333326,-0.09469133333333334,13.5,False
0.7145392894744873,-0.34277183744999995,0.23330020349999997,9.78724263965,-0.7612500000000001,-0.5337500000000001,0.32375000000000004,-0.34711879850666666,0.22596221419333332,9.758329366566668,-1.0832500000000003,-0.40308333333333335,0.3610833333333333,0.34480133333333346,-0.020719999999999995,-0.09469133333333334,13.5,False
0.7267343997955322,-0.3493520996,0.20458633229999998,9.77767134925,-1.1812500000000001,-0.35000000000000003,0.39375000000000004,-0.34677981530499996,0.22592233381666663,9.759864761068332,-1.078291666666667,-0.3984166666666667,0.3645833333333333,0.3448293333333335,-0.020692,-0.09518133333333334,13.5,False
0.7389280796051025,-0.32662028489999995,0.2177468566,9.78843905095,-1.1725,-0.36750000000000005,0.35000000000000003,-0.34652059285666664,0.22610179551166665,9.762317404233332,-1.0806250000000004,-0.398125,0.3642916666666667,0.34488533333333343,-0.021028,-0.09518133333333334,13.5,False
0.7511262893676758,-0.3553341561,0.2117648001,9.789037256599999,-1.2425000000000002,-0.47250000000000003,0.30625,-0.3466801143633333,0.22576281230999992,9.763294473461665,-1.092291666666667,-0.3914166666666667,0.3660416666666667,0.34482000000000007,-0.021149333333333336,-0.09441600000000001,13.5,False
0.7633743286132812,-0.33260234139999995,0.2105683888,9.785448022699999,-1.05,-0.24500000000000002,0.22750000000000004,-0.34713873869500006,0.2260818553233333,9.764550705326664,-1.0940416666666668,-0.38733333333333336,0.3692500000000001,0.34461466666666674,-0.02128933333333334,-0.09441600000000001,13.5,False
0.7757642269134521,-0.3529413335,0.22671994134999998,9.774680320999998,-1.37375,-0.42875,0.385,-0.3466402339866666,0.22536400854333333,9.762556686493333,-1.1016250000000005,-0.38208333333333333,0.3742083333333334,0.34469866666666676,-0.021578666666666677,-0.09457933333333333,13.5,False
0.7879502773284912,-0.3493520996,0.22851455829999998,9.78843905095,-1.0325000000000002,-0.28,0.42875,-0.346779815305,0.22582263287499996,9.762536746304997,-1.1106666666666671,-0.38412500000000005,0.37858333333333344,0.3448946666666667,-0.02176533333333334,-0.09457933333333333,13.5,False
0.8001329898834229,-0.34815568830000004,0.24107687694999996,9.74776106675,-1.1987500000000002,-0.44625000000000004,0.46375000000000005,-0.34618160965499994,0.2263809581483333,9.762776028564996,-1.0981250000000002,-0.3885,0.3829583333333334,0.34481066666666665,-0.02189600000000001,-0.094976,13.5,False
0.8124032020568848,-0.35353953914999997,0.23629123174999997,9.7794659662,-0.8225000000000001,-0.43750000000000006,0.47250000000000003,-0.3462613704083333,0.22679970210333333,9.763593576286665,-1.0873333333333335,-0.3949166666666667,0.37887499999999996,0.34476399999999996,-0.021970666666666673,-0.094976,13.5,False
0.8245141506195068,-0.35114671655,0.23210379219999996,9.810572659999998,-0.9975,-0.665,0.3325,-0.3471586788833333,0.22614167588833334,9.765188791353332,-1.0917083333333335,-0.39666666666666667,0.37625,0.3447173333333333,-0.022045333333333337,-0.094976,13.5,False
0.8366391658782959,-0.34337004309999997,0.2069791549,9.809974454349998,-1.2600000000000002,-0.42875,0.29750000000000004,-0.3465405330450001,0.226420838525,9.766923587738335,-1.0858750000000004,-0.396375,0.378875,0.3446706666666666,-0.02221333333333333,-0.09508333333333334,13.5,False
0.8487250804901123,-0.3493520996,0.24406790519999996,9.786644434,-1.0150000000000001,-0.42000000000000004,0.3325,-0.34739796114333343,0.22576281231,9.767721195271667,-1.0782916666666666,-0.39229166666666665,0.37625,0.344624,-0.02238133333333333,-0.09508333333333334,13.5,False
0.8610403537750244,-0.34875389395,0.21894326790000002,9.792626490499998,-1.6887500000000002,-0.5775,0.39375000000000004,-0.3472384396366667,0.22472592251666665,9.769156888831665,-1.0692500000000003,-0.38791666666666663,0.3774166666666667,0.3447733333333334,-0.022595999999999998,-0.09514400000000002,13.5,False
0.8732030391693115,-0.34995030525,0.20279171534999998,9.78245699445,-1.2600000000000002,-0.69125,0.24500000000000002,-0.3476372434033333,0.22470598232833333,9.77069228333333,-1.0724583333333333,-0.37829166666666664,0.3817916666666666,0.3449880000000001,-0.02263333333333333,-0.09514400000000002,13.5,False
0.885505199432373,-0.35353953914999997,0.22432711874999997,9.776474937949999,-0.9450000000000001,-0.28,0.35000000000000003,-0.34713873869500006,0.22584257306333333,9.772546720848332,-1.0677916666666667,-0.38120833333333337,0.38383333333333325,0.34510000000000013,-0.022829333333333333,-0.094794,13.5,False
0.89784836769104,-0.34995030525,0.24287149389999999,9.79561751875,-1.04125,-0.37625000000000003,0.60375,-0.34741790133166667,0.22596221419333332,9.773105046121666,-1.0785833333333334,-0.3817916666666667,0.380625,0.3448480000000001,-0.023016,-0.094794,13.5,False
0.9101321697235107,-0.3391826035499999,0.23868405434999998,9.749555683699999,-0.9975,-0.28875,0.35000000000000003,-0.3468595760583334,0.22582263287499998,9.772227677835,-1.061375,-0.37683333333333346,0.3838333333333333,0.3445680000000001,-0.02303466666666667,-0.09529800000000001,13.5,False
0.9225151538848877,-0.35413774480000004,0.22731814699999997,9.828518829499998,-1.4262500000000002,-0.56,0.37625000000000003,-0.34699915737666664,0.22733808718833332,9.77334432838167,-1.0523333333333331,-0.3876250000000001,0.382375,0.34468000000000015,-0.023072000000000002,-0.09529800000000001,13.5,False
0.9354240894317627,-0.34277183744999995,0.22432711874999997,9.7794659662,-1.1462500000000002,-0.665,0.5162500000000001,-0.347378020955,0.226420838525,9.775278526650002,-1.0462083333333332,-0.3946250000000002,0.3817916666666667,0.3451280000000001,-0.02298800000000001,-0.09469600000000002,13.5,False
0.9477694034576416,-0.34516466005,0.19800607015,9.799206752649999,-1.0150000000000001,-0.4025,0.37625000000000003,-0.3469792171883333,0.22646071890166666,9.776774040775,-1.057875,-0.3908333333333335,0.3794583333333334,0.34542666666666677,-0.02291333333333334,-0.09469600000000002,13.5,False
0.9601311683654785,-0.3553341561,0.22193429615000002,9.8201439504,-1.0850000000000002,-0.28,0.39375000000000004,-0.346660174175,0.22660030022000002,9.778129973581665,-1.0479583333333333,-0.3826666666666669,0.38325000000000015,0.3452306666666668,-0.02291333333333334,-0.09471933333333335,13.5,False
0.9725222587585449,-0.3565305674,0.21954147355,9.939186874749998,-1.2600000000000002,-0.39375000000000004,0.45500000000000007,-0.34679975549333336,0.22685952266833337,9.77874811942,-1.0365833333333332,-0.3759583333333335,0.3835416666666667,0.3450440000000002,-0.023025333333333342,-0.09471933333333335,13.5,False
0.9847562313079834,-0.34337004309999997,0.20039889274999997,9.78245699445,-1.0150000000000001,-0.20125,0.42000000000000004,-0.346779815305,0.22626131701833338,9.780283513921665,-1.0389166666666665,-0.3750833333333335,0.3841250000000001,0.34490400000000015,-0.023389333333333342,-0.09488266666666667,13.5,False
0.9969723224639893,-0.35892339,0.24227328824999997,9.799206752649999,-1.3037500000000002,-0.3325,0.35000000000000003,-0.34650065266833335,0.22534406835500004,9.780502855993332,-1.0389166666666667,-0.36866666666666675,0.3914166666666667,0.34443733333333343,-0.023576000000000007,-0.09488266666666667,13.5,False
1.0092592239379883,-0.33798619224999993,0.21954147355,9.792626490499998,-1.3650000000000002,-0.6125,0.36750000000000005,-0.34606196852500004,0.22642083852500003,9.781280523338333,-1.0295833333333333,-0.3692500000000001,0.39520833333333344,0.3439146666666667,-0.02350133333333334,-0.094738,13.5,False
1.021557092666626,-0.36550365214999997,0.22013967919999997,9.77049288145,-1.16375,-0.42000000000000004,0.36750000000000005,-0.3463211909733334,0.22654047965500004,9.783613525373333,-1.0339583333333335,-0.3663333333333333,0.3955000000000001,0.3436813333333334,-0.023324000000000004,-0.094738,13.5,False
1.0340173244476318,-0.33080772444999995,0.21296121140000002,9.812367276949999,-1.1375000000000002,-0.29750000000000004,0.39375000000000004,-0.34670005455166664,0.2266202404083333,9.784590594601667,-1.0316250000000002,-0.36924999999999997,0.3963750000000001,0.3434573333333334,-0.023016000000000005,-0.09470533333333335,13.5,False
1.0463571548461914,-0.35712877305,0.23030917524999997,9.769894675799998,-1.11125,-0.43750000000000006,0.29750000000000004,-0.34711879850666666,0.22546370948500002,9.786863776071666,-1.0412500000000005,-0.3704166666666666,0.3990000000000001,0.3431493333333334,-0.022764,-0.09470533333333335,13.5,False
1.0585253238677979,-0.3272184905499999,0.23569302609999998,9.808179837399999,-1.2425000000000002,-0.42875,0.45500000000000007,-0.34622149003166663,0.22526430760166663,9.792965473701665,-1.043291666666667,-0.3745,0.40425000000000005,0.3430560000000001,-0.022624,-0.09460266666666667,13.5,False
1.0709002017974854,-0.3278166962,0.20877377184999998,9.7615197967,-1.2862500000000001,-0.6475000000000001,0.32375000000000004,-0.34624143022,0.2254238291083333,9.793643440104999,-1.0558333333333336,-0.3817916666666666,0.40483333333333343,0.3430186666666668,-0.022390666666666663,-0.09460266666666667,13.5,False
1.0831124782562256,-0.37028929735,0.20877377184999998,9.8093762487,-1.26875,-0.6212500000000001,0.39375000000000004,-0.3458625666416666,0.2244866402566666,9.793882722365002,-1.0631250000000003,-0.37916666666666665,0.40483333333333343,0.34279466666666675,-0.022232,-0.09498066666666667,13.5,False
1.1086363792419434,-0.35772697870000003,0.23150558654999998,9.80518880915,-0.7875000000000001,-0.43750000000000006,0.18375000000000002,-0.3458226862649999,0.22380867385333325,9.795956501951666,-1.0570000000000002,-0.38033333333333336,0.4039583333333335,0.34263600000000005,-0.022007999999999996,-0.09498066666666667,13.5,False
1.1208102703094482,-0.3296113131499999,0.24227328824999997,9.80877804305,-1.1025,-0.37625000000000003,0.36750000000000005,-0.3469393368116666,0.22422741780833325,9.797073152498335,-1.0596250000000003,-0.37858333333333344,0.4060000000000001,0.34264533333333336,-0.021895999999999995,-0.09472866666666667,13.5,False
1.1328551769256592,-0.36430724085,0.23330020349999997,9.774680320999998,-1.0325000000000002,-0.44625000000000004,0.36750000000000005,-0.3469792171883333,0.2237289130999999,9.798728188130001,-1.0680833333333335,-0.38820833333333343,0.40279166666666677,0.34277599999999997,-0.021998666666666663,-0.09472866666666667,13.5,False
1.1449804306030273,-0.3218346397,0.23569302609999998,9.80399239785,-1.2862500000000001,-0.36750000000000005,0.35875,-0.34685957605833334,0.22428723837333325,9.799785018111667,-1.0852916666666668,-0.39929166666666677,0.4074583333333334,0.34278533333333333,-0.02221333333333334,-0.09464466666666668,13.5,False
1.157259225845337,-0.34815568830000004,0.23569302609999998,9.8177511278,-1.1287500000000001,-0.41125000000000006,0.5687500000000001,-0.34707891813,0.22502502534166657,9.802776046361664,-1.0858750000000001,-0.4092083333333335,0.40512500000000007,0.3425053333333333,-0.02227866666666667,-0.09464466666666668,13.5,False
1.169478416442871,-0.32841490184999994,0.21595223965000002,9.814760099549998,-1.3125000000000002,-0.525,0.37625000000000003,-0.3473979611433334,0.2242473579966666,9.802457003348332,-1.0850000000000004,-0.4106666666666668,0.4045416666666668,0.342076,-0.022157333333333338,-0.09471000000000002,13.5,False
1.1816432476043701,-0.34995030525,0.21116659445,9.834500885999999,-0.9187500000000001,-0.1925,0.5687500000000001,-0.34735808076666674,0.2243669991266666,9.803394192199997,-1.101041666666667,-0.4153333333333335,0.3966666666666667,0.34192666666666666,-0.022092,-0.09471000000000002,13.5,False
1.1940133571624756,-0.33080772444999995,0.22193429615000002,9.80518880915,-1.2600000000000002,-0.5425000000000001,0.42875,-0.34753754246166674,0.22344975046333326,9.803154909939998,-1.112416666666667,-0.4083333333333334,0.4004583333333334,0.34179600000000004,-0.022157333333333338,-0.094612,13.5,False
1.2063343524932861,-0.35234312785,0.25184457865,9.7998049583,-1.3125000000000002,-0.36750000000000005,0.41125000000000006,-0.3476771237800001,0.22364915234666663,9.803414132388333,-1.0998750000000002,-0.40629166666666683,0.4068750000000001,0.3416653333333334,-0.022222666666666672,-0.094612,13.5,False
1.218583345413208,-0.3415754261499999,0.23868405434999998,9.814760099549998,-1.26875,-0.28,0.385,-0.3480161069816667,0.22331016914499996,9.802676345419998,-1.106291666666667,-0.4013333333333333,0.41037500000000005,0.3416186666666667,-0.022390666666666673,-0.094948,13.5,False
1.23075532913208,-0.3553341561,0.22492532440000002,9.80399239785,-1.1725,-0.44625000000000004,0.3325,-0.34855449206666667,0.22293130556666663,9.803134969751666,-1.1080416666666666,-0.40599999999999997,0.4124166666666667,0.34157200000000004,-0.02255866666666667,-0.094948,13.5,False
1.2429754734039307,-0.34456645439999994,0.20338992099999997,9.812965482600001,-1.0675000000000001,-0.30625,0.42875,-0.3486143126316667,0.22317058782666666,9.804012338038332,-1.1150416666666667,-0.41095833333333326,0.41095833333333337,0.3414693333333334,-0.022689333333333336,-0.09460733333333333,13.5,False
1.2553374767303467,-0.34337004309999997,0.21296121140000002,9.8069834261,-0.9887500000000001,-0.30625,0.34125000000000005,-0.34887353508,0.22309082707333336,9.805148928773333,-1.1194166666666667,-0.42320833333333324,0.40950000000000003,0.3413666666666667,-0.022820000000000003,-0.09460733333333333,13.5,False
1.2783613204956055,-0.36729826909999996,0.21475582835,9.812367276949999,-1.26875,-0.56,0.49875,-0.3484946715016667,0.22267208311833334,9.805009347455,-1.1398333333333333,-0.4278749999999999,0.40075000000000005,0.34127333333333343,-0.022670666666666672,-0.094598,13.5,False
1.2988553047180176,-0.31824540579999994,0.215354034,9.79083187355,-1.3650000000000002,-0.60375,0.34125000000000005,-0.34785658547500004,0.22147567181833336,9.805826895176667,-1.1407083333333334,-0.4369166666666666,0.39987500000000004,0.34120800000000007,-0.02264266666666667,-0.09445333333333333,13.5,False
1.3230111598968506,-0.34516466005,0.22552353004999998,9.8201439504,-1.2950000000000002,-0.55125,0.28875,-0.3478765256633334,0.2212563297466667,9.807481930808333,-1.1482916666666667,-0.43691666666666673,0.3925833333333334,0.3413200000000001,-0.023034666666666665,-0.09464000000000002,13.5,False
1.344705581665039,-0.31645078885,0.22492532440000002,9.816554716499999,-1.155,-0.43750000000000006,0.43750000000000006,-0.34819556867666673,0.22155543257166668,9.802995388433333,-1.1660833333333334,-0.43545833333333334,0.3908333333333333,0.3414320000000001,-0.023426666666666665,-0.09464000000000002,13.5,False
1.3613624572753906,-0.31106693799999996,0.22313070744999997,9.80279598655,-1.435,-0.49000000000000005,0.18375000000000002,-0.3480559873583333,0.22181465502,9.803154909939998,-1.1730833333333333,-0.43224999999999997,0.3870416666666666,0.3411706666666668,-0.023548,-0.09467733333333334,13.5,False
1.381394386291504,-0.36071800695,0.2165504453,9.807581631749999,-1.0762500000000002,-0.39375000000000004,0.34125000000000005,-0.34815568829999993,0.22235304010500004,9.804650424064997,-1.1859166666666667,-0.43983333333333335,0.3823749999999999,0.3407226666666668,-0.023678666666666667,-0.094738,13.5,False
1.405935287475586,-0.346959277,0.22193429615000002,9.79083187355,-1.2950000000000002,-0.42875,0.39375000000000004,-0.3493122192233333,0.22301106631999998,9.80556767272833,-1.2025416666666666,-0.455,0.3844166666666667,0.34085333333333345,-0.02353866666666667,-0.09503666666666667,13.5,False
1.4182205200195312,-0.33858439789999994,0.22851455829999998,9.83509909165,-1.2425000000000002,-0.41125000000000006,0.43750000000000006,-0.34895329583333334,0.22241286067,9.805886715741662,-1.210416666666667,-0.45558333333333334,0.3844166666666667,0.34095600000000015,-0.023576,-0.09460733333333333,13.5,False
1.430448293685913,-0.33080772444999995,0.22492532440000002,9.8333044747,-1.2950000000000002,-0.49875,0.35000000000000003,-0.34895329583333334,0.22311076726166665,9.808020315893332,-1.2104166666666667,-0.45558333333333334,0.3838333333333333,0.3410120000000001,-0.023361333333333338,-0.09460733333333333,13.5,False
1.4428763389587402,-0.34456645439999994,0.20877377184999998,9.855438083749998,-1.2775,-0.56,0.35875,-0.3487738341383333,0.2239881355483333,9.811230686214998,-1.2142083333333333,-0.46462499999999995,0.3858749999999999,0.34106800000000004,-0.023146666666666673,-0.09460733333333333,13.5,False
1.4550435543060303,-0.35593236175,0.21475582835,9.83390268035,-1.2337500000000001,-0.31500000000000006,0.45500000000000007,-0.34849467150166663,0.2229113653783333,9.812108054501664,-1.2115833333333335,-0.4701666666666666,0.38295833333333323,0.3415346666666667,-0.02297866666666667,-0.09482666666666667,13.5,False
1.4671354293823242,-0.35952159564999997,0.22133609049999997,9.837491914249998,-1.2950000000000002,-0.39375000000000004,0.36750000000000005,-0.34851461168999986,0.222951245755,9.811629489981664,-1.215666666666667,-0.47541666666666665,0.3847083333333334,0.3420013333333333,-0.02281066666666667,-0.09482666666666667,13.5,False
1.4792523384094238,-0.37387853125,0.24945175605,9.838688325549999,-1.2862500000000001,-0.48125000000000007,0.42875,-0.34713873869499995,0.22257238217666667,9.812387217138332,-1.2220833333333336,-0.46929166666666666,0.38120833333333337,0.3421786666666667,-0.023062666666666672,-0.09484533333333335,13.5,False
1.4913344383239746,-0.34456645439999994,0.20877377184999998,9.843473970749999,-1.4175000000000002,-0.5687500000000001,0.4025,-0.34604202833666664,0.22380867385333328,9.813164884483333,-1.219166666666667,-0.47308333333333336,0.38558333333333333,0.342356,-0.02331466666666667,-0.09484533333333335,13.5,False
1.5036284923553467,-0.34636107135,0.22013967919999997,9.84706320465,-1.33,-0.41125000000000006,0.31500000000000006,-0.3463810115383333,0.2230310065083333,9.810931583389998,-1.2182916666666672,-0.4643333333333333,0.3809166666666667,0.34248666666666666,-0.02350133333333334,-0.09483133333333334,13.5,False
1.5158603191375732,-0.31704899449999996,0.24346969954999997,9.792626490499998,-0.7525000000000001,-0.36750000000000005,0.35875,-0.3464009517266666,0.2226720831183333,9.811948532994998,-1.216541666666667,-0.46549999999999997,0.3782916666666667,0.3426173333333333,-0.023688000000000008,-0.09483133333333334,13.5,False
1.5281004905700684,-0.3529413335,0.21595223965000002,9.832706269049998,-1.1462500000000002,-0.36750000000000005,0.385,-0.34648071247999995,0.2236890327233333,9.812905662035002,-1.2185833333333338,-0.4666666666666666,0.3782916666666667,0.34280399999999994,-0.02376266666666667,-0.094668,13.5,False
1.5403683185577393,-0.34037901484999994,0.22731814699999997,9.8045906035,-1.2600000000000002,-0.42875,0.31500000000000006,-0.34679975549333336,0.2238684944183333,9.811689310546665,-1.2293750000000003,-0.46374999999999994,0.38062500000000005,0.3429906666666666,-0.023837333333333335,-0.094668,13.5,False
1.5528113842010498,-0.3332005470499999,0.22911276394999996,9.843473970749999,-0.9800000000000001,-0.32375000000000004,0.46375000000000005,-0.34600214796,0.22438693931499995,9.811230686215001,-1.2355000000000005,-0.4672499999999999,0.3762500000000001,0.3429906666666666,-0.023650666666666667,-0.094822,13.5,False
1.568375587463379,-0.32602207924999993,0.21595223965000002,9.814760099549998,-1.39125,-0.36750000000000005,0.47250000000000003,-0.34660035361,0.22514466647166664,9.805826895176669,-1.2299583333333335,-0.45266666666666666,0.37858333333333344,0.3429906666666666,-0.023464,-0.094822,13.5,False
1.5806715488433838,-0.34576286570000003,0.22731814699999997,9.8273224182,-0.9712500000000001,-0.525,0.32375000000000004,-0.34632119097333336,0.22558335061499996,9.806245639131669,-1.211291666666667,-0.45179166666666665,0.3680833333333335,0.343,-0.023314666666666664,-0.094542,13.5,False
1.5928492546081543,-0.3355933696499999,0.24346969954999997,9.823733184299998,-0.9800000000000001,-0.5075000000000001,0.37625000000000003,-0.3466003536100001,0.22452652063333328,9.807262588736668,-1.2308333333333334,-0.45733333333333337,0.3669166666666668,0.3430093333333334,-0.023165333333333333,-0.094542,13.5,False
1.6050634384155273,-0.32063822839999995,0.2165504453,9.8153583052,-1.33875,-0.385,0.32375000000000004,-0.3463810115383333,0.2250848459066666,9.807880734574999,-1.2404583333333334,-0.4605416666666667,0.36283333333333345,0.3431866666666667,-0.023212,-0.09491533333333334,13.5,False
1.6171555519104004,-0.34456645439999994,0.25782663515,9.80159957525,-1.225,-0.42000000000000004,0.25375000000000003,-0.34620154984333334,0.22462622157499992,9.809057205686665,-1.2305416666666669,-0.45675000000000004,0.36166666666666675,0.343364,-0.023258666666666664,-0.09491533333333334,13.5,False
1.6294896602630615,-0.34995030525,0.22133609049999997,9.794421107449999,-1.1812500000000001,-0.49875,0.42000000000000004,-0.3476571835916667,0.22512472628333327,9.809735172089999,-1.2139166666666668,-0.46112500000000006,0.3610833333333335,0.34352266666666664,-0.023202666666666663,-0.09505066666666667,13.5,False
1.6416916847229004,-0.36311082955,0.21714865095,9.844670382049998,-1.2512500000000002,-0.37625000000000003,0.27125000000000005,-0.34717861907166664,0.22526430760166663,9.810851822636664,-1.219166666666667,-0.4617083333333334,0.35466666666666674,0.3436813333333333,-0.023146666666666666,-0.09505066666666667,13.5,False
1.6543455123901367,-0.3529413335,0.22432711874999997,9.835697297299998,-1.3475000000000001,-0.39375000000000004,0.32375000000000004,-0.3463211909733333,0.2257827524983333,9.813822910698333,-1.217416666666667,-0.4608333333333333,0.35233333333333344,0.34378400000000003,-0.0231,-0.09471466666666668,13.5,False
1.6665644645690918,-0.3529413335,0.20638094924999997,9.834500885999999,-1.1987500000000002,-0.45500000000000007,0.35000000000000003,-0.34550364325166666,0.22616161607666666,9.814660398608334,-1.2197500000000001,-0.4582083333333334,0.352625,0.34388666666666673,-0.023053333333333332,-0.09471466666666668,13.5,False
1.679410696029663,-0.35712877305,0.2309073809,9.839884736850001,-0.805,-0.6125,0.45500000000000007,-0.34540394231,0.22646071890166664,9.815737168778332,-1.2232500000000002,-0.4535416666666667,0.3514583333333334,0.3437000000000001,-0.02294133333333333,-0.094444,13.5,False
1.6915886402130127,-0.33080772444999995,0.2225325018,9.815956510849999,-1.7587500000000003,-0.6737500000000001,0.31500000000000006,-0.34492537779000004,0.22681964229166665,9.815258604258332,-1.2217916666666668,-0.45325000000000004,0.34854166666666675,0.34351333333333345,-0.02282933333333333,-0.094444,13.5,False
1.7041876316070557,-0.35114671655,0.22552353004999998,9.841679353799998,-1.4262500000000002,-0.56,0.28875,-0.34566316475833336,0.22594227400499997,9.814979441621665,-1.2238333333333336,-0.45295833333333335,0.35204166666666675,0.3435600000000001,-0.022820000000000003,-0.09472866666666667,13.5,False
1.7163455486297607,-0.34097722049999996,0.22731814699999997,9.8380901199,-1.33875,-0.32375000000000004,0.32375000000000004,-0.3466202937983334,0.22677976191499996,9.815956510849999,-1.2203333333333333,-0.4523750000000001,0.35320833333333346,0.34357866666666675,-0.02268933333333334,-0.09472866666666667,13.5,False
1.7285034656524658,-0.32542387359999997,0.2141576227,9.85424167245,-1.1725,-0.37625000000000003,0.44625000000000004,-0.3469792171883334,0.22616161607666668,9.815458006141665,-1.222375,-0.4587916666666667,0.3572916666666668,0.3434946666666668,-0.022400000000000007,-0.09492933333333335,13.5,False
1.7407464981079102,-0.3553341561,0.22313070744999997,9.839286531199999,-1.11125,-0.21875000000000003,0.55125,-0.3463610713500001,0.22496520477666668,9.819944548516666,-1.2124583333333334,-0.4485833333333334,0.36225000000000007,0.3434106666666668,-0.022110666666666664,-0.09492933333333335,13.5,False
1.7530033588409424,-0.34097722049999996,0.2177468566,9.819545744749998,-1.2425000000000002,-0.37625000000000003,0.42875,-0.3469393368116667,0.22542382910833333,9.82122072057,-1.2031250000000004,-0.44100000000000006,0.3666250000000001,0.34349466666666667,-0.022344000000000006,-0.09464933333333335,13.5,False
1.7651095390319824,-0.3493520996,0.23868405434999998,9.84227755945,-1.1900000000000002,-0.35000000000000003,0.3325,-0.3472184994483334,0.2252044870366667,9.820542754166667,-1.1993333333333338,-0.4313750000000001,0.3724583333333334,0.3437653333333333,-0.022568,-0.09464933333333335,13.5,False
1.777268409729004,-0.34755748264999997,0.19621145319999997,9.852447055499999,-1.82875,-0.49875,0.37625000000000003,-0.346899456435,0.22432711875000005,9.819964488704999,-1.193791666666667,-0.42350000000000004,0.3710000000000001,0.3439519999999999,-0.02298800000000001,-0.09464933333333335,13.5,False
1.7895777225494385,-0.3218346397,0.23928225999999997,9.836893708599998,-1.37375,-0.4025,0.3325,-0.3470988583183333,0.22516460666000004,9.820782036426664,-1.1926250000000003,-0.42612500000000003,0.3686666666666667,0.34405466666666656,-0.023128000000000006,-0.09479866666666667,13.5,False
1.8018465042114258,-0.3397808092,0.20877377184999998,9.789635462249999,-1.2075,-0.6125,0.41125000000000006,-0.3472783200133333,0.22510478609500006,9.820024309269998,-1.1932083333333334,-0.42700000000000016,0.373625,0.34415733333333326,-0.023268000000000007,-0.09479866666666667,13.5,False
1.8141725063323975,-0.36490544649999995,0.21894326790000002,9.846464998999998,-1.11125,-0.63875,0.35875,-0.34691939662333326,0.22508484590666675,9.81860855589833,-1.1952500000000001,-0.42350000000000015,0.36895833333333333,0.34413866666666654,-0.023426666666666672,-0.094822,13.5,False
1.8262734413146973,-0.3415754261499999,0.22492532440000002,9.847661410299999,-0.77875,-0.24500000000000002,0.28875,-0.34715867888333324,0.22558335061500004,9.819525804561664,-1.2002083333333333,-0.4211666666666668,0.3689583333333333,0.3437653333333332,-0.023800000000000005,-0.094822,13.5,False
1.8384287357330322,-0.33619157529999993,0.21834506225,9.890732217099998,-1.37375,-0.5425000000000001,0.36750000000000005,-0.3472583798249999,0.2259821543816667,9.821340361699997,-1.1943750000000004,-0.4156250000000001,0.3663333333333333,0.3435693333333333,-0.024033333333333344,-0.09481266666666667,13.5,False
1.8506884574890137,-0.34875389395,0.23150558654999998,9.673583566149999,-0.9187500000000001,-0.27125000000000005,0.28875,-0.3471985592599999,0.22508484590666672,9.821878746784998,-1.1806666666666672,-0.41212500000000013,0.3686666666666666,0.34365333333333337,-0.023977333333333347,-0.09481266666666667,13.5,False
1.8628897666931152,-0.3505485109,0.24047867129999997,9.842875765099999,-1.2337500000000001,-0.44625000000000004,0.4025,-0.3480161069816666,0.2250649057183334,9.821280541134996,-1.1830000000000003,-0.40891666666666676,0.36399999999999993,0.3438586666666667,-0.02420133333333335,-0.09436933333333333,13.5,False
1.87507963180542,-0.35473595045,0.22133609049999997,9.8380901199,-1.3562500000000002,-0.31500000000000006,0.28,-0.3476173032149999,0.2264008983366667,9.819864787763331,-1.196125,-0.415625,0.3660416666666666,0.34389600000000003,-0.02437866666666668,-0.09436933333333333,13.5,False
1.8873796463012695,-0.34277183744999995,0.2225325018,9.802197780899998,-1.2075,-0.385,0.46375000000000005,-0.34771700415666656,0.22646071890166666,9.81974514663333,-1.2069166666666669,-0.4202916666666667,0.36720833333333325,0.34375600000000006,-0.024397333333333347,-0.09477533333333335,13.5,False
1.8998744487762451,-0.3296113131499999,0.22612173569999997,9.828518829499998,-1.00625,-0.49875,0.42000000000000004,-0.34749766208499994,0.22606191513499999,9.820702275673332,-1.2142083333333333,-0.4127083333333334,0.36604166666666665,0.34374666666666676,-0.024453333333333344,-0.09477533333333335,13.5,False
1.912414789199829,-0.3332005470499999,0.24646072779999997,9.8560362894,-1.6275000000000002,-0.39375000000000004,0.31500000000000006,-0.3470988583183333,0.22636101796000002,9.821280541134998,-1.2002083333333333,-0.41912499999999997,0.3669166666666667,0.34378400000000015,-0.02444400000000001,-0.09459333333333333,13.5,False
1.9246516227722168,-0.33678978094999995,0.23210379219999996,9.851848849849999,-1.2600000000000002,-0.46375000000000005,0.31500000000000006,-0.34636107135,0.22632113758333333,9.822257610363332,-1.1897083333333334,-0.41591666666666677,0.3715833333333334,0.3438400000000001,-0.02458400000000001,-0.09459333333333333,13.5,False
1.9369416236877441,-0.33858439789999994,0.2237289131,9.843473970749999,-1.49625,-0.45500000000000007,0.385,-0.34612178908999996,0.22598215438166666,9.827741162154998,-1.1864999999999999,-0.4229166666666667,0.37041666666666667,0.3437373333333334,-0.024658666666666672,-0.09430866666666667,13.5,False
1.9493484497070312,-0.34636107135,0.22791635265,9.882357337999998,-0.9887500000000001,-0.28875,0.36750000000000005,-0.346540533045,0.22524436741333329,9.82812002573333,-1.2098333333333333,-0.419125,0.3730416666666667,0.34374666666666676,-0.024584000000000005,-0.09430866666666667,13.5,False
1.9648785591125488,-0.35892339,0.24047867129999997,9.8572327007,-1.2775,-0.31500000000000006,0.3325,-0.34552358344000006,0.2244068795033333,9.829097094961663,-1.192625,-0.41095833333333337,0.37566666666666676,0.34393333333333337,-0.024332000000000003,-0.09493400000000002,13.5,False
1.9770915508270264,-0.34037901484999994,0.21714865095,9.82792062385,-0.9537500000000001,-0.385,0.385,-0.3456033441933334,0.2235693915933333,9.830413147391662,-1.1783333333333335,-0.41037500000000005,0.3768333333333334,0.3441013333333334,-0.024070666666666667,-0.09493400000000002,13.5,False
1.989403486251831,-0.36789647475,0.23808584869999996,9.851848849849999,-1.05875,-0.48125000000000007,0.34125000000000005,-0.3460819087133334,0.22448664025666662,9.829834881929997,-1.1864999999999999,-0.4054166666666667,0.3782916666666667,0.34405466666666673,-0.02395866666666667,-0.09470066666666668,13.5,False
2.0016486644744873,-0.3415754261499999,0.22432711874999997,9.848259615949999,-1.5575,-0.5687500000000001,0.28875,-0.34424741138666665,0.22568305155666665,9.831769080198331,-1.19875,-0.40425000000000005,0.3812083333333333,0.344008,-0.02381866666666667,-0.09470066666666668,13.5,False
2.01405668258667,-0.32901310749999996,0.20338992099999997,9.83509909165,-1.5662500000000001,-0.60375,0.3325,-0.3440480095033333,0.22564317117999994,9.831928601704998,-1.2037083333333336,-0.4045416666666667,0.3815,0.34412933333333334,-0.023753333333333335,-0.09448600000000001,13.5,False
2.0267815589904785,-0.34217363179999993,0.22492532440000002,9.864411168499998,-1.6887500000000002,-0.60375,0.5162500000000001,-0.34458639458833334,0.22538394873166662,9.832766089615001,-1.2133333333333336,-0.4092083333333333,0.38150000000000006,0.34420400000000007,-0.023716,-0.09448600000000001,13.5,False
2.0390067100524902,-0.31465617189999995,0.2225325018,9.8404829425,-1.1725,-0.34125000000000005,0.385,-0.34434711232833326,0.2256032908033333,9.833204773758332,-1.2139166666666668,-0.4100833333333334,0.3835416666666668,0.34435333333333334,-0.023697333333333334,-0.09471466666666668,13.5,False
2.0511395931243896,-0.3337987527,0.20997018315,9.8440721764,-1.2075,-0.42000000000000004,0.35000000000000003,-0.34392836837333324,0.22592233381666663,9.833005371875,-1.216541666666667,-0.4124166666666667,0.38266666666666665,0.34465199999999996,-0.023734666666666668,-0.09471466666666668,13.5,False
2.063412666320801,-0.3337987527,0.21475582835,9.8201439504,-1.3650000000000002,-0.4025,0.31500000000000006,-0.3438685478083332,0.22566311136833334,9.834799988824996,-1.2156666666666671,-0.4080416666666668,0.38325000000000004,0.34486666666666665,-0.0238,-0.09474733333333334,13.5,False
2.075680732727051,-0.33798619224999993,0.21714865095,9.83509909165,-1.2512500000000002,-0.4025,0.385,-0.3429712393333332,0.22636101796,9.835996400124998,-1.2060416666666671,-0.4022083333333334,0.38179166666666675,0.3449413333333334,-0.023884000000000002,-0.09474733333333334,13.5,False
2.0879697799682617,-0.35772697870000003,0.23808584869999996,9.8548398781,-1.3650000000000002,-0.45500000000000007,0.39375000000000004,-0.3424328542483332,0.22554347023833332,9.836614545963332,-1.2150833333333337,-0.4039583333333334,0.37712500000000004,0.3450626666666668,-0.024052000000000004,-0.09480333333333334,13.5,False
2.1002326011657715,-0.3439682487499999,0.23389840915,9.85304526115,-1.2775,-0.39375000000000004,0.41125000000000006,-0.34329028234666653,0.22717856568166667,9.836973469353333,-1.2130416666666666,-0.39929166666666666,0.37916666666666665,0.34513733333333346,-0.024126666666666668,-0.09480333333333334,13.5,False
2.1126456260681152,-0.35114671655,0.22313070744999997,9.84945602725,-0.9800000000000001,-0.5075000000000001,0.32375000000000004,-0.34430723195166657,0.22771695076666665,9.838050239523334,-1.2299583333333333,-0.40599999999999997,0.37333333333333335,0.34521200000000013,-0.02420133333333333,-0.09480333333333334,13.5,False
2.1248385906219482,-0.34097722049999996,0.24825534474999997,9.87577707585,-1.4087500000000002,-0.385,0.35000000000000003,-0.3433301627233333,0.22743778813,9.837930598393331,-1.2369583333333336,-0.4153333333333333,0.3745,0.34508133333333346,-0.024126666666666668,-0.09495266666666667,13.5,False
2.1369996070861816,-0.34636107135,0.2177468566,9.852447055499999,-1.04125,-0.4025,0.56,-0.34364920573666663,0.227258326435,9.838688325549999,-1.2346250000000005,-0.42554166666666665,0.375375,0.34495066666666674,-0.024052,-0.09495266666666667,13.5,False
2.148974895477295,-0.3613162126,0.22432711874999997,9.83629550295,-1.1462500000000002,-0.30625,0.29750000000000004,-0.34255249537833327,0.2282952162283333,9.839406172329998,-1.2273333333333336,-0.4235,0.3750833333333334,0.34462400000000015,-0.023856,-0.094836,13.5,False
2.1610896587371826,-0.36370903520000003,0.2117648001,9.862616551549998,-1.05875,-0.48125000000000007,0.385,-0.34275189726166666,0.22851455829999998,9.83954575364833,-1.2308333333333334,-0.42933333333333334,0.37129166666666674,0.34440933333333346,-0.023762666666666665,-0.094836,13.5,False
2.173281669616699,-0.35353953914999997,0.18604195715,9.856634495049999,-1.54875,-0.47250000000000003,0.23625000000000002,-0.3421337514233333,0.22799611340333337,9.839924617226663,-1.227625,-0.42962500000000003,0.3672083333333333,0.34440933333333346,-0.023669333333333334,-0.09450466666666668,13.5,False
2.1855947971343994,-0.3355933696499999,0.24526431649999997,9.871589636299998,-0.9187500000000001,-0.48125000000000007,0.5075000000000001,-0.34193434953999996,0.22795623302666668,9.839386232141663,-1.2214999999999998,-0.4258333333333333,0.37129166666666674,0.3445306666666668,-0.023557333333333333,-0.09450466666666668,13.5,False
2.19789457321167,-0.34576286570000003,0.2141576227,9.862616551549998,-0.88375,-0.3325,0.39375000000000004,-0.341874528975,0.22791635265000004,9.839944557415,-1.23375,-0.42291666666666666,0.3762500000000001,0.3447920000000001,-0.023314666666666668,-0.09492466666666668,13.5,False
2.2102208137512207,-0.33499516399999996,0.22193429615000002,9.83509909165,-0.8750000000000001,-0.5687500000000001,0.29750000000000004,-0.341635246715,0.22835503679333338,9.840303480805,-1.2366666666666668,-0.4235,0.37916666666666665,0.34487600000000007,-0.023212,-0.09492466666666668,13.5,False
2.2229998111724854,-0.3332005470499999,0.215354034,9.838688325549999,-1.1987500000000002,-0.45500000000000007,0.36750000000000005,-0.34229327293000006,0.22889342187833334,9.840961507020001,-1.255916666666667,-0.434875,0.37741666666666673,0.34474533333333335,-0.023249333333333334,-0.09474733333333334,13.5,False
2.2355148792266846,-0.3439682487499999,0.22851455829999998,9.87218784195,-1.2337500000000001,-0.525,0.385,-0.34173494765666673,0.22855443867666667,9.841260609845001,-1.2649583333333334,-0.43866666666666665,0.37479166666666675,0.3444933333333334,-0.023006666666666665,-0.09474733333333334,13.5,False
2.247847557067871,-0.35353953914999997,0.2177468566,9.9014999188,-0.805,-0.37625000000000003,0.28875,-0.342592375755,0.22823539566333337,9.841420131351667,-1.2562083333333336,-0.43254166666666666,0.37362500000000004,0.3444279999999999,-0.022726666666666662,-0.09485466666666668,13.5,False
2.2603557109832764,-0.35593236175,0.2225325018,9.847661410299999,-1.0850000000000002,-0.46375000000000005,0.39375000000000004,-0.34293135895666665,0.22863419943000002,9.842038277190001,-1.2413333333333334,-0.42262500000000003,0.3780000000000001,0.34453999999999996,-0.02260533333333333,-0.09485466666666668,13.5,False
2.2727608680725098,-0.36610185780000004,0.21714865095,9.821340361699999,-1.3037500000000002,-0.27125000000000005,0.44625000000000004,-0.342951299145,0.22835503679333335,9.842038277190001,-1.2360833333333336,-0.42991666666666667,0.382375,0.3441199999999999,-0.02260533333333333,-0.09463533333333335,13.5,False
2.284972667694092,-0.33619157529999993,0.23210379219999996,9.8548398781,-1.1462500000000002,-0.3325,0.32375000000000004,-0.3428914785800001,0.22793629283833336,9.842776064158334,-1.2664166666666672,-0.4267083333333333,0.3791666666666667,0.34365333333333326,-0.022670666666666665,-0.09463533333333335,13.5,False
2.2972018718719482,-0.34995030525,0.22911276394999996,9.85902731765,-0.88375,-0.30625,0.39375000000000004,-0.3433700431,0.22691934323333338,9.844630501673333,-1.2626250000000006,-0.4293333333333333,0.3817916666666667,0.34364399999999995,-0.022689333333333336,-0.09483133333333334,13.5,False
2.3094987869262695,-0.33260234139999995,0.24765713909999998,9.8560362894,-1.5137500000000002,-0.47250000000000003,0.36750000000000005,-0.3433700431,0.22671994134999998,9.847083144838333,-1.2591250000000005,-0.434875,0.38558333333333344,0.3437933333333333,-0.022773333333333333,-0.09483133333333334,13.5,False
2.321730852127075,-0.34516466005,0.23210379219999996,9.8572327007,-1.0675000000000001,-0.34125000000000005,0.30625,-0.34329028234666664,0.22683958248,9.846684341071667,-1.2425000000000002,-0.4360416666666667,0.3893750000000001,0.3438306666666666,-0.022904000000000004,-0.094878,13.5,False
2.3342528343200684,-0.3397808092,0.23210379219999996,9.82911703515,-1.3037500000000002,-0.46375000000000005,0.39375000000000004,-0.34354950479499996,0.22751754888333334,9.847880752371667,-1.2562083333333334,-0.4351666666666667,0.39229166666666676,0.34369066666666664,-0.023212000000000007,-0.094878,13.5,False
2.3464488983154297,-0.34576286570000003,0.21834506225,9.862616551549998,-1.4700000000000002,-0.6212500000000001,0.35875,-0.3438884879966666,0.22807587415666666,9.84726260653333,-1.257666666666667,-0.4319583333333333,0.39375000000000004,0.3438586666666667,-0.023454666666666672,-0.094542,13.5,False
2.361844778060913,-0.34277183744999995,0.22133609049999997,9.84227755945,-1.12,-0.4025,0.30625,-0.34352956460666656,0.22709880492833331,9.847641470111663,-1.2611666666666672,-0.43662500000000004,0.3990000000000001,0.3442413333333334,-0.023548000000000003,-0.094542,13.5,False
2.37471079826355,-0.34755748264999997,0.22911276394999996,9.85304526115,-1.3125000000000002,-0.49875,0.47250000000000003,-0.34448669364666656,0.2263809581483333,9.846026314856664,-1.2503750000000005,-0.4395416666666666,0.4016250000000001,0.3443253333333334,-0.02379066666666667,-0.094962,13.5,False
2.3868958950042725,-0.3218346397,0.2117648001,9.8859465719,-1.0150000000000001,-0.45500000000000007,0.37625000000000003,-0.3441078300683333,0.22681964229166668,9.847541769169997,-1.2643750000000007,-0.4477083333333332,0.40366666666666684,0.3442413333333334,-0.02395866666666667,-0.094962,13.5,False
2.399017572402954,-0.35772697870000003,0.23748764304999997,9.88534836625,-0.9800000000000001,-0.35000000000000003,0.39375000000000004,-0.34392836837333335,0.22604197494666664,9.846764101824999,-1.2643750000000005,-0.4526666666666666,0.4039583333333335,0.3443253333333333,-0.023949333333333336,-0.09478933333333335,13.5,False
2.433029890060425,-0.35413774480000004,0.20398812665,9.8763752815,-1.5137500000000002,-0.49000000000000005,0.43750000000000006,-0.3443869927049999,0.22574287212166666,9.848319436515,-1.2713750000000004,-0.45354166666666657,0.4004583333333335,0.34440933333333335,-0.02403333333333334,-0.09499466666666669,13.5,False
2.4546988010406494,-0.3529413335,0.23270199784999998,9.816554716499999,-1.4175000000000002,-0.36750000000000005,0.42875,-0.34466615534166656,0.22632113758333328,9.849874771204998,-1.2611666666666668,-0.4608333333333333,0.40220833333333345,0.34449333333333326,-0.024117333333333338,-0.09499466666666669,13.5,False
2.4746146202087402,-0.33020951879999993,0.2141576227,9.889535805799998,-1.3562500000000002,-0.42875,0.4025,-0.34494531797833333,0.22564317117999994,9.849316445931665,-1.2570833333333336,-0.46695833333333336,0.40483333333333343,0.34462399999999993,-0.024164000000000005,-0.09507400000000002,13.5,False
2.493844985961914,-0.3391826035499999,0.21355941705,9.85304526115,-1.2425000000000002,-0.4025,0.4025,-0.3457429255116666,0.22458634119833326,9.849196804801664,-1.2634999999999998,-0.47016666666666673,0.40716666666666673,0.34463333333333324,-0.02414533333333334,-0.09464933333333335,13.5,False
2.511356830596924,-0.3529413335,0.24047867129999997,9.863812962849998,-1.1462500000000002,-0.42875,0.49875,-0.34530424136833326,0.22464616176333327,9.848658419716664,-1.2436666666666667,-0.45937500000000003,0.4127083333333334,0.3447546666666666,-0.024201333333333342,-0.09467266666666667,13.5,False
2.5330238342285156,-0.33738798659999997,0.22791635265,9.8380901199,-1.0762500000000002,-0.34125000000000005,0.42000000000000004,-0.34444681327,0.2232304083916666,9.850253634783334,-1.2535833333333335,-0.4628750000000001,0.40162500000000007,0.3446986666666666,-0.02434133333333334,-0.09485000000000002,13.5,False
2.546757936477661,-0.35832518435,0.21595223965000002,9.81834933345,-1.2862500000000001,-0.4025,0.42000000000000004,-0.3434498038533334,0.22327028876833327,9.851111062881667,-1.2334583333333333,-0.4643333333333334,0.4019166666666667,0.3446426666666666,-0.02448133333333334,-0.09485000000000002,13.5,False
2.559027910232544,-0.35234312785,0.23569302609999998,9.830313446449999,-1.5750000000000002,-0.41125000000000006,0.385,-0.3439682487500001,0.22402801592499996,9.852347354558333,-1.2427916666666667,-0.46841666666666665,0.4007500000000001,0.3445586666666666,-0.024341333333333336,-0.09478933333333335,13.5,False
2.5715138912200928,-0.3152543775499999,0.2524427843,9.890732217099998,-1.39125,-0.48125000000000007,0.42875,-0.34432717214,0.22376879347666664,9.853464005105,-1.2439583333333337,-0.46637500000000004,0.4007500000000001,0.3444746666666666,-0.02420133333333334,-0.09478933333333335,13.5,False
2.584030866622925,-0.3278166962,0.2117648001,9.894321451,-1.16375,-0.46375000000000005,0.44625000000000004,-0.3457229853233333,0.22215363822166662,9.853543765858335,-1.2623333333333333,-0.4719166666666667,0.4042500000000001,0.3446519999999999,-0.024341333333333333,-0.09491066666666667,13.5,False
2.5963199138641357,-0.3505485109,0.21714865095,9.8572327007,-1.1375000000000002,-0.5162500000000001,0.49875,-0.34530424136833326,0.2223729802933333,9.853344363975001,-1.2632083333333335,-0.4690000000000001,0.40950000000000014,0.3448293333333333,-0.024481333333333334,-0.09491066666666667,13.5,False
2.608538866043091,-0.3397808092,0.20578274359999998,9.8799645154,-1.2512500000000002,-0.43750000000000006,0.37625000000000003,-0.3453640619333333,0.22315064763833328,9.85352382567,-1.2742916666666668,-0.47016666666666673,0.41241666666666676,0.3447266666666666,-0.024602666666666665,-0.094654,13.5,False
2.620781660079956,-0.3565305674,0.19202401365,9.878768104099999,-1.2862500000000001,-0.5950000000000001,0.43750000000000006,-0.3465006526683333,0.222951245755,9.854281552826668,-1.2833333333333337,-0.47016666666666673,0.40716666666666673,0.34462399999999993,-0.024724,-0.094654,13.5,False
2.6329848766326904,-0.34755748264999997,0.22193429615000002,9.886544777549998,-1.0237500000000002,-0.34125000000000005,0.42000000000000004,-0.3466003536099999,0.22269202330666665,9.853942569625001,-1.276916666666667,-0.47454166666666675,0.4045416666666668,0.3444093333333333,-0.02504133333333333,-0.094836,13.5,False
2.6452810764312744,-0.33798619224999993,0.20937197749999997,9.87697348715,-0.9975,-0.37625000000000003,0.31500000000000006,-0.34578280588833316,0.221994116715,9.853882749060002,-1.2731250000000003,-0.4762916666666668,0.4074583333333334,0.34419466666666665,-0.025358666666666665,-0.094836,13.5,False
2.6576108932495117,-0.32422746229999994,0.21894326790000002,9.85902731765,-1.2775,-0.44625000000000004,0.42000000000000004,-0.34526436099166663,0.22321046820333332,9.85350388548167,-1.2527083333333335,-0.47979166666666667,0.4077500000000001,0.3441759999999999,-0.02524666666666667,-0.09506,13.5,False
2.6699378490448,-0.3332005470499999,0.2620140747,9.869196813699999,-0.9800000000000001,-0.41125000000000006,0.32375000000000004,-0.3458426264533333,0.22287148500166667,9.855477964126669,-1.241625,-0.4771666666666667,0.41445833333333343,0.34415733333333326,-0.025134666666666673,-0.09506,13.5,False
2.6823229789733887,-0.36789647475,0.23868405434999998,9.851848849849999,-1.0675000000000001,-0.42875,0.39375000000000004,-0.34566316475833336,0.22241286067,9.85655473429667,-1.2454166666666668,-0.47833333333333333,0.41766666666666674,0.3439426666666666,-0.02519066666666667,-0.09487333333333334,13.5,False
2.6945626735687256,-0.32841490184999994,0.22552353004999998,9.8991070962,-1.1812500000000001,-0.47250000000000003,0.36750000000000005,-0.34472597590666665,0.22141585125333335,9.857491923148332,-1.251541666666667,-0.4859166666666667,0.41591666666666677,0.3437279999999999,-0.02524666666666667,-0.09487333333333334,13.5,False
2.706873893737793,-0.35593236175,0.19441683624999997,9.878169898449999,-1.32125,-0.28,0.47250000000000003,-0.34500513854333337,0.22113668861666666,9.857671384843334,-1.2635,-0.48125000000000007,0.4132916666666667,0.3438213333333333,-0.025405333333333335,-0.09463533333333335,13.5,False
2.719061851501465,-0.3613162126,0.24705893344999996,9.878169898449999,-1.1812500000000001,-0.45500000000000007,0.41125000000000006,-0.34552358344,0.2217747746433333,9.857791025973334,-1.2419166666666668,-0.4818333333333334,0.4135833333333334,0.3439146666666666,-0.025564000000000007,-0.09463533333333335,13.5,False
2.7312088012695312,-0.346959277,0.24466611084999998,9.91286582615,-1.4000000000000001,-0.5425000000000001,0.5950000000000001,-0.3457828058883334,0.22257238217666667,9.856794016556668,-1.2369583333333336,-0.4754166666666667,0.41212499999999996,0.34355066666666656,-0.025769333333333335,-0.09482666666666667,13.5,False
2.743485927581787,-0.346959277,0.21954147355,9.88175913235,-1.0237500000000002,-0.35875,0.35875,-0.3451846002383333,0.2229911261316667,9.856833896933333,-1.2439583333333333,-0.4722083333333334,0.413,0.3434386666666666,-0.025890666666666673,-0.09482666666666667,13.5,False
2.7557129859924316,-0.33619157529999993,0.24107687694999996,9.858429112,-1.1025,-0.385,0.58625,-0.344865557225,0.22384855423,9.858050248421668,-1.2614583333333333,-0.47483333333333344,0.4194166666666667,0.3434386666666666,-0.02596533333333334,-0.09482666666666667,13.5,False
2.7678959369659424,-0.31465617189999995,0.19381863059999999,9.865607579799999,-1.1287500000000001,-0.2625,0.29750000000000004,-0.34538400212166664,0.22504496553,9.857252640888333,-1.2602916666666666,-0.4774583333333334,0.41329166666666667,0.34341066666666653,-0.026180000000000005,-0.09477066666666668,13.5,False
2.780646800994873,-0.34037901484999994,0.22612173569999997,9.8799645154,-1.1987500000000002,-0.5075000000000001,0.2625,-0.3442872917633333,0.22526430760166666,9.858010368045,-1.2687499999999998,-0.47541666666666677,0.41183333333333333,0.34307466666666653,-0.026460000000000004,-0.09477066666666668,13.5,False
2.792783737182617,-0.36849468039999994,0.24646072779999997,9.8620183459,-1.4700000000000002,-0.42000000000000004,0.37625000000000003,-0.34436705251666666,0.22596221419333334,9.859366300851665,-1.2503749999999998,-0.4751250000000002,0.41270833333333334,0.3426826666666665,-0.02670266666666667,-0.09495733333333334,13.5,False
2.804940938949585,-0.3696910917,0.21834506225,9.83629550295,-1.5312500000000002,-0.6737500000000001,0.36750000000000005,-0.3444667534583333,0.22626131701833332,9.860183848573332,-1.271958333333333,-0.4780416666666668,0.4089166666666666,0.34258933333333313,-0.026796,-0.09495733333333334,13.5,False
2.8202078342437744,-0.346959277,0.2177468566,9.8680004024,-1.33875,-0.36750000000000005,0.24500000000000002,-0.3450250787316666,0.22588245344000002,9.859884745748332,-1.2745833333333332,-0.47133333333333344,0.40366666666666656,0.34271999999999986,-0.026712000000000007,-0.094752,13.5,False
2.832504987716675,-0.3332005470499999,0.22851455829999998,9.829715240799999,-1.2337500000000001,-0.43750000000000006,0.385,-0.34562328438166656,0.226779761915,9.859725224241666,-1.2774999999999999,-0.46345833333333336,0.4022083333333333,0.3426826666666666,-0.02680533333333334,-0.094752,13.5,False
2.844748020172119,-0.33200413574999993,0.20638094924999997,9.855438083749998,-1.2512500000000002,-0.44625000000000004,0.31500000000000006,-0.34542388249833333,0.22729820681166663,9.859386241039998,-1.2570833333333333,-0.46433333333333343,0.40541666666666665,0.3424399999999999,-0.02688933333333334,-0.09477533333333335,13.5,False
2.8569839000701904,-0.31645078885,0.26141586904999997,9.878169898449999,-1.3475000000000001,-0.5775,0.22750000000000004,-0.34496525816666673,0.22574287212166666,9.859406181228332,-1.2579583333333337,-0.4561666666666667,0.403375,0.34219733333333324,-0.026973333333333342,-0.09477533333333335,13.5,False
2.869274854660034,-0.34815568830000004,0.20997018315,9.839286531199999,-1.49625,-0.39375000000000004,0.49875,-0.34508489929666664,0.22656041984333336,9.860143968196665,-1.2620416666666672,-0.45500000000000007,0.4013333333333334,0.3421133333333333,-0.02699200000000001,-0.09459333333333333,13.5,False
2.8814451694488525,-0.35114671655,0.21595223965000002,9.7950193131,-1.2512500000000002,-0.6125,0.3325,-0.34438699270499995,0.22799611340333337,9.861160917801667,-1.256791666666667,-0.4541250000000001,0.4016250000000001,0.3421506666666667,-0.027076000000000006,-0.09459333333333333,13.5,False
2.89383602142334,-0.33798619224999993,0.22073788485,9.869795019349999,-1.225,-0.43750000000000006,0.35000000000000003,-0.34558340400499993,0.22877378074833338,9.861699302886668,-1.2585416666666671,-0.45500000000000007,0.3981250000000001,0.3420293333333334,-0.027169333333333337,-0.09472866666666667,13.5,False
2.906177043914795,-0.36789647475,0.20997018315,9.8452685877,-1.1375000000000002,-0.46375000000000005,0.36750000000000005,-0.3453241815566666,0.22945174715166666,9.860662413093335,-1.2413333333333334,-0.45441666666666675,0.40308333333333335,0.3420853333333334,-0.027178666666666674,-0.09472866666666667,13.5,False
2.918412923812866,-0.3565305674,0.23030917524999997,9.850652438549998,-1.5837500000000002,-0.49875,0.385,-0.34570304513499994,0.22927228545666667,9.861380259873334,-1.2620416666666663,-0.45150000000000007,0.406,0.34218800000000005,-0.02719733333333334,-0.09473333333333334,13.5,False
2.930624008178711,-0.34097722049999996,0.2177468566,9.858429112,-1.1812500000000001,-0.5950000000000001,0.41125000000000006,-0.34570304513499994,0.228694019995,9.860323429891666,-1.241625,-0.4418750000000001,0.4010416666666667,0.34239333333333344,-0.027514666666666673,-0.09473333333333334,13.5,False
2.943057060241699,-0.3505485109,0.21894326790000002,9.8440721764,-1.3562500000000002,-0.37625000000000003,0.34125000000000005,-0.3453441217449999,0.229052943385,9.861320439308333,-1.2436666666666667,-0.4412916666666667,0.399,0.3422533333333334,-0.02803733333333334,-0.09479866666666667,13.5,False
2.9552481174468994,-0.3212364340499999,0.20817556619999997,9.848259615949999,-1.5137500000000002,-0.5075000000000001,0.28,-0.3447857964716666,0.2293321060216667,9.86225762816,-1.2497916666666669,-0.4439166666666667,0.3955000000000001,0.342048,-0.02840133333333334,-0.09479866666666667,13.5,False
2.967594861984253,-0.34875389395,0.24945175605,9.848259615949999,-1.1287500000000001,-0.4025,0.4025,-0.34466615534166667,0.22859431905333336,9.864191826428334,-1.2465833333333334,-0.44187500000000013,0.39287500000000003,0.3421133333333333,-0.028700000000000007,-0.09422466666666666,13.5,False
2.979882001876831,-0.35174492220000003,0.22671994134999998,9.848259615949999,-1.09375,-0.37625000000000003,0.45500000000000007,-0.3453042413683332,0.22773689095500002,9.864052245109999,-1.251541666666667,-0.44683333333333336,0.38704166666666673,0.34224399999999994,-0.029017333333333336,-0.09422466666666666,13.5,False
2.9923250675201416,-0.3565305674,0.21954147355,9.884750160599998,-1.3037500000000002,-0.30625,0.34125000000000005,-0.34470603571833325,0.22877378074833335,9.864231706804999,-1.2518333333333334,-0.45150000000000007,0.3885,0.342272,-0.029073333333333336,-0.09477066666666668,13.5,False
3.004621982574463,-0.36490544649999995,0.22971096959999998,9.877571692799998,-1.33875,-0.42000000000000004,0.42000000000000004,-0.34548370306333326,0.22903300319666672,9.865109075091665,-1.2442499999999999,-0.4482916666666667,0.387625,0.342272,-0.029064,-0.09477066666666668,13.5,False
3.016848087310791,-0.34456645439999994,0.22432711874999997,9.8560362894,-0.8225000000000001,-0.5162500000000001,0.47250000000000003,-0.3463810115383332,0.2291925247033334,9.866943572418332,-1.2518333333333334,-0.445375,0.3812083333333333,0.34242133333333336,-0.02912,-0.09456533333333335,13.5,False
3.0291030406951904,-0.34636107135,0.23030917524999997,9.8572327007,-1.05875,-0.63875,0.35000000000000003,-0.3464009517266666,0.2287339003716667,9.867023333171664,-1.2602916666666668,-0.43487500000000007,0.38295833333333335,0.34258933333333336,-0.02946533333333333,-0.09456533333333335,13.5,False
3.0413320064544678,-0.35114671655,0.23150558654999998,9.829715240799999,-1.1025,-0.37625000000000003,0.43750000000000006,-0.3463411311616666,0.22851455830000006,9.865647460176664,-1.2640833333333332,-0.4351666666666667,0.3809166666666667,0.3427293333333334,-0.029866666666666663,-0.09464466666666668,13.5,False
3.0536460876464844,-0.346959277,0.22612173569999997,9.870393224999999,-1.3475000000000001,-0.41125000000000006,0.27125000000000005,-0.346061968525,0.2278365918966667,9.865049254526664,-1.2667083333333333,-0.43779166666666675,0.3750833333333334,0.3428786666666667,-0.03013733333333333,-0.09464466666666668,13.5,False
3.0659189224243164,-0.3278166962,0.23449661479999998,9.87218784195,-1.12,-0.5337500000000001,0.29750000000000004,-0.34610184890166656,0.22799611340333334,9.864969493773332,-1.2629166666666667,-0.4348750000000001,0.3698333333333334,0.3430280000000001,-0.030407999999999994,-0.09464466666666668,13.5,False
3.078110933303833,-0.34456645439999994,0.23389840915,9.870991430649998,-1.05,-0.56,0.41125000000000006,-0.3460220881483333,0.228574378865,9.865547759234998,-1.243375,-0.43662500000000015,0.3663333333333334,0.3434293333333335,-0.030417333333333327,-0.09476133333333334,14.5,False
3.0903899669647217,-0.33678978094999995,0.24825534474999997,9.873384253249998,-1.32125,-0.385,0.44625000000000004,-0.34610184890166656,0.22845473773500002,9.865527819046664,-1.2500833333333332,-0.4410000000000001,0.37012500000000004,0.34383066666666673,-0.030426666666666657,-0.09476133333333334,13.5,False
3.102668046951294,-0.3391826035499999,0.2141576227,9.8739824589,-1.2775,-0.32375000000000004,0.4025,-0.3464208919149999,0.22843479754666668,9.864989433961663,-1.2629166666666667,-0.44887500000000014,0.36983333333333335,0.3441293333333334,-0.030389333333333324,-0.094724,13.5,False
3.1147921085357666,-0.3553341561,0.23688943739999999,9.87218784195,-1.3125000000000002,-0.56,0.2625,-0.34675987511666667,0.22849461811166666,9.86239720947833,-1.2547500000000005,-0.44945833333333346,0.3677916666666667,0.3441760000000001,-0.030435999999999987,-0.094724,13.5,False
3.127526044845581,-0.33619157529999993,0.21296121140000002,9.887142983199999,-1.33875,-0.44625000000000004,0.5950000000000001,-0.3463411311616666,0.22741784794166667,9.86347397964833,-1.2445416666666669,-0.44800000000000006,0.361375,0.34424133333333345,-0.03023066666666666,-0.09472866666666667,13.5,False
3.139780044555664,-0.3565305674,0.22731814699999997,9.844670382049998,-0.9100000000000001,-0.56,0.42875,-0.3461417292783333,0.22695922361,9.864032304921665,-1.2328750000000002,-0.44537500000000013,0.3672083333333333,0.34433466666666673,-0.02988533333333333,-0.09472866666666667,13.5,False
3.1520180702209473,-0.32901310749999996,0.22313070744999997,9.9170532657,-1.33875,-0.5337500000000001,0.46375000000000005,-0.34687951624666663,0.22658036003166665,9.865029314338331,-1.2340416666666667,-0.45995833333333347,0.36925,0.344568,-0.02946533333333333,-0.09455600000000002,13.5,False
3.1644132137298584,-0.32841490184999994,0.20458633229999998,9.88534836625,-1.33875,-0.63875,0.35875,-0.3469193966233333,0.22626131701833332,9.865348357351666,-1.2433750000000001,-0.45645833333333335,0.36691666666666667,0.34485733333333335,-0.02908266666666666,-0.09455600000000002,13.5,False
3.176501989364624,-0.3439682487499999,0.24287149389999999,9.850652438549998,-1.37375,-0.49000000000000005,0.55125,-0.34650065266833335,0.22572293193333332,9.867561718256663,-1.2346250000000003,-0.4500416666666667,0.3657500000000001,0.3449133333333333,-0.02888666666666666,-0.094612,13.5,False
3.188746929168701,-0.34516466005,0.24765713909999998,9.844670382049998,-1.5662500000000001,-0.43750000000000006,0.42000000000000004,-0.3460819087133333,0.225344068355,9.867362316373333,-1.2267500000000002,-0.4535416666666667,0.36895833333333344,0.34474533333333324,-0.028867999999999998,-0.094612,13.5,False
3.200875997543335,-0.35353953914999997,0.23808584869999996,9.88175913235,-1.54875,-0.49000000000000005,0.44625000000000004,-0.34566316475833336,0.22516460665999996,9.867382256561665,-1.2188750000000002,-0.46375000000000005,0.3657500000000001,0.3446613333333332,-0.028774666666666667,-0.09448600000000001,13.5,False
3.216456174850464,-0.35114671655,0.23988046564999999,9.878768104099999,-1.5925000000000002,-0.42000000000000004,0.4025,-0.346181609655,0.22432711875000003,9.866305486391665,-1.2334583333333335,-0.4640416666666667,0.3704166666666667,0.3447079999999999,-0.028578666666666662,-0.09448600000000001,13.5,False
3.2286581993103027,-0.34097722049999996,0.22552353004999998,9.882357337999998,-1.1462500000000002,-0.42000000000000004,0.32375000000000004,-0.34588250682999994,0.22462622157499998,9.864989433961666,-1.254458333333333,-0.46433333333333343,0.37158333333333343,0.34474533333333324,-0.02831733333333333,-0.09505533333333334,13.5,False
3.2408900260925293,-0.34337004309999997,0.22492532440000002,9.88175913235,-1.5225000000000002,-0.42000000000000004,0.42875,-0.3465604732333334,0.2242274178083333,9.864211766616666,-1.2620416666666665,-0.462,0.3701250000000001,0.3446613333333333,-0.02813066666666667,-0.09505533333333334,13.5,False
3.2531051635742188,-0.33858439789999994,0.23988046564999999,9.85424167245,-1.11125,-0.37625000000000003,0.4025,-0.34703903775333333,0.22406789630166662,9.865248656410001,-1.2635,-0.4634583333333333,0.3698333333333334,0.344736,-0.028093333333333335,-0.09477533333333335,13.5,False
3.2654531002044678,-0.34516466005,0.23808584869999996,9.88175913235,-1.49625,-0.49875,0.385,-0.3470988583183333,0.2237887336649999,9.865986443378334,-1.2576666666666667,-0.4585,0.37362500000000015,0.34481066666666665,-0.027888000000000003,-0.09477533333333335,13.5,False
3.277829170227051,-0.3355933696499999,0.21894326790000002,9.8727860476,-1.1462500000000002,-0.27125000000000005,0.34125000000000005,-0.34683963587,0.22354945140499993,9.866943572418334,-1.2527083333333335,-0.4509166666666667,0.3765416666666667,0.3449506666666666,-0.027776000000000002,-0.09479866666666667,13.5,False
3.29019832611084,-0.31944181709999997,0.23330020349999997,9.894321451,-1.1900000000000002,-0.28,0.55125,-0.3472783200133333,0.22352951121666667,9.86644506771,-1.251541666666667,-0.45412500000000006,0.37625,0.3450439999999999,-0.027654666666666668,-0.09479866666666667,13.5,False
3.3025922775268555,-0.36909288605,0.22851455829999998,9.82911703515,-1.2425000000000002,-0.5425000000000001,0.35000000000000003,-0.3473979611433334,0.223310169145,9.867162914489999,-1.2626250000000003,-0.45733333333333337,0.3797499999999999,0.34484799999999993,-0.02754266666666667,-0.09474266666666667,13.5,False
3.3148481845855713,-0.33858439789999994,0.23629123174999997,9.84108114815,-1.3037500000000002,-0.47250000000000003,0.36750000000000005,-0.3471586788833333,0.2234696906516667,9.865906682624999,-1.2579583333333337,-0.4608333333333333,0.3823749999999999,0.3449973333333333,-0.027225333333333337,-0.09474266666666667,13.5,False
3.327065944671631,-0.35114671655,0.21894326790000002,9.8249295956,-1.4087500000000002,-0.49000000000000005,0.27125000000000005,-0.346779815305,0.22432711874999994,9.864630510571667,-1.240166666666667,-0.4515,0.38325,0.34528666666666663,-0.026758666666666674,-0.09491066666666667,14.5,False
3.3394672870635986,-0.35234312785,0.24227328824999997,9.84945602725,-1.1462500000000002,-0.41125000000000006,0.27125000000000005,-0.34685957605833334,0.22496520477666662,9.865109075091665,-1.2448333333333337,-0.4570416666666667,0.38529166666666664,0.34530533333333335,-0.02635733333333334,-0.09491066666666667,14.5,False
3.3517463207244873,-0.3236292566499999,0.21714865095,9.8763752815,-1.54875,-0.41125000000000006,0.35875,-0.34622149003166663,0.225224427225,9.865348357351667,-1.234916666666667,-0.45150000000000007,0.3890833333333334,0.3452026666666667,-0.02615200000000001,-0.09436933333333333,14.5,False
3.3641629219055176,-0.3439682487499999,0.24466611084999998,9.8620183459,-1.2950000000000002,-0.5687500000000001,0.3325,-0.34630125078500007,0.22420747761999993,9.866086144319999,-1.2273333333333336,-0.45295833333333335,0.384125,0.3452026666666667,-0.026208000000000006,-0.09436933333333333,14.5,False
3.376450300216675,-0.36610185780000004,0.2596212521,9.88415195495,-1.3037500000000002,-0.37625000000000003,0.44625000000000004,-0.34596226758333337,0.2239283149833333,9.865188835844998,-1.238416666666667,-0.448875,0.3858749999999999,0.34527733333333344,-0.026236000000000006,-0.09486866666666667,13.5,False
3.3886990547180176,-0.34875389395,0.2177468566,9.882357337999998,-1.4175000000000002,-0.35000000000000003,0.28875,-0.34155548596166674,0.22422741780833327,9.864750151701665,-1.2413333333333336,-0.45295833333333335,0.39345833333333335,0.3452026666666667,-0.026198666666666672,-0.09486866666666667,13.5,False
3.4008381366729736,-0.34516466005,0.21236300575,9.88774118885,-0.9362500000000001,-0.5775,0.44625000000000004,-0.34239297387166673,0.22410777667833326,9.865926622813333,-1.234041666666667,-0.45208333333333334,0.39200000000000007,0.34512800000000005,-0.02616133333333334,-0.09606333333333335,13.5,False
3.4129581451416016,-0.34217363179999993,0.23688943739999999,9.8608219346,-1.4175000000000002,-0.5337500000000001,0.30625,-0.3422135121766666,0.22492532439999996,9.866963512606667,-1.2369583333333334,-0.455,0.3899583333333333,0.3450626666666667,-0.025965333333333337,-0.095102,13.5,False
3.4250621795654297,-0.34456645439999994,0.23808584869999996,9.841679353799998,-1.05,-0.42000000000000004,0.36750000000000005,-0.342353093495,0.22580269268666664,9.867302495808332,-1.2387083333333337,-0.46112500000000006,0.38820833333333327,0.3449973333333334,-0.02576933333333333,-0.095102,13.5,False
3.4372739791870117,-0.31405796625,0.24167508259999998,9.848259615949999,-1.4000000000000001,-0.385,0.28,-0.34265219632000005,0.22594227400499997,9.867462017314999,-1.234916666666667,-0.4631666666666667,0.3899583333333333,0.3449133333333334,-0.025647999999999997,-0.09472866666666667,13.5,False
3.449470043182373,-0.36011980130000004,0.20997018315,9.865607579799999,-1.5137500000000002,-0.31500000000000006,0.37625000000000003,-0.34223345236499997,0.22648065908999998,9.866784050911665,-1.246875,-0.4622916666666668,0.39170833333333327,0.34480133333333335,-0.025563999999999993,-0.09472866666666667,13.5,False
3.4618022441864014,-0.34815568830000004,0.23330020349999997,9.860223728949999,-1.39125,-0.5337500000000001,0.4025,-0.3416751270916666,0.22666012078499997,9.868738189368331,-1.2553333333333334,-0.4643333333333335,0.3864583333333333,0.34482000000000007,-0.025386666666666665,-0.09467266666666667,13.5,False
3.4813132286071777,-0.33020951879999993,0.22013967919999997,9.85902731765,-1.5225000000000002,-0.49000000000000005,0.32375000000000004,-0.34125638313666656,0.22610179551166665,9.870453045564997,-1.2570833333333336,-0.4678333333333335,0.38149999999999995,0.34468000000000004,-0.025311999999999998,-0.094766,14.5,False
3.493575096130371,-0.35413774480000004,0.21236300575,9.851250644199999,-1.7587500000000003,-0.5075000000000001,0.45500000000000007,-0.3409173999349999,0.22562323099166667,9.87256670552833,-1.2731249999999998,-0.4716250000000002,0.38237499999999996,0.34454,-0.02523733333333333,-0.094766,13.5,False
3.505864143371582,-0.34277183744999995,0.23449661479999998,9.88774118885,-1.33875,-0.5425000000000001,0.42875,-0.34111680181833326,0.2261217357,9.872287542891666,-1.2772083333333333,-0.4783333333333335,0.3777083333333333,0.3445026666666667,-0.025255999999999997,-0.09447200000000001,13.5,False
3.5181453227996826,-0.3505485109,0.23748764304999997,9.88415195495,-0.7000000000000001,-0.08750000000000001,0.48125000000000007,-0.3415355457733333,0.22568305155666665,9.871430114793334,-1.2950000000000004,-0.4786250000000002,0.37245833333333334,0.3444653333333333,-0.025274666666666664,-0.09447200000000001,13.5,False
3.530421257019043,-0.3493520996,0.22313070744999997,9.8500542329,-1.2425000000000002,-0.5950000000000001,0.35000000000000003,-0.34239297387166656,0.22693928342166667,9.870732208201668,-1.290625,-0.46725000000000017,0.37100000000000005,0.34430666666666665,-0.025610666666666664,-0.09434133333333335,13.5,False
3.54278826713562,-0.30687949845,0.23030917524999997,9.842875765099999,-1.2337500000000001,-0.805,0.4025,-0.34159536633833326,0.22791635265,9.869914660480001,-1.2827500000000003,-0.4622916666666668,0.37391666666666673,0.344148,-0.025946666666666663,-0.09434133333333335,13.5,False
3.56565523147583,-0.36610185780000004,0.19441683624999997,9.91884788265,-1.5137500000000002,-0.45500000000000007,0.30625,-0.3416153065266666,0.22795623302666665,9.868658428615001,-1.2702083333333336,-0.46725000000000005,0.36837500000000006,0.3442506666666667,-0.026049333333333327,-0.09489666666666667,13.5,False
3.589820146560669,-0.34995030525,0.21954147355,9.9026963301,-1.435,-0.4025,0.44625000000000004,-0.34169506728,0.22849461811166663,9.869356335206668,-1.2629166666666667,-0.4596666666666667,0.3721666666666667,0.34441866666666676,-0.026077333333333327,-0.09483133333333334,13.5,False
3.6131622791290283,-0.3529413335,0.22971096959999998,9.852447055499999,-1.11125,-0.48125000000000007,0.35875,-0.34135608407833334,0.22877378074833327,9.868997411816668,-1.253291666666667,-0.44770833333333343,0.37479166666666675,0.3445680000000001,-0.026319999999999993,-0.09500866666666667,14.5,False
3.6375350952148438,-0.33619157529999993,0.22073788485,9.888339394499999,-1.1725,-0.55125,0.23625000000000002,-0.34157542615,0.22915264432666663,9.869894720291667,-1.251541666666667,-0.4439166666666666,0.3689583333333334,0.3445026666666668,-0.02625466666666666,-0.09467733333333334,13.5,False
3.6567492485046387,-0.33619157529999993,0.21475582835,9.862616551549998,-1.5575,-0.5075000000000001,0.25375000000000003,-0.34313076084000005,0.22921246489166663,9.871131011968336,-1.2500833333333334,-0.44712499999999994,0.37450000000000006,0.3444466666666667,-0.026254666666666662,-0.09467733333333334,13.5,False
3.6852543354034424,-0.3337987527,0.22851455829999998,9.87218784195,-1.4612500000000002,-0.5425000000000001,0.3325,-0.34247273462499994,0.22989043129499998,9.871430114793334,-1.2430833333333335,-0.4474166666666665,0.37945833333333334,0.34450266666666673,-0.026469333333333334,-0.09470533333333335,13.5,False
3.697601318359375,-0.35353953914999997,0.22971096959999998,9.88175913235,-1.3037500000000002,-0.49875,0.41125000000000006,-0.34271201688499997,0.22987049110666663,9.871729217618334,-1.2404583333333334,-0.4377916666666665,0.3829583333333334,0.34426,-0.026478666666666668,-0.09464933333333335,13.5,False
3.7098402976989746,-0.36849468039999994,0.22911276394999996,9.86500937415,-1.54875,-0.4025,0.3325,-0.341754887845,0.22875384055999995,9.871370294228335,-1.2538750000000003,-0.4444999999999999,0.3844166666666667,0.3440173333333333,-0.026488,-0.09464933333333335,14.5,False
3.7224531173706055,-0.3720839143,0.22073788485,9.852447055499999,-1.3125000000000002,-0.6825000000000001,0.35875,-0.34209387104666666,0.22893330225499994,9.870612567071666,-1.2804166666666668,-0.44858333333333333,0.38412500000000005,0.3437933333333333,-0.026469333333333334,-0.09485466666666668,14.5,False
3.7346153259277344,-0.33020951879999993,0.20997018315,9.85902731765,-1.1287500000000001,-0.44625000000000004,0.525,-0.34081769899333325,0.2287139601833333,9.870871789519999,-1.2687500000000003,-0.4444999999999999,0.382375,0.34356933333333334,-0.026450666666666667,-0.09485466666666668,14.5,False
3.746777296066284,-0.33798619224999993,0.23509482044999996,9.869795019349999,-1.12,-0.32375000000000004,0.35875,-0.34083763918166665,0.22923240507999998,9.869834899726666,-1.2562083333333334,-0.4369166666666666,0.3800416666666667,0.34365333333333337,-0.026497333333333335,-0.09499466666666669,13.5,False
3.758859157562256,-0.3218346397,0.23389840915,9.89491965665,-1.0675000000000001,-0.5337500000000001,0.45500000000000007,-0.3405983569216667,0.228454737735,9.87047298575333,-1.2559166666666668,-0.43195833333333333,0.37654166666666666,0.34373733333333334,-0.02654400000000001,-0.09499466666666669,13.5,False
3.771005392074585,-0.3696910917,0.23389840915,9.850652438549998,-0.9887500000000001,-0.28875,0.46375000000000005,-0.3407578784283334,0.22741784794166664,9.872227722326665,-1.2594166666666669,-0.4331249999999999,0.3768333333333333,0.34351333333333334,-0.02674933333333334,-0.094668,13.5,False
3.783114194869995,-0.33858439789999994,0.19202401365,9.873384253249998,-1.05,-0.24500000000000002,0.2625,-0.3415355457733334,0.22628125720666664,9.870453045564998,-1.255916666666667,-0.4299166666666666,0.3774166666666667,0.3432893333333333,-0.026954666666666672,-0.094668,13.5,False
3.7952053546905518,-0.36011980130000004,0.1950150419,9.85902731765,-1.4087500000000002,-0.48125000000000007,0.42000000000000004,-0.3412563831366666,0.22638095814833334,9.871210772721664,-1.2492083333333335,-0.43516666666666676,0.3712916666666667,0.34341066666666664,-0.026880000000000005,-0.094654,14.5,False
3.8075952529907227,-0.3565305674,0.20877377184999998,9.8572327007,-1.5575,-0.44625000000000004,0.42875,-0.3408176989933333,0.22715862549333335,9.871190832533332,-1.2474583333333338,-0.4369166666666668,0.3686666666666667,0.343532,-0.026805333333333334,-0.094654,14.5,False
3.8198442459106445,-0.33858439789999994,0.22073788485,9.8859465719,-1.1375000000000002,-0.39375000000000004,0.4025,-0.3407379382399999,0.22753748907166665,9.872925628918331,-1.2378333333333338,-0.4433333333333334,0.3672083333333334,0.3433266666666667,-0.026674666666666666,-0.09457000000000002,14.5,False
3.8321034908294678,-0.36909288605,0.24406790519999996,9.88893760015,-1.2950000000000002,-0.45500000000000007,0.41125000000000006,-0.34458639458833334,0.22689940304499998,9.87254676534,-1.220916666666667,-0.4430416666666668,0.3637083333333334,0.3431213333333334,-0.026544,-0.09457000000000002,14.5,False
3.844414472579956,-0.35234312785,0.22073788485,9.883553749299999,-1.4087500000000002,-0.43750000000000006,0.28,-0.34354950479499985,0.2270988049283333,9.872606585905,-1.2250000000000005,-0.44187500000000013,0.3637083333333334,0.343,-0.026403999999999997,-0.09476133333333334,13.5,False
3.8566553592681885,-0.34995030525,0.22313070744999997,9.869196813699999,-1.3562500000000002,-0.5950000000000001,0.27125000000000005,-0.34281171782666653,0.22697916379833327,9.872327423268331,-1.2168333333333339,-0.44450000000000006,0.3645833333333334,0.3428973333333334,-0.026366666666666663,-0.09476133333333334,13.5,False
3.868931293487549,-0.33858439789999994,0.2500499617,9.880562721050001,-0.9887500000000001,-0.49000000000000005,0.35000000000000003,-0.3428515982033332,0.22697916379833327,9.872247662514999,-1.2118750000000003,-0.43895833333333345,0.3672083333333334,0.34262666666666675,-0.02632,-0.09453266666666667,13.5,False
3.8811593055725098,-0.34755748264999997,0.215354034,9.873384253249998,-1.11125,-0.36750000000000005,0.42875,-0.3432105215933332,0.22693928342166664,9.872985449483332,-1.2127500000000002,-0.434875,0.3666250000000001,0.34237466666666677,-0.026198666666666662,-0.09453266666666667,14.5,False
3.8940234184265137,-0.32422746229999994,0.22193429615000002,9.887142983199999,-1.4875,-0.4025,0.42875,-0.3439881889383332,0.22576281230999998,9.873503894379997,-1.2022500000000003,-0.4369166666666667,0.3707083333333335,0.3422626666666667,-0.025956,-0.094542,14.5,False
3.906398296356201,-0.36789647475,0.2069791549,9.84586679335,-1.0762500000000002,-0.5075000000000001,0.5162500000000001,-0.34416765063333327,0.22570299174499997,9.871170892344997,-1.1891250000000002,-0.4275833333333333,0.3715833333333334,0.34202,-0.02580666666666667,-0.094542,13.5,False
3.918637275695801,-0.34456645439999994,0.25543381255,9.873384253249998,-1.155,-0.45500000000000007,0.49000000000000005,-0.34448669364666656,0.2257229319333333,9.869854839914998,-1.1806666666666668,-0.4214583333333332,0.37245833333333334,0.34210399999999996,-0.025713333333333335,-0.09463533333333335,13.5,False
3.9309003353118896,-0.33200413574999993,0.23389840915,9.859625523299998,-1.33,-0.55125,0.27125000000000005,-0.34494531797833333,0.22508484590666664,9.86879800993333,-1.1631666666666665,-0.4127083333333333,0.368375,0.342188,-0.025620000000000007,-0.09463533333333335,14.5,False
3.943141222000122,-0.3218346397,0.22193429615000002,9.84108114815,-1.4875,-0.2625,0.5950000000000001,-0.34574292551166663,0.22496520477666657,9.868518847296665,-1.159083333333333,-0.40920833333333334,0.37566666666666665,0.3422253333333333,-0.025564000000000007,-0.094668,14.5,False
3.955493211746216,-0.3296113131499999,0.20159530404999998,9.8608219346,-1.0150000000000001,-0.35000000000000003,0.36750000000000005,-0.34560334419333333,0.2252643076016666,9.869595617466665,-1.159375,-0.41329166666666667,0.3768333333333333,0.34226266666666666,-0.025508,-0.094668,14.5,False
3.967792272567749,-0.35952159564999997,0.23629123174999997,9.848259615949999,-1.5925000000000002,-0.39375000000000004,0.36750000000000005,-0.34492537779000004,0.22374885328833327,9.870792028766667,-1.154125,-0.4176666666666667,0.37945833333333334,0.3422813333333334,-0.02548,-0.09489666666666667,14.5,False
3.9803693294525146,-0.36251262389999994,0.22013967919999997,9.910473003549999,-0.8750000000000001,-0.41125000000000006,0.35000000000000003,-0.34524442080333334,0.22233309991666664,9.871091131591667,-1.1666666666666667,-0.427875,0.3817916666666667,0.3424120000000001,-0.025452,-0.09489666666666667,14.5,False
3.9927334785461426,-0.32063822839999995,0.23270199784999998,9.8763752815,-0.9012500000000001,-0.60375,0.31500000000000006,-0.34546376287499997,0.22237298029333327,9.871091131591667,-1.172208333333333,-0.42641666666666667,0.38616666666666677,0.3425146666666668,-0.025470666666666673,-0.09489666666666667,13.5,False
4.004932403564453,-0.3505485109,0.22313070744999997,9.8632147572,-1.5137500000000002,-0.58625,0.39375000000000004,-0.34566316475833325,0.2227917242483333,9.870472985753334,-1.1684166666666664,-0.4275833333333333,0.38179166666666675,0.3421133333333334,-0.025302666666666675,-0.09480333333333334,13.5,False
4.017134189605713,-0.3296113131499999,0.21296121140000002,9.844670382049998,-1.1725,-0.36750000000000005,0.29750000000000004,-0.3461417292783332,0.22295124575499997,9.87194855969,-1.1678333333333333,-0.43633333333333335,0.38266666666666677,0.3416466666666667,-0.024994666666666672,-0.09480333333333334,13.5,False
4.029431581497192,-0.35473595045,0.23389840915,9.869795019349999,-1.1987500000000002,-0.41125000000000006,0.44625000000000004,-0.34516466004999985,0.22295124575499997,9.872187841950002,-1.1730833333333335,-0.441,0.3820833333333334,0.3417213333333333,-0.02509733333333334,-0.09456066666666668,14.5,False
4.0416975021362305,-0.37028929735,0.25663022385,9.850652438549998,-1.1900000000000002,-0.43750000000000006,0.2625,-0.3445265740233332,0.222951245755,9.87266640647,-1.1687083333333335,-0.4334166666666667,0.3794583333333334,0.3417960000000001,-0.025200000000000007,-0.09456066666666668,14.5,False
4.0540642738342285,-0.35114671655,0.22552353004999998,9.8560362894,-1.435,-0.5162500000000001,0.29750000000000004,-0.34530424136833326,0.22309082707333336,9.87352383456833,-1.1754166666666668,-0.43574999999999997,0.3745000000000001,0.34187066666666677,-0.02514400000000001,-0.09512533333333334,14.5,False
4.06627345085144,-0.34516466005,0.23629123174999997,9.8919286284,-1.155,-0.5950000000000001,0.29750000000000004,-0.34504501891999995,0.2231107672616667,9.873424133626663,-1.164333333333333,-0.4424583333333334,0.3747916666666667,0.34208533333333335,-0.02514400000000001,-0.09512533333333334,14.5,False
4.081496477127075,-0.3505485109,0.22133609049999997,9.842875765099999,-0.8925000000000001,-0.47250000000000003,0.42000000000000004,-0.34466615534166667,0.22374885328833335,9.872646466281664,-1.1669583333333333,-0.44420833333333337,0.371875,0.34215066666666677,-0.02507866666666668,-0.09474266666666667,13.5,False
4.093798398971558,-0.34755748264999997,0.22492532440000002,9.8608219346,-1.33875,-0.35000000000000003,0.34125000000000005,-0.34422747119833325,0.22396819536000004,9.872865808353332,-1.14975,-0.44362500000000005,0.37479166666666675,0.34213200000000005,-0.02494800000000001,-0.09474266666666667,13.5,False
4.106004476547241,-0.36610185780000004,0.23330020349999997,9.8919286284,-1.6362500000000002,-0.41125000000000006,0.35875,-0.3448256768483333,0.22472592251666673,9.873224731743331,-1.1500416666666666,-0.4436250000000001,0.37741666666666673,0.34200133333333327,-0.024873333333333338,-0.09449066666666668,14.5,False
4.118244409561157,-0.32602207924999993,0.24466611084999998,9.9014999188,-1.4175000000000002,-0.4025,0.39375000000000004,-0.34478579647166663,0.22418753743166675,9.874939587939998,-1.1634583333333335,-0.4494583333333334,0.37829166666666675,0.341852,-0.024724000000000003,-0.09449066666666668,14.5,False
4.130423545837402,-0.36311082955,0.21894326790000002,9.89013401145,-1.7412500000000002,-0.5950000000000001,0.32375000000000004,-0.3445664544,0.22462622157500006,9.875039288881664,-1.1611250000000004,-0.4552916666666667,0.3762500000000001,0.341992,-0.024415999999999997,-0.09470066666666668,14.5,False
4.14269232749939,-0.34456645439999994,0.23210379219999996,9.878169898449999,-1.1900000000000002,-0.31500000000000006,0.39375000000000004,-0.34448669364666673,0.22506490571833337,9.875119049634998,-1.1713333333333336,-0.46054166666666674,0.37100000000000005,0.34229999999999994,-0.02409866666666666,-0.09470066666666668,14.5,False
4.154881477355957,-0.32482566794999995,0.20219350969999997,9.8452685877,-1.5137500000000002,-0.5075000000000001,0.385,-0.3441078300683334,0.2262214366416667,9.87759163298833,-1.1593750000000003,-0.4526666666666667,0.3707083333333333,0.34250533333333333,-0.023883999999999996,-0.09450933333333333,13.5,False
4.167071342468262,-0.34277183744999995,0.21355941705,9.862616551549998,-1.0850000000000002,-0.4025,0.42000000000000004,-0.344028069315,0.22564317118000007,9.877531812423333,-1.1515000000000002,-0.4500416666666667,0.38208333333333333,0.3424866666666667,-0.023753333333333328,-0.09450933333333333,13.5,False
4.1794044971466064,-0.33678978094999995,0.23270199784999998,9.878169898449999,-1.1987500000000002,-0.41125000000000006,0.44625000000000004,-0.34398818893833333,0.22570299174500003,9.876813965643333,-1.15325,-0.44945833333333335,0.3896666666666667,0.34213200000000005,-0.023893333333333325,-0.09463066666666668,14.5,False
4.191596508026123,-0.3415754261499999,0.22013967919999997,9.87577707585,-1.0675000000000001,-0.34125000000000005,0.46375000000000005,-0.3434099234766667,0.22536400854333336,9.875278571141667,-1.1611250000000004,-0.4500416666666667,0.38208333333333333,0.3420293333333334,-0.02411733333333333,-0.09463066666666668,14.5,False
4.204077482223511,-0.34875389395,0.23389840915,9.8572327007,-1.6800000000000002,-0.5337500000000001,0.35875,-0.34390842818500006,0.22560329080333336,9.874301501913333,-1.175125,-0.44683333333333336,0.3835416666666667,0.34206666666666674,-0.02400533333333333,-0.09463533333333335,14.5,False
4.216463565826416,-0.35413774480000004,0.23629123174999997,9.86500937415,-1.21625,-0.37625000000000003,0.42000000000000004,-0.3436691459250001,0.22590239362833336,9.874161920595002,-1.1745416666666666,-0.4488750000000001,0.3855833333333333,0.34202000000000005,-0.023902666666666666,-0.09463533333333335,14.5,False
4.229329347610474,-0.36370903520000003,0.21834506225,9.9110712092,-1.1462500000000002,-0.32375000000000004,0.665,-0.3444667534583334,0.22514466647166667,9.874760126245,-1.1687083333333337,-0.4418750000000001,0.384125,0.3419546666666668,-0.02366933333333333,-0.09448600000000001,14.5,False
4.241595268249512,-0.35114671655,0.20279171534999998,9.88893760015,-1.2862500000000001,-0.6125,0.4025,-0.3445066338350001,0.22522442722500002,9.876255640370001,-1.1692916666666668,-0.44012500000000004,0.387625,0.3420573333333335,-0.023445333333333332,-0.09448600000000001,13.5,False
4.2540123462677,-0.34097722049999996,0.22851455829999998,9.85424167245,-0.6475000000000001,-0.35000000000000003,0.4025,-0.3434697440416666,0.22560329080333336,9.875916657168336,-1.1643333333333337,-0.438375,0.3908333333333333,0.3421133333333335,-0.023361333333333335,-0.09443000000000001,13.5,False
4.266320705413818,-0.33619157529999993,0.23030917524999997,9.92961558435,-0.8662500000000001,-0.32375000000000004,0.4025,-0.34337004309999997,0.225702991745,9.876096118863334,-1.1608333333333336,-0.43691666666666673,0.3908333333333335,0.34202933333333346,-0.02339866666666667,-0.09443000000000001,14.5,False
4.278544664382935,-0.34755748264999997,0.23150558654999998,9.88893760015,-0.9625000000000001,-0.5162500000000001,0.42000000000000004,-0.3438685478083333,0.22600209457,9.877412171293333,-1.1672500000000001,-0.44070833333333337,0.38820833333333354,0.34200133333333343,-0.023296,-0.09457466666666668,13.5,False
4.290791273117065,-0.36311082955,0.21834506225,9.8931250397,-0.9537500000000001,-0.37625000000000003,0.48125000000000007,-0.3438685478083333,0.22568305155666668,9.878688343346665,-1.1634583333333337,-0.4328333333333333,0.3966666666666668,0.34190800000000016,-0.023081333333333336,-0.09457466666666668,14.5,False
4.3030383586883545,-0.38524443859999996,0.22492532440000002,9.87218784195,-1.2862500000000001,-0.41125000000000006,0.27125000000000005,-0.34446675345833333,0.22707886474000002,9.879266608808331,-1.1453750000000005,-0.4302083333333334,0.39695833333333336,0.3418706666666668,-0.023137333333333333,-0.09471933333333335,14.5,False
4.315385580062866,-0.3565305674,0.22671994134999998,9.836893708599998,-1.54,-0.41125000000000006,0.46375000000000005,-0.3438286674316666,0.2279362928383333,9.879047266736666,-1.1372083333333336,-0.4229166666666667,0.3922916666666667,0.3417586666666667,-0.023314666666666664,-0.09471933333333335,14.5,False
4.327712535858154,-0.34456645439999994,0.22492532440000002,9.878768104099999,-1.05,-0.44625000000000004,0.36750000000000005,-0.34209387104666666,0.22785653208499998,9.879765113516664,-1.124666666666667,-0.42145833333333343,0.38995833333333335,0.34164666666666665,-0.023492,-0.09471933333333335,13.5,False
4.341165542602539,-0.33798619224999993,0.24107687694999996,9.8799645154,-1.1725,-0.45500000000000007,0.46375000000000005,-0.34253255519,0.22801605359166663,9.879505891068332,-1.1223333333333334,-0.4197083333333334,0.38762500000000005,0.3415253333333333,-0.023323999999999998,-0.09468666666666667,14.5,False
4.353475570678711,-0.35353953914999997,0.22731814699999997,9.87697348715,-1.3037500000000002,-0.58625,0.27125000000000005,-0.342592375755,0.22871396018333331,9.880642481803331,-1.1115416666666667,-0.41591666666666677,0.3820833333333334,0.34129199999999993,-0.023155999999999996,-0.09468666666666667,14.5,False
4.365802526473999,-0.33020951879999993,0.23150558654999998,9.853643466800001,-1.225,-0.3325,0.36750000000000005,-0.3416551869033333,0.22819551528666668,9.881300508018333,-1.1179583333333336,-0.4112500000000001,0.38062499999999994,0.341096,-0.022941333333333324,-0.09471466666666668,13.5,False
4.378222465515137,-0.37148570864999997,0.2225325018,9.88774118885,-0.9100000000000001,-0.35000000000000003,0.17500000000000002,-0.3416153065266666,0.22765713020166667,9.881799012726665,-1.1141666666666667,-0.41270833333333345,0.38325,0.3413386666666666,-0.022987999999999995,-0.09471466666666668,13.5,False
4.390442371368408,-0.36729826909999996,0.22612173569999997,9.8739824589,-0.8225000000000001,-0.43750000000000006,0.36750000000000005,-0.3418944691633333,0.22701904417500005,9.881998414609999,-1.1205833333333335,-0.40454166666666674,0.3820833333333333,0.341516,-0.023211999999999997,-0.09452333333333333,14.5,False
4.402689456939697,-0.3415754261499999,0.2165504453,9.88774118885,-1.44375,-0.28,0.21875000000000003,-0.3423929738716666,0.22729820681166668,9.881918653856665,-1.1071666666666669,-0.39987500000000004,0.38762499999999994,0.3413666666666666,-0.023333333333333327,-0.09452333333333333,14.5,False
4.414778470993042,-0.33738798659999997,0.21894326790000002,9.83509909165,-1.1025,-0.58625,0.28,-0.34181470841,0.2284148573583334,9.880702302368336,-1.0960833333333335,-0.40425,0.3847083333333333,0.3411986666666666,-0.023295999999999997,-0.09479866666666667,14.5,False
4.426884651184082,-0.37507494255,0.24705893344999996,9.8739824589,-1.33875,-0.6475000000000001,0.385,-0.3406382372983333,0.22833509660500004,9.880502900485002,-1.100166666666667,-0.4027916666666667,0.38499999999999995,0.34091866666666665,-0.023202666666666663,-0.09479866666666667,14.5,False
4.438995599746704,-0.34097722049999996,0.2237289131,9.88415195495,-0.9275000000000001,-0.41125000000000006,0.41125000000000006,-0.34105698125333334,0.22843479754666668,9.880084156530001,-1.1165000000000005,-0.40337500000000015,0.38004166666666667,0.3407226666666666,-0.023184,-0.09486400000000002,14.5,False
4.451103448867798,-0.32422746229999994,0.21894326790000002,9.90209812445,-1.3475000000000001,-0.32375000000000004,0.42875,-0.3411168018183333,0.22921246489166666,9.88175913235,-1.1165000000000005,-0.4013333333333334,0.385,0.340676,-0.02323066666666667,-0.09486400000000002,14.5,False
4.463221549987793,-0.3415754261499999,0.23150558654999998,9.880562721050001,-1.4700000000000002,-0.5775,0.29750000000000004,-0.341994170105,0.227856532085,9.882676381013335,-1.1223333333333336,-0.403375,0.38441666666666674,0.340676,-0.023268,-0.09471466666666668,14.5,False
4.478678464889526,-0.3218346397,0.23569302609999998,9.87697348715,-1.11125,-0.37625000000000003,0.35875,-0.34201411029333334,0.22711874511666666,9.882297517435001,-1.131666666666667,-0.4054166666666667,0.382375,0.340788,-0.023249333333333334,-0.09471466666666668,14.5,False
4.490870475769043,-0.32542387359999997,0.20877377184999998,9.886544777549998,-1.2425000000000002,-0.42875,0.39375000000000004,-0.34249267481333334,0.22707886474000002,9.881340388395,-1.1267083333333336,-0.40425000000000005,0.3887916666666667,0.3408813333333333,-0.023230666666666667,-0.09500400000000002,13.5,False
4.503063440322876,-0.33738798659999997,0.23928225999999997,9.8727860476,-1.0325000000000002,-0.30625,0.5162500000000001,-0.3433501029116666,0.22634107777166665,9.881519850090001,-1.1360416666666668,-0.40308333333333335,0.39316666666666666,0.34068533333333334,-0.023370666666666665,-0.09500400000000002,13.5,False
4.515368700027466,-0.3565305674,0.215354034,9.879366309749999,-1.32125,-0.35875,0.41125000000000006,-0.3431706412166665,0.22606191513499999,9.879884754646666,-1.12525,-0.39900000000000013,0.3984166666666667,0.34058266666666676,-0.02341733333333333,-0.09495733333333334,13.5,False
4.5276665687561035,-0.33738798659999997,0.23449661479999998,9.9086783866,-1.4875,-0.5075000000000001,0.37625000000000003,-0.34269207669666657,0.22644077871333332,9.879386249938332,-1.1305000000000003,-0.40629166666666666,0.3987083333333334,0.3405826666666668,-0.023361333333333335,-0.09495733333333334,13.5,False
4.539999723434448,-0.35114671655,0.22731814699999997,9.87458066455,-1.54875,-0.36750000000000005,0.32375000000000004,-0.343669145925,0.22713868530499995,9.879525831256665,-1.1564583333333334,-0.4150416666666667,0.3905416666666667,0.34034933333333345,-0.023090666666666666,-0.09492000000000002,13.5,False
4.552314519882202,-0.3355933696499999,0.24047867129999997,9.8727860476,-1.1725,-0.24500000000000002,0.42000000000000004,-0.34420753100999985,0.2270389843633333,9.880702302368332,-1.1748333333333334,-0.412125,0.3908333333333333,0.3404520000000001,-0.022549333333333334,-0.09492000000000002,13.5,False
4.564537525177002,-0.3553341561,0.22851455829999998,9.9014999188,-1.3825,-0.43750000000000006,0.36750000000000005,-0.34424741138666654,0.22729820681166663,9.881978474421663,-1.1876666666666664,-0.40745833333333337,0.39870833333333333,0.3406293333333334,-0.02228800000000001,-0.095018,14.5,False
4.577428579330444,-0.33798619224999993,0.18604195715,9.887142983199999,-1.33875,-0.48125000000000007,0.3325,-0.3436093253599999,0.22721844605833327,9.882237696869998,-1.173375,-0.40775,0.39520833333333333,0.3406666666666667,-0.022362666666666677,-0.095018,13.5,False
4.589758634567261,-0.33619157529999993,0.21355941705,9.848857821599998,-1.4000000000000001,-0.42875,0.3325,-0.3422932729299999,0.22620149645333326,9.882177876304999,-1.1762916666666667,-0.41125,0.3922916666666667,0.34058266666666664,-0.022558666666666675,-0.09488733333333334,13.5,False
4.6020426750183105,-0.3553341561,0.21954147355,9.88415195495,-1.21625,-0.37625000000000003,0.37625000000000003,-0.34149566539666665,0.22634107777166665,9.881858833291664,-1.185916666666667,-0.41358333333333336,0.39462500000000006,0.3405173333333334,-0.022885333333333348,-0.09488733333333334,13.5,False
4.614497423171997,-0.3529413335,0.23748764304999997,9.880562721050001,-1.1725,-0.55125,0.32375000000000004,-0.3408974597466666,0.22550358986166666,9.881021345381665,-1.1803750000000004,-0.41766666666666663,0.39579166666666665,0.34058266666666676,-0.023137333333333343,-0.09468666666666667,14.5,False
4.6266865730285645,-0.35353953914999997,0.23030917524999997,9.8500542329,-1.1812500000000001,-0.44625000000000004,0.39375000000000004,-0.3420938710466666,0.22510478609499998,9.881021345381667,-1.1929166666666668,-0.41387499999999994,0.39375,0.3406946666666667,-0.02324933333333334,-0.09468666666666667,14.5,False
4.638885498046875,-0.35473595045,0.24287149389999999,9.906285564,-1.3562500000000002,-0.60375,0.43750000000000006,-0.3416153065266665,0.22520448703666668,9.881938594045,-1.1975833333333337,-0.41766666666666663,0.3934583333333333,0.3409186666666667,-0.023520000000000003,-0.09477533333333335,14.5,False
4.651103734970093,-0.30747770409999997,0.24825534474999997,9.878169898449999,-1.1900000000000002,-0.47250000000000003,0.58625,-0.3408775195583332,0.22400807573666667,9.882217756681664,-1.1958333333333335,-0.41562499999999986,0.39841666666666664,0.3410866666666667,-0.023930666666666666,-0.09477533333333335,14.5,False
4.663411617279053,-0.34037901484999994,0.22133609049999997,9.868598608049998,-1.33875,-0.49000000000000005,0.35875,-0.34091739993499987,0.22410777667833331,9.881659431408334,-1.199041666666667,-0.4269999999999999,0.38762499999999994,0.34125466666666676,-0.02434133333333333,-0.094612,13.5,False
4.67577052116394,-0.32841490184999994,0.22731814699999997,9.90209812445,-1.05,-0.31500000000000006,0.3325,-0.3397209886349998,0.22309082707333333,9.88271626139,-1.2200416666666667,-0.43020833333333336,0.38762499999999994,0.3412826666666667,-0.024191999999999998,-0.094612,14.5,False
4.694169521331787,-0.34456645439999994,0.20518453794999997,9.886544777549998,-0.9100000000000001,-0.42000000000000004,0.42000000000000004,-0.3397010484466666,0.22277178406,9.882696321201669,-1.2317083333333334,-0.43224999999999997,0.3914166666666666,0.3413106666666667,-0.024042666666666667,-0.094612,13.5,False
4.709996700286865,-0.35593236175,0.21954147355,9.926624556099998,-1.2425000000000002,-0.24500000000000002,0.30625,-0.34167512709166653,0.22145573162999999,9.88175913235,-1.223833333333333,-0.4331249999999999,0.3963749999999999,0.3414226666666667,-0.023977333333333337,-0.09471933333333335,13.5,False
4.731361627578735,-0.37088750299999995,0.22851455829999998,9.880562721050001,-1.05,-0.5075000000000001,0.35000000000000003,-0.34049865597999995,0.2220140569033333,9.881340388395,-1.2349166666666662,-0.43137499999999995,0.3922916666666666,0.34139466666666674,-0.024005333333333333,-0.09469133333333334,13.5,False
4.757432699203491,-0.34755748264999997,0.25543381255,9.8979106849,-1.2425000000000002,-0.41125000000000006,0.32375000000000004,-0.34085757936999994,0.22227327935166666,9.880243678036667,-1.238708333333333,-0.4281666666666667,0.39199999999999996,0.34142266666666665,-0.02412666666666667,-0.09475666666666667,14.5,False
4.781255722045898,-0.33798619224999993,0.2237289131,9.85424167245,-1.0762500000000002,-0.49000000000000005,0.37625000000000003,-0.3420739308583333,0.22265214292999996,9.879226728431666,-1.2410416666666668,-0.42874999999999996,0.3937499999999999,0.34146,-0.023921333333333336,-0.09471933333333335,14.5,False
4.8044586181640625,-0.31824540579999994,0.22013967919999997,9.9206424996,-1.3650000000000002,-0.49875,0.44625000000000004,-0.3423132131183334,0.22273190368333332,9.879645472386667,-1.2646666666666666,-0.4351666666666667,0.3940416666666665,0.341432,-0.024126666666666675,-0.094668,14.5,False
4.826656818389893,-0.32542387359999997,0.2105683888,9.862616551549998,-1.435,-0.46375000000000005,0.385,-0.3421337514233334,0.22195423633833328,9.879824934081665,-1.2675833333333335,-0.43691666666666673,0.39579166666666654,0.3416466666666667,-0.023828000000000012,-0.09440666666666668,14.5,False
4.838845729827881,-0.36191441825,0.2309073809,9.879366309749999,-1.05,-0.6212500000000001,0.37625000000000003,-0.3423730336833334,0.22181465502,9.880263618225,-1.268458333333333,-0.43837500000000007,0.3879166666666665,0.34186133333333335,-0.023529333333333343,-0.09440666666666668,14.5,False
4.851003646850586,-0.32602207924999993,0.22671994134999998,9.93799046345,-1.4000000000000001,-0.46375000000000005,0.43750000000000006,-0.34215369161166664,0.22075782503833327,9.881240687453333,-1.2839166666666666,-0.4395416666666667,0.38849999999999996,0.34202,-0.023641333333333344,-0.09443933333333333,14.5,False
4.8636298179626465,-0.33080772444999995,0.23030917524999997,9.90090171315,-1.2775,-0.31500000000000006,0.46375000000000005,-0.342472734625,0.21990039694,9.88140020896,-1.2588333333333337,-0.43575000000000014,0.38879166666666654,0.3421786666666667,-0.023753333333333345,-0.09443933333333333,13.5,False
4.875994682312012,-0.33738798659999997,0.22313070744999997,9.880562721050001,-0.9537500000000001,-0.41125000000000006,0.48125000000000007,-0.34229327293,0.21972093524499997,9.880502900485,-1.2527083333333335,-0.4287500000000001,0.38849999999999996,0.34216,-0.023772000000000012,-0.09449066666666668,14.5,False
4.888303756713867,-0.32901310749999996,0.23270199784999998,9.88175913235,-1.11125,-0.5075000000000001,0.41125000000000006,-0.3427319570733333,0.21892332771166664,9.879725233139999,-1.2465833333333334,-0.42845833333333344,0.385,0.34214133333333335,-0.02379066666666668,-0.09449066666666668,14.5,False
4.900648593902588,-0.33858439789999994,0.2225325018,9.8727860476,-0.9800000000000001,-0.34125000000000005,0.48125000000000007,-0.34263225613166665,0.21948165298499997,9.878708283535,-1.2471666666666665,-0.4360416666666667,0.3864583333333334,0.3423466666666667,-0.023809333333333346,-0.094836,14.5,False
4.912877798080444,-0.36191441825,0.23270199784999998,9.8751788702,-1.60125,-0.5162500000000001,0.4025,-0.34301111971,0.22059830353166662,9.878469001274999,-1.2413333333333332,-0.4398333333333334,0.3823749999999999,0.342552,-0.02382800000000001,-0.094836,14.5,False
4.925067663192749,-0.33619157529999993,0.23509482044999996,10.0031948793,-1.3562500000000002,-0.44625000000000004,0.385,-0.34163524671499995,0.22043878202499997,9.879525831256666,-1.2495,-0.4401250000000001,0.37829166666666664,0.3424866666666666,-0.02370666666666667,-0.09470066666666668,14.5,False
4.9405457973480225,-0.34636107135,0.2177468566,9.8811609267,-1.33,-0.35000000000000003,0.3325,-0.34099716068833336,0.2210569278633333,9.879087147113331,-1.2416250000000002,-0.43837500000000007,0.37479166666666675,0.34242133333333324,-0.023585333333333337,-0.09470066666666668,14.5,False
4.952767610549927,-0.34636107135,0.22193429615000002,9.87218784195,-1.37375,-0.43750000000000006,0.21875000000000003,-0.3408176989933333,0.22085752598000002,9.878947565794999,-1.248625,-0.4389583333333334,0.37741666666666673,0.34229066666666663,-0.023744000000000005,-0.094598,14.5,False
4.965076684951782,-0.36550365214999997,0.23928225999999997,9.862616551549998,-1.4175000000000002,-0.55125,0.42000000000000004,-0.3410569812533334,0.22073788485000004,9.878748163911665,-1.2471666666666672,-0.43487500000000007,0.37800000000000006,0.3421599999999999,-0.023902666666666673,-0.094598,14.5,False
4.977416753768921,-0.33798619224999993,0.2225325018,9.852447055499999,-1.1025,-0.34125000000000005,0.31500000000000006,-0.34073793824000004,0.22145573163,9.877830915248332,-1.2384166666666672,-0.42291666666666666,0.385875,0.34238399999999997,-0.024033333333333337,-0.094612,13.5,False
4.99023962020874,-0.32004002274999993,0.2165504453,9.88295554365,-1.1375000000000002,-0.4025,0.41125000000000006,-0.34083763918166665,0.2213759708766667,9.878389240521667,-1.2355000000000005,-0.427875,0.38237499999999996,0.342608,-0.024164000000000005,-0.094612,13.5,False
5.00255274772644,-0.33140593009999997,0.2069791549,9.8859465719,-1.05875,-0.37625000000000003,0.42875,-0.3407578784283334,0.22077776522666664,9.87864846297,-1.2174166666666673,-0.4331250000000001,0.3809166666666667,0.34258933333333336,-0.024024000000000004,-0.09486400000000002,14.5,False
5.014659881591797,-0.36191441825,0.21296121140000002,9.8811609267,-1.11125,-0.7962500000000001,0.37625000000000003,-0.340797758805,0.22061824372,9.87828953958,-1.2261666666666668,-0.43487500000000007,0.38266666666666665,0.3425706666666667,-0.023884000000000006,-0.09486400000000002,13.5,False
5.026789903640747,-0.34097722049999996,0.24287149389999999,9.89970530185,-1.4700000000000002,-0.43750000000000006,0.48125000000000007,-0.34279177763833335,0.22011973901166665,9.878010376943333,-1.2276250000000002,-0.4307916666666667,0.38237499999999996,0.3429626666666667,-0.023874666666666673,-0.09467266666666667,14.5,False
5.038898706436157,-0.32303105099999996,0.21116659445,9.8859465719,-1.09375,-0.5337500000000001,0.21000000000000002,-0.34277183745,0.22101704748666667,9.87864846297,-1.236666666666667,-0.431375,0.3803333333333334,0.34335466666666664,-0.023865333333333343,-0.09467266666666667,14.5,False
5.050920724868774,-0.35114671655,0.22432711874999997,9.865607579799999,-1.11125,-0.43750000000000006,0.55125,-0.3433301627233334,0.2217747746433333,9.878369300333333,-1.2308333333333334,-0.43050000000000005,0.3721666666666667,0.3431586666666666,-0.023622666666666677,-0.09460733333333333,13.5,False
5.063061714172363,-0.34636107135,0.23988046564999999,9.856634495049999,-1.3475000000000001,-0.49875,0.36750000000000005,-0.34279177763833335,0.2215354923833333,9.877751154494998,-1.2072083333333334,-0.4380833333333333,0.37975,0.34296266666666664,-0.02338000000000001,-0.09460733333333333,13.5,False
5.075358629226685,-0.3439682487499999,0.22133609049999997,9.857830906349998,-1.12,-0.37625000000000003,0.35000000000000003,-0.3420340504816667,0.22153549238333334,9.877432111481665,-1.2028333333333334,-0.43224999999999997,0.3809166666666667,0.34265466666666666,-0.02297866666666667,-0.09460733333333333,14.5,False
5.087692737579346,-0.3439682487499999,0.23688943739999999,9.878768104099999,-1.37375,-0.5775,0.43750000000000006,-0.3418944691633333,0.2228515448133333,9.877113068468333,-1.2045833333333331,-0.43545833333333334,0.3794583333333334,0.3424026666666667,-0.022717333333333343,-0.094766,14.5,False
5.0998687744140625,-0.34576286570000003,0.23808584869999996,9.882357337999998,-1.4700000000000002,-0.42875,0.31500000000000006,-0.3422733327416667,0.22313070744999994,9.877970496566665,-1.2188750000000002,-0.43574999999999997,0.382375,0.34215066666666677,-0.02245600000000001,-0.094766,14.5,False
5.112085819244385,-0.37328032559999996,0.23988046564999999,9.877571692799998,-1.2425000000000002,-0.5162500000000001,0.29750000000000004,-0.34309088046333336,0.2234696906516666,9.878807984476664,-1.232,-0.4386666666666667,0.3820833333333334,0.3420386666666669,-0.022586666666666668,-0.09465866666666667,13.5,False
5.124421834945679,-0.33858439789999994,0.22731814699999997,9.898508890549998,-1.3037500000000002,-0.35000000000000003,0.49000000000000005,-0.34279177763833335,0.2222134587866666,9.878827924664998,-1.2340416666666667,-0.44479166666666664,0.3791666666666667,0.3419266666666668,-0.022717333333333332,-0.09465866666666667,13.5,False
5.136611700057983,-0.35832518435,0.20757736054999998,9.896116067949999,-1.3650000000000002,-0.44625000000000004,0.44625000000000004,-0.34133614388999994,0.22273190368333323,9.878668403158331,-1.2480416666666667,-0.4439166666666667,0.3809166666666667,0.3419920000000002,-0.02285733333333333,-0.09486866666666667,13.5,False
5.1488847732543945,-0.3493520996,0.22552353004999998,9.913464031799998,-1.16375,-0.36750000000000005,0.31500000000000006,-0.34179476822166666,0.2225923223649999,9.879605592009998,-1.2465833333333336,-0.44100000000000006,0.3861666666666667,0.3422066666666668,-0.02297866666666666,-0.09486866666666667,14.5,False
5.161095857620239,-0.34875389395,0.20877377184999998,9.888339394499999,-1.3562500000000002,-0.5425000000000001,0.42000000000000004,-0.34159536633833343,0.2222333989749999,9.880024335964999,-1.248625,-0.4445,0.3885,0.3423186666666668,-0.022819999999999997,-0.09429466666666667,13.5,False
5.173478841781616,-0.33260234139999995,0.22731814699999997,9.87697348715,-1.225,-0.48125000000000007,0.32375000000000004,-0.34039895503833334,0.22179471483166663,9.880403199543332,-1.244541666666667,-0.45150000000000007,0.3917083333333334,0.3423840000000002,-0.02303466666666666,-0.09429466666666667,13.5,False
5.185808897018433,-0.35473595045,0.23449661479999998,9.878169898449999,-1.5137500000000002,-0.5075000000000001,0.39375000000000004,-0.3400400316483333,0.22175483445499997,9.881180866888334,-1.243958333333334,-0.4535416666666667,0.3905416666666667,0.3423280000000002,-0.023025333333333328,-0.09463533333333335,14.5,False
5.198136806488037,-0.32841490184999994,0.23688943739999999,9.896714273599999,-1.37375,-0.56,0.385,-0.3404587756033333,0.22325034857999998,9.879964515400001,-1.255916666666667,-0.4552916666666667,0.389375,0.3420946666666668,-0.02334266666666666,-0.09463533333333335,13.5,False
5.210407972335815,-0.34097722049999996,0.23868405434999998,9.889535805799998,-0.9362500000000001,-0.47250000000000003,0.42875,-0.34039895503833334,0.223549451405,9.88008415653,-1.2766250000000003,-0.4558750000000001,0.3922916666666667,0.3419266666666667,-0.023249333333333327,-0.09466333333333334,13.5,False
5.222811937332153,-0.3553341561,0.22073788485,9.89731247925,-1.5312500000000002,-0.36750000000000005,0.42875,-0.3413560840783333,0.22338992989833334,9.879226728431666,-1.2719583333333335,-0.45441666666666686,0.3922916666666667,0.3418333333333334,-0.022903999999999997,-0.09466333333333334,13.5,False
5.235028982162476,-0.33260234139999995,0.24825534474999997,9.853643466800001,-1.3037500000000002,-0.28875,0.385,-0.341037041065,0.22251256161166663,9.879545771445,-1.3022916666666668,-0.4579166666666668,0.38966666666666677,0.3417026666666666,-0.022726666666666673,-0.09475666666666667,14.5,False
5.2473180294036865,-0.33020951879999993,0.22133609049999997,9.870393224999999,-1.2512500000000002,-0.4025,0.47250000000000003,-0.34037901484999994,0.22217357841,9.879844874269999,-1.3025833333333336,-0.45879166666666676,0.39462500000000006,0.34166533333333327,-0.022568,-0.09475666666666667,13.5,False
5.259699821472168,-0.34097722049999996,0.22971096959999998,9.873384253249998,-1.2075,-0.46375000000000005,0.29750000000000004,-0.34000015127166666,0.222711963495,9.880722242556665,-1.3025833333333336,-0.46083333333333343,0.3937500000000001,0.34166533333333327,-0.022530666666666675,-0.09464933333333335,14.5,False
5.272278785705566,-0.3337987527,0.2105683888,9.87218784195,-1.33,-0.41125000000000006,0.44625000000000004,-0.3400998522133333,0.2229911261316667,9.881559730466666,-1.2973333333333337,-0.4526666666666667,0.3960833333333334,0.3413946666666666,-0.022502666666666674,-0.09464933333333335,14.5,False
5.28451681137085,-0.36191441825,0.26021945775,9.8799645154,-1.2950000000000002,-0.6125,0.43750000000000006,-0.3391626633616666,0.22203399709166666,9.882098115551663,-1.2964583333333337,-0.45033333333333336,0.3969583333333334,0.3412173333333333,-0.022512000000000008,-0.094374,13.5,False
5.296710968017578,-0.33619157529999993,0.22911276394999996,9.86740219675,-1.6362500000000002,-0.44625000000000004,0.37625000000000003,-0.33970104844666665,0.22253250179999998,9.881659431408332,-1.2853750000000006,-0.450625,0.3957916666666668,0.3413293333333333,-0.022661333333333342,-0.094374,13.5,False
5.308941841125488,-0.3565305674,0.23569302609999998,9.882357337999998,-1.3037500000000002,-0.47250000000000003,0.29750000000000004,-0.34023943353166664,0.22297118594333332,9.882656440824997,-1.2845000000000004,-0.4474166666666667,0.4004583333333335,0.34120799999999996,-0.02262400000000001,-0.09462133333333335,14.5,False
5.321683883666992,-0.3529413335,0.23030917524999997,9.878169898449999,-1.4525000000000001,-0.42875,0.35875,-0.34071799805166664,0.22293130556666665,9.884670399846666,-1.2824583333333337,-0.45033333333333325,0.39812500000000023,0.3410586666666667,-0.022400000000000007,-0.09462133333333335,14.5,False
5.3374059200286865,-0.3493520996,0.22133609049999997,9.884750160599998,-1.2512500000000002,-0.49875,0.43750000000000006,-0.34213375142333324,0.22207387746833332,9.885507887756663,-1.3072500000000002,-0.45412499999999995,0.4004583333333334,0.34092800000000006,-0.02238133333333334,-0.09426200000000001,14.5,False
5.349642992019653,-0.34636107135,0.19441683624999997,9.90090171315,-1.26875,-0.5162500000000001,0.42875,-0.34163524671499995,0.22107686805166663,9.88674417943333,-1.3125000000000002,-0.4654999999999999,0.3943333333333333,0.3406760000000001,-0.022605333333333335,-0.09426200000000001,14.5,False
5.361795902252197,-0.34037901484999994,0.22791635265,9.888339394499999,-1.2862500000000001,-0.49875,0.41125000000000006,-0.34117662238333335,0.22071794466166664,9.886245674724998,-1.2996666666666667,-0.4622916666666665,0.39608333333333334,0.3407320000000001,-0.022857333333333334,-0.09469600000000002,14.5,False
5.374149799346924,-0.32303105099999996,0.22791635265,9.8859465719,-1.0850000000000002,-0.48125000000000007,0.39375000000000004,-0.3411965625716667,0.2216152531366666,9.885607588698331,-1.3133750000000002,-0.46199999999999986,0.3984166666666668,0.34095600000000015,-0.023100000000000002,-0.09469600000000002,14.5,False
5.386302947998047,-0.3529413335,0.22313070744999997,9.884750160599998,-1.2600000000000002,-0.43750000000000006,0.28,-0.34153554577333334,0.22169501389,9.8859465719,-1.3157083333333335,-0.4689999999999999,0.39520833333333333,0.3410680000000001,-0.023184,-0.09469133333333334,13.5,False
5.398430824279785,-0.35473595045,0.23629123174999997,9.877571692799998,-1.3037500000000002,-0.5775,0.5162500000000001,-0.3417349476566667,0.22207387746833332,9.886305495290001,-1.3075416666666666,-0.46987499999999993,0.39608333333333334,0.34089066666666673,-0.023016,-0.09469133333333334,14.5,False
5.410588979721069,-0.35952159564999997,0.23808584869999996,9.878768104099999,-1.3037500000000002,-0.43750000000000006,0.49000000000000005,-0.34239297387166673,0.2215953129483333,9.886046272841668,-1.2996666666666667,-0.4652083333333333,0.3978333333333334,0.34071333333333337,-0.022969333333333335,-0.09488733333333334,14.5,False
5.422768831253052,-0.346959277,0.26380869165,9.883553749299999,-1.1375000000000002,-0.36750000000000005,0.39375000000000004,-0.3414159046433333,0.22111674842833332,9.887202803765001,-1.315416666666667,-0.4617083333333333,0.40716666666666673,0.34101200000000004,-0.023230666666666667,-0.09488733333333334,14.5,False
5.434911012649536,-0.3505485109,0.20518453794999997,9.880562721050001,-1.2512500000000002,-0.45500000000000007,0.47250000000000003,-0.3421337514233333,0.22135603068833332,9.886764119621667,-1.3332083333333336,-0.4634583333333333,0.4019166666666667,0.3413106666666667,-0.023492,-0.09488733333333334,14.5,False
