window size: 20,acc threshold: 14
time,aX,aY,aZ,gX,gY,gZ,faX,faY,faZ,fgX,fgY,fgZ,temp
0.16412901878356934,2.5375883672999997,-9.605388122049998,0.41276189849999995,14.603750000000002,0.22750000000000004,22.785000000000004,2.0155941171099996,-9.646125926814998,0.8442775441275,10.339,1.3006875,25.606437500000006,0.009841999999999998,0.519526,0.03779299999999999,17.5,False,0
0.17670178413391113,2.5513470972500003,-9.7459664498,0.45822552789999993,9.196250000000001,-2.1787500000000004,20.22125,2.0433807695525,-9.652706188964997,0.7995317615074999,11.337812500000002,1.5281874999999998,24.702125000000002,0.010891999999999999,0.5198339999999999,0.03779299999999999,17.5,False,0
0.1893322467803955,2.3294128010999997,-9.905089152699999,0.6466603076499999,5.836250000000001,-2.7387500000000005,20.76375,2.06357021024,-9.677262530897499,0.7525427076999999,11.039437500000002,1.4420000000000002,23.834125,0.012193999999999998,0.5204219999999999,0.037974999999999995,17.5,False,0
0.20201516151428223,2.1744775377499996,-10.109675485,0.9990034354999999,7.218750000000001,0.10500000000000001,25.1475,2.0709879602999997,-9.723892661315,0.7295417004575,11.083625000000003,1.2201875,23.53925,0.013201999999999997,0.520856,0.037974999999999995,17.5,False,0
0.21445679664611816,2.05005076255,-9.981061270249999,1.0109675485,12.521250000000002,4.576250000000001,31.815,2.0733209623349995,-9.769535752409997,0.7260421974050001,11.479125000000002,1.1536875,23.705499999999997,0.014573999999999998,0.5214020000000001,0.03796799999999999,17.5,False,0
0.22718214988708496,2.1792631829499998,-9.619146851999998,0.6418746624499999,15.513750000000002,7.008750000000001,32.41875,2.0834904583849996,-9.792656400782501,0.7209275390975002,12.127937500000002,1.2000625,24.328062499999998,0.015946,0.5219480000000003,0.03796799999999999,17.5,False,0
0.23984384536743164,2.2695922361,-9.3738825355,0.41635113239999993,13.168750000000001,6.22125,29.51375,2.0986848818949992,-9.792805952195,0.7030112798800001,12.754437500000003,1.3422500000000002,25.056500000000003,0.01687,0.5226200000000002,0.03735199999999999,17.5,False,0
0.2524685859680176,2.2755742925999995,-9.39481973325,0.24705893344999996,7.691250000000001,3.87625,26.27625,2.1189341431474995,-9.7723772292475,0.6792625155750001,13.096562500000001,1.45075,25.666375,0.017794,0.5232920000000001,0.03735199999999999,17.5,False,0
0.26518797874450684,2.3312074180499995,-9.369695095949998,0.25782663515,1.8112500000000002,0.9975,26.425000000000004,2.1406490082425,-9.75170922404,0.6575177401975,13.044500000000003,1.4936250000000002,26.19225,0.018872000000000003,0.5243280000000001,0.038149999999999996,17.5,False,0
0.2806684970855713,2.3760728418,-9.1226361625,0.3212364340499999,-4.24375,-1.60125,26.958750000000002,2.1660727483674997,-9.72096145363,0.6352345797350001,12.583375,1.4468125,26.6669375,0.019950000000000002,0.5253640000000002,0.038149999999999996,17.5,False,0
0.29332518577575684,2.33001100675,-9.04068198845,0.37627135385,-8.11125,-3.1412500000000003,26.652500000000003,2.192004963295,-9.673374194172501,0.6208776441349999,11.73725,1.2403125000000002,27.1455625,0.021728000000000004,0.5260500000000001,0.037897999999999994,17.5,False,0
0.30599284172058105,2.3282163898,-8.8917287816,0.54855458105,-7.656250000000001,-3.1850000000000005,25.060000000000002,2.2170398697475,-9.6188178388925,0.60957155735,10.645687499999998,1.120875,27.497750000000003,0.023506000000000003,0.5267360000000001,0.037897999999999994,17.5,False,0
0.3184494972229004,2.4705893344999996,-8.840283095699998,0.5228317380999999,-2.1875,-3.3425000000000002,23.266250000000003,2.2448564324725,-9.561390096492499,0.5994917921475,9.632,1.0136875000000003,27.576937500000003,0.025508000000000003,0.5271840000000001,0.03760399999999999,17.5,False,0
0.33104801177978516,2.43409878985,-8.7373917239,0.5288137946,0.27125000000000005,-4.0512500000000005,21.113750000000003,2.274198419605,-9.502885583922499,0.585822793045,8.8108125,0.8535625000000003,27.383999999999997,0.02751,0.527632,0.03760399999999999,17.5,False,0
0.3437786102294922,2.40777774125,-8.82532795445,0.46301117309999995,-0.47250000000000003,-5.197500000000001,17.4475,2.2995324288825003,-9.448718062314999,0.5714957677275001,8.052625,0.5897500000000003,26.855062500000003,0.029960000000000004,0.528248,0.03766699999999999,17.5,False,0
0.3562922477722168,2.3312074180499995,-9.001200415549999,0.5000999234,-2.9050000000000002,-5.827500000000001,16.196250000000003,2.3261824905900004,-9.405019139582498,0.5554339460250001,7.160125000000001,0.23012500000000022,26.109125000000006,0.031724,0.5287940000000001,0.03766699999999999,17.5,False,0
0.3689429759979248,2.24506580445,-9.241080881199998,0.7166503687,-6.072500000000001,-5.705000000000001,16.31875,2.3334207789550003,-9.376514640359996,0.542871627375,6.139437499999999,-0.18418749999999987,25.284000000000002,0.03339,0.5291720000000002,0.038121999999999996,17.5,False,0
0.38169240951538086,2.26301197395,-9.224331122999999,0.8871389789499998,-9.905000000000001,-3.6662500000000002,16.84375,2.33958229715,-9.358089906339998,0.54496534715,4.9196875,-0.5936875,24.514875000000004,0.035056000000000004,0.5295500000000002,0.038121999999999996,17.5,False,0
0.3940441608428955,2.3114666315999997,-9.147760799799999,1.0815558152,-11.585,-0.9975,16.6075,2.3376680390700004,-9.339844634014998,0.5636592737125,3.545062500000001,-0.8754375,23.843750000000004,0.037002,0.5299560000000001,0.03743599999999999,17.5,False,0
0.40641355514526367,2.3928225999999997,-9.046664044949999,1.1521440819,-10.2375,2.23125,15.855000000000002,2.3368604614425004,-9.322436849599997,0.59318072254,2.1406875000000007,-0.96775,23.2386875,0.038808,0.5306000000000001,0.03743599999999999,17.5,False,0
0.4189493656158447,2.61954254135,-8.818747692299999,1.11565353725,-7.717500000000001,4.0512500000000005,14.070000000000002,2.3235802960125,-9.301798754674996,0.6210870161125002,0.8666875000000006,-0.882,22.70975,0.040712000000000005,0.531244,0.03745699999999999,17.5,False,0
0.43161988258361816,2.27019044175,-8.949156524,0.9337990196499999,-6.2475000000000005,3.3950000000000005,12.075000000000001,2.31553443002,-9.267282288669996,0.6513861322850001,-0.11549999999999945,-0.6667500000000001,22.3125,0.042616,0.5318880000000001,0.03745699999999999,17.5,False,0
0.4439575672149658,2.2522442722499996,-9.122037956849999,0.7872386353999999,-6.308750000000001,1.715,10.325000000000001,2.3073091023325003,-9.2307618337375,0.671007277605,-0.7822499999999998,-0.3661875000000001,21.8596875,0.04426800000000001,0.532224,0.03735199999999999,17.5,False,0
0.45638513565063477,2.2073788485,-9.28355348235,0.8183453291999999,-6.6762500000000005,-0.1925,10.578750000000001,2.307458653745,-9.190951247729997,0.6687939167000001,-1.3912499999999999,-0.20081249999999998,21.3023125,0.04592000000000001,0.53256,0.03735199999999999,17.5,False,0
0.4689199924468994,2.3509482045,-9.28953553885,1.0504491214,-6.527500000000001,-1.2950000000000002,10.780000000000001,2.31134699047,-9.151290213134999,0.6571289065249999,-2.2316874999999996,-0.3451875000000001,20.462750000000003,0.047474,0.532868,0.03730299999999999,17.5,False,0
0.48159337043762207,2.5172493751999996,-9.27996424845,1.4793625724500001,-4.865,1.2862500000000001,10.64,2.3268704270875,-9.124999074817499,0.6780361939925001,-3.2930625000000004,-0.6820625000000003,19.372500000000002,0.04902800000000001,0.5331760000000001,0.03730299999999999,17.5,False,0
0.49402618408203125,2.5603201819999994,-9.2398844699,1.543370577,-2.63375,6.43125,9.633750000000001,2.3411376318399997,-9.111120703737498,0.7279564554850001,-4.224937500000001,-0.8872500000000001,18.291875000000005,0.05049800000000001,0.5334000000000001,0.03756899999999999,17.5,False,0
0.5067625045776367,2.6374887108499996,-9.1812603162,1.3579268255,-4.322500000000001,9.73,7.638750000000001,2.3654247812299993,-9.1043609798925,0.7858926726875001,-4.938062500000001,-0.7590625000000003,17.3184375,0.051968000000000014,0.5336240000000001,0.03756899999999999,17.5,False,0
0.5194704532623291,2.5316063108,-9.202197513949999,1.19820591695,-6.265000000000001,11.0425,4.777500000000001,2.3812174103899997,-9.0907218910725,0.836231678135,-5.453000000000001,-0.3880625000000003,16.367750000000008,0.05334000000000001,0.5332320000000002,0.03778599999999999,17.5,False,0
0.5327048301696777,2.4807588305499997,-9.33978481345,1.0073783146,-7.927500000000001,10.027500000000002,2.9137500000000003,2.3883958781899994,-9.085816604742499,0.88139620471,-5.781562500000001,0.15968750000000007,15.19875,0.054712000000000004,0.5328400000000002,0.03778599999999999,17.5,False,0
0.5452876091003418,2.3964118339,-9.537790883599998,0.9625128908499999,-7.07,7.595000000000001,1.8550000000000002,2.3901904951399997,-9.10181860588,0.9127421807700001,-5.886125000000002,0.8321249999999999,13.977687499999996,0.05600000000000001,0.5324200000000001,0.03758999999999999,17.5,False,0
0.5579202175140381,2.4723839514499995,-9.627521731099998,1.06301144005,-5.451250000000001,6.16,2.66,2.3978774377424994,-9.131459695837501,0.9379565489175002,-5.751375000000001,1.3356875,12.745249999999999,0.057288000000000006,0.5320000000000001,0.03758999999999999,17.5,False,0
0.5702967643737793,2.6572294972999995,-9.580263484749999,1.1706884570499998,-1.0850000000000002,6.965000000000001,3.1762500000000005,2.4084058571824993,-9.168309163877499,0.966760150965,-5.680937500000001,1.8003125,11.673375000000002,0.05817,0.5319300000000001,0.03727499999999999,17.5,False,0
0.5831642150878906,2.6291138317499994,-9.552746024849998,1.0372885971,0.8225000000000001,9.686250000000001,3.42125,2.4211476375274996,-9.2063849535,0.9991230766299999,-5.642875000000002,2.373,10.688125000000001,0.05905199999999999,0.53186,0.03727499999999999,17.5,False,0
0.5958700180053711,2.76191548605,-9.521041125399998,0.8099704500999999,-0.5775,10.780000000000001,2.8262500000000004,2.4392433584399997,-9.245328141315,1.025503945795,-5.6560000000000015,3.1023125,9.871750000000002,0.05985,0.5317620000000001,0.037534,17.5,False,0
0.6089015007019043,2.7445675222,-9.460622354749999,0.5706881900999999,-5.040000000000001,10.40375,2.3625000000000003,2.457010066245,-9.275836629464997,1.03585290354,-5.666062500000001,3.9151875000000005,9.161687500000003,0.060648,0.5316640000000001,0.037534,17.5,False,0
0.6216921806335449,2.6739792555,-9.401399995399998,0.4331008906,-9.8,8.58375,1.7850000000000001,2.477977174277499,-9.293393965292498,1.0337890940474996,-5.790750000000001,4.7035625,8.479625000000002,0.061628,0.5317480000000001,0.037092999999999994,17.5,False,0
0.6341297626495361,2.62791742045,-9.192626223549999,0.2919243572,-12.276250000000001,6.090000000000001,1.0325000000000002,2.4973889476199993,-9.299675124617497,1.0173085283899999,-5.96225,5.361125,7.732812500000003,0.06260800000000001,0.5318320000000002,0.037092999999999994,17.5,False,0
0.6469132900238037,2.7260231470499994,-9.307481708349998,0.35892339,-11.235000000000001,3.1237500000000002,0.9712500000000001,2.516232425594999,-9.307601349479999,0.9841978456625,-6.03225,5.736937500000001,6.923,0.063644,0.531664,0.03683399999999999,17.5,False,0
0.6595871448516846,2.8091737324,-9.14476977155,0.2727817764,-8.951250000000002,0.77875,0.44625000000000004,2.536960251367499,-9.314241432194999,0.9429814763775001,-6.009062500000001,5.820500000000001,6.1530000000000005,0.06468,0.531496,0.03683399999999999,17.5,False,0
0.6722965240478516,2.8480570996499996,-9.0676012427,0.34037901484999994,-4.795000000000001,-0.20125,-1.0850000000000002,2.561875516689999,-9.3200739372825,0.902153940765,-5.9828125,5.685750000000001,5.3886875000000005,0.06552000000000001,0.5312859999999999,0.03608499999999999,17.5,False,0
0.6881322860717773,2.6961128645500003,-9.031708903699998,0.42652062845,-2.89625,0.49000000000000005,-3.0187500000000003,2.5815564825749986,-9.322018105644998,0.870090117925,-5.924625000000001,5.519062500000001,4.656750000000001,0.06636000000000002,0.5310759999999999,0.03608499999999999,17.5,False,0
0.700474739074707,2.5842484079999997,-9.263214490249998,0.34217363179999993,-1.3475000000000001,0.6475000000000001,-3.43,2.600160678289999,-9.32626536576,0.8462815330549998,-5.735625000000001,5.392625000000001,3.9405625,0.06720000000000001,0.531118,0.03691099999999999,17.5,False,0
0.7130415439605713,2.5453650407499997,-9.3547399547,0.2500499617,-2.3275,-0.5337500000000001,-2.31875,2.6183760403324987,-9.331230472655001,0.8177471235499999,-5.494562500000001,5.372062500000001,3.2764375,0.06804000000000002,0.5311600000000001,0.03691099999999999,17.5,False,0
0.7254600524902344,2.57168608935,-9.33858840215,0.25543381255,-3.3950000000000005,-2.0825,-1.7325000000000002,2.6346771442949994,-9.3347897962725,0.784427068845,-5.2775625,5.380812500000001,2.6293750000000005,0.06840400000000002,0.5312580000000001,0.03684099999999999,17.5,False,0
0.7379708290100098,2.70568415495,-9.37208791855,0.3439682487499999,-1.82875,-2.89625,-2.09125,2.6472992835099993,-9.336375041245,0.73447689707,-5.0841875000000005,5.292875,1.9932500000000002,0.06876800000000002,0.5313560000000003,0.03684099999999999,17.5,False,0
0.7502105236053467,2.7631118973500004,-9.356534571649998,0.38225341035,0.9712500000000001,-2.8875,-1.0325000000000002,2.6595924096175,-9.34253655944,0.6734898310524999,-4.916625000000002,4.996250000000001,1.3824999999999998,0.06942600000000002,0.5314960000000003,0.037225999999999995,17.5,False,0
0.7627370357513428,2.7643083086499995,-8.8845503138,0.19800607015,-11.418750000000001,-4.22625,-2.2575000000000003,2.6733511395675,-9.337900465652499,0.6001498183625,-4.9984375000000005,4.4502500000000005,0.9769375000000002,0.07008400000000002,0.5316360000000003,0.037225999999999995,17.5,False,0
0.7751634120941162,2.96889464095,-9.269196546749999,0.7734799054499999,-12.88,4.322500000000001,0.5687500000000001,2.6762225266875,-9.323094875815,0.5596512958575001,-5.394375000000001,3.9528125000000003,0.580125,0.07085400000000003,0.5315800000000003,0.03677099999999999,17.5,False,0
0.7877383232116699,2.7547370182499993,-9.080163561349998,0.6927221427,-0.35875,3.6662500000000002,-3.7012500000000004,2.6844777646575,-9.3192962699375,0.5440979489575,-5.4394375,3.6211875000000013,0.3469374999999997,0.07162400000000002,0.5315240000000003,0.03677099999999999,17.5,False,0
0.8001725673675537,2.6255245978499997,-9.47737211295,0.38105699905,7.901250000000001,0.8750000000000001,-5.171250000000001,2.6989842516699993,-9.306494669027499,0.5191228630699999,-4.917062500000001,3.279500000000001,0.0380624999999998,0.07184800000000002,0.5318740000000003,0.03695299999999999,17.5,False,0
0.8126943111419678,2.64825641255,-9.7399843933,0.21954147355,8.11125,-3.3600000000000003,-2.8087500000000003,2.7097220430875,-9.3118186993125,0.48442693537,-4.137875000000001,2.9080625,-0.3136875000000002,0.07207200000000001,0.5322240000000001,0.03695299999999999,17.5,False,0
0.8253531455993652,2.6398815334499997,-9.71186872775,0.38763726119999997,4.41875,-5.862500000000001,-2.98375,2.7133710975525,-9.319475731632501,0.4430011941074999,-3.5896875,2.3502500000000004,-0.5840625,0.07266,0.5322240000000001,0.037422,17.5,False,0
0.8379065990447998,2.6069802227,-9.76092159105,0.4791627256499999,2.4675000000000002,-4.8825,-1.82875,2.7060729886224997,-9.329017111750002,0.40746777849749993,-3.4120625,1.6922500000000003,-0.8798125000000001,0.07324800000000001,0.532224,0.037422,17.5,False,0
0.8503191471099854,2.44486649155,-9.7459664498,0.48873401604999994,-1.1287500000000001,-5.197500000000001,-1.5837500000000002,2.69575394116,-9.3407718527725,0.3812962813099999,-3.333312500000001,0.9388750000000001,-1.1217500000000002,0.07336000000000001,0.5321680000000001,0.03679899999999999,17.5,False,0
0.8631598949432373,2.32881459545,-9.807581631749999,0.65742800935,-5.3812500000000005,-3.8500000000000005,-1.1725,2.6803501456724996,-9.354081928484998,0.3704388487624999,-3.3884375000000007,0.1570624999999998,-1.3374375000000005,0.07347200000000001,0.5321119999999999,0.03679899999999999,17.5,False,0
0.8758275508880615,2.2145573162999996,-9.77886776055,0.8739784546499999,-6.83375,-2.07375,-0.37625000000000003,2.6609682826125,-9.3706223147075,0.3813261915924999,-3.3551874999999995,-0.4965624999999999,-1.4721875000000004,0.07347200000000001,0.531888,0.037057999999999994,17.5,False,0
0.8884010314941406,2.3126630428999997,-9.822536773,1.02352986715,-7.936250000000001,-0.31500000000000006,-1.4262500000000002,2.6408087522074997,-9.3925764620625,0.40806598414749995,-3.1688125000000005,-0.9559375000000003,-1.5815625000000004,0.07347200000000001,0.5316639999999999,0.037057999999999994,17.5,False,0
0.9016997814178467,2.43768802375,-9.9026963301,0.9888339394499999,-5.670000000000001,-0.36750000000000005,-0.83125,2.6257339698274995,-9.4166841497575,0.44297128382499984,-2.9330000000000003,-1.2044375,-1.6900625000000002,0.07331800000000002,0.5315519999999999,0.03716299999999999,17.5,False,0
0.914264440536499,2.4801606249,-9.94277610865,0.9966106129,-2.7212500000000004,-2.4062500000000004,-0.4025,2.6103899949050002,-9.448000215535,0.47745783954749993,-2.6180000000000008,-1.3658750000000002,-1.7845625000000003,0.07316400000000002,0.5314399999999999,0.03716299999999999,17.5,False,0
0.926872968673706,2.5160529638999996,-9.93081199565,1.0444670649,-1.2075,-4.68125,0.026250000000000002,2.591965260885,-9.4865545696775,0.50979085493,-2.2666875000000006,-1.5662500000000001,-1.7985625000000003,0.07299600000000002,0.531636,0.03682699999999999,17.5,False,0
0.9395384788513184,2.3976082452,-9.97627562505,1.0624132344,-1.9512500000000002,-3.5962500000000004,1.6800000000000002,2.5773391327425,-9.534979317045,0.54185467777,-2.0273750000000006,-1.8038125,-1.7023125000000001,0.07282800000000002,0.5318320000000001,0.03682699999999999,17.5,False,0
0.9520652294158936,2.39701003955,-9.919446088299999,1.0534401496499999,-5.0575,-1.4875,3.3950000000000005,2.5628027354475,-9.58014384362,0.5752644633224999,-2.0671875,-1.9726875000000004,-1.4315000000000004,0.07245000000000003,0.5316080000000001,0.03724699999999999,17.5,False,0
0.9645648002624512,2.40538491865,-9.863812962849998,1.02352986715,-7.74375,1.4000000000000001,3.7187500000000004,2.5504198784924994,-9.607900585780001,0.619202668315,-2.2684375,-2.0129375000000005,-1.1042500000000006,0.07207200000000002,0.531384,0.03724699999999999,17.5,False,0
0.9771404266357422,2.4658036893,-9.7172525786,0.9625128908499999,-16.58125,2.0650000000000004,4.41,2.5430918592799996,-9.62249680364,0.6527320949975001,-2.6271875000000002,-1.87075,-0.7787500000000003,0.07224000000000001,0.5308940000000001,0.03705099999999999,17.5,False,0
0.9899489879608154,2.6333012712999997,-9.7423772159,1.0354939801499998,-16.00375,7.455000000000001,6.720000000000001,2.536810699955,-9.638229612235,0.687876676935,-3.2558750000000005,-1.519,-0.4646250000000003,0.072408,0.5304040000000001,0.03705099999999999,17.5,False,0
1.002490758895874,2.5674986497999996,-9.556933464399998,0.9224331122999999,-14.6125,4.22625,4.2,2.5291835779175,-9.6572226416225,0.7195516661025001,-4.023687499999999,-1.06925,-0.048562500000000154,0.072478,0.5299280000000001,0.03705099999999999,17.5,False,0
1.0151171684265137,2.5920250814499997,-9.62333429155,0.9176474671,-12.757500000000002,3.6662500000000002,3.5875000000000004,2.5076780847999998,-9.67717280005,0.7603193811499999,-4.524625,-0.7393750000000001,0.1133125,0.07256199999999999,0.5294940000000001,0.037120999999999994,17.5,False,0
1.0278246402740479,2.4987050000499997,-9.681360239599998,0.9816554716499999,-6.343750000000001,3.0975,5.617500000000001,2.50372992751,-9.72048288911,0.7874480073774999,-4.42225,-0.5845,0.3937499999999998,0.07247799999999999,0.5295080000000002,0.037120999999999994,17.5,False,0
1.0402493476867676,2.46520548365,-9.65803021925,0.8853443619999999,1.155,1.37375,5.897500000000001,2.4925733921374995,-9.745786988105001,0.79465638546,-4.223187500000001,-0.6969375000000002,0.7175,0.07209999999999998,0.5298160000000001,0.03652599999999999,17.5,False,0
1.0526840686798096,2.51665116955,-9.562915520899999,0.8907282128499999,3.8937500000000003,-0.21000000000000002,6.317500000000001,2.4809083819624997,-9.770881715122501,0.8141877999324999,-4.248125000000001,-0.78575,1.217125,0.07205799999999998,0.529676,0.03652599999999999,17.5,False,0
1.0653786659240723,2.60039996055,-9.512666246299998,0.8458627891,1.4087500000000002,0.052500000000000005,6.492500000000001,2.4754946208299997,-9.766125980205,0.8417949906800001,-4.494000000000001,-0.763875,1.7941875000000003,0.072534,0.5292140000000001,0.036266999999999994,17.5,False,0
1.0913770198822021,2.7798616555499995,-9.33021352305,0.77946196195,-15.995000000000001,6.090000000000001,5.1625000000000005,2.4803101763125,-9.7492864911575,0.8701200282075,-5.3340000000000005,-0.36837500000000006,2.2308125,0.072352,0.5288220000000001,0.036617,17.5,False,0
1.151859998703003,2.8510481278999995,-9.010173500299999,0.8709874264,-8.8025,0.29750000000000004,2.66875,2.4891935302149997,-9.724789969789999,0.895932602005,-6.32975,0.23975000000000007,2.6131875000000004,0.07260400000000002,0.5285,0.03676399999999999,17.5,False,0
1.1682796478271484,2.8666014748,-8.91984444715,1.0642078513499997,-9.14375,0.9887500000000001,0.5337500000000001,2.5022045031025,-9.685876692257498,0.9209675084575,-6.8875625,0.4606874999999998,2.779000000000001,0.07268800000000002,0.528066,0.03662399999999999,17.5,False,0
1.1880090236663818,2.7690939538499997,-9.019744790699999,1.1096714807499999,-6.921250000000001,5.10125,-1.9075000000000002,2.52275286718,-9.6451388874925,0.9527322284725,-7.2231250000000005,0.8793749999999999,2.8223125000000007,0.07308,0.527674,0.036308999999999994,17.5,False,0
1.2146461009979248,2.5986053435999996,-9.43669412875,0.8985048862999999,1.995,4.567500000000001,-1.77625,2.542673115325,-9.614510758212498,0.97052884656,-7.299687500000002,1.3453125000000001,2.7094375000000004,0.07322,0.527702,0.03663799999999999,17.5,False,0
1.2273478507995605,2.6075784283499996,-9.52163933105,0.8279166196,6.44875,1.5662500000000001,-1.5312500000000002,2.561217490475,-9.597132884079999,0.9666405098349999,-6.744937500000002,1.5815625,2.6656875,0.07336,0.5277299999999999,0.03663799999999999,17.5,False,0
1.239802360534668,2.69132721935,-9.56949578305,0.8428717608499999,6.4575000000000005,0.35000000000000003,-2.33625,2.5742583736450007,-9.579904561359998,0.9571290400000001,-6.050625000000001,1.62225,2.6341875000000003,0.073262,0.52759,0.03643499999999999,17.5,False,0
1.2523980140686035,2.7541388125999995,-9.620941468949999,0.9744770038499999,4.523750000000001,-0.48125000000000007,-1.7675,2.5878974624649995,-9.563842739657497,0.9524032153650002,-5.5365625000000005,1.65375,2.5904375,0.07316399999999999,0.52745,0.03643499999999999,17.5,False,0
1.2649595737457275,2.8115665549999997,-9.7794659662,1.0438688592499998,3.87625,1.8900000000000001,-1.4875,2.6028825139975,-9.548887598407498,0.9538089986425001,-5.286312499999999,1.8379375000000002,2.52175,0.07324800000000001,0.527086,0.036280999999999994,17.5,False,0
1.2775123119354248,2.8402804261999997,-9.6382894328,1.0325029519,4.095000000000001,4.2525,-0.45500000000000007,2.6208585937800004,-9.533214610377497,0.9541380117499999,-5.0531250000000005,2.228625,2.4338124999999997,0.073332,0.5267220000000001,0.036280999999999994,17.5,False,0
1.2901690006256104,2.88514584995,-9.62692352545,0.9044869427999999,5.7225,6.2387500000000005,0.0175,2.64550466656,-9.513324272514996,0.9517152788675001,-4.662,2.6293749999999996,2.3095625,0.07354200000000001,0.526456,0.03659599999999999,17.5,False,0
1.3026924133300781,2.86480685785,-9.607780944649999,0.7028916387499999,4.576250000000001,5.1450000000000005,-0.052500000000000005,2.674278358325,-9.502287378272499,0.94073820519,-4.102874999999999,2.947,2.1389375000000004,0.07375200000000001,0.52619,0.03659599999999999,17.5,False,0
1.315298080444336,2.9198417776499994,-9.6263253198,0.66819571105,1.9425000000000001,3.1325000000000003,-0.3325,2.6994329059075004,-9.500044107084996,0.9321539541124999,-3.4234374999999986,3.0760624999999995,1.8961250000000007,0.07378000000000003,0.5263300000000001,0.03676399999999999,17.5,False,0
1.3279175758361816,2.8989045798999995,-9.650851751449999,0.6699903279999999,-0.28875,2.02125,-0.31500000000000006,2.7182464736,-9.499236529457495,0.9167800689074997,-2.615812499999999,2.9824375,1.6620625000000004,0.07380800000000001,0.52647,0.03676399999999999,17.5,False,0
1.3403892517089844,2.9180471606999996,-9.7208418125,0.64067825115,-0.39375000000000004,1.09375,-0.60375,2.732782870895,-9.494510704822497,0.9016454659625,-1.8633124999999997,2.7566875,1.3208125000000002,0.07383600000000001,0.526288,0.03686899999999999,17.5,False,0
1.3530349731445312,2.9515466770999996,-9.695118969549998,0.5838487144,-0.32375000000000004,-0.14,-0.6212500000000001,2.7502205655925005,-9.502795853074998,0.8903393791774998,-1.1523750000000004,2.6092500000000003,1.0924375000000002,0.07385000000000001,0.5260640000000001,0.03686899999999999,17.5,False,0
1.3660213947296143,2.8905297008,-9.7399843933,0.61675002515,-2.0125,-0.6300000000000001,-1.3125000000000002,2.76789754255,-9.500313299627498,0.8689236169074999,-0.6650000000000004,2.4158750000000007,0.8198749999999999,0.07387800000000001,0.526414,0.036539999999999996,17.5,False,0
1.3784122467041016,2.8821548217,-9.668199715299998,0.6311069607500001,-3.98125,-0.25375000000000003,-0.22750000000000004,2.79110792177,-9.504680200872498,0.8512765502324999,-0.6107500000000001,2.2697500000000006,0.48299999999999993,0.07420000000000002,0.5264700000000001,0.036539999999999996,17.5,False,0
1.3910646438598633,2.82412887365,-9.650851751449999,0.6508477471999999,-5.897500000000001,0.69125,0.9012500000000001,2.8104000539825003,-9.507312305732501,0.8415257981375,-0.9484999999999999,2.2592500000000006,0.16975,0.07449400000000002,0.5261060000000002,0.03695299999999999,17.5,False,0
1.403576374053955,2.7649065143000002,-9.63529840455,0.5096712138,-7.043750000000001,0.6212500000000001,0.9362500000000001,2.8225436286775,-9.5098845900275,0.8288737486399999,-1.491,2.3082500000000006,-0.07481249999999998,0.07427000000000002,0.5260640000000002,0.03695299999999999,17.5,False,0
1.4159770011901855,2.847458894,-9.71067231645,0.35892339,-9.196250000000001,-1.7237500000000001,0.026250000000000002,2.8235007577174995,-9.519904534665,0.8065307676124999,-1.3846875000000003,2.15425,-0.3626875000000001,0.07439600000000002,0.5263020000000002,0.03688999999999999,17.5,False,0
1.428405523300171,2.92941306805,-9.758528768449999,0.36849468039999994,-9.66,-5.1275,-0.11375000000000002,2.8287051468724997,-9.540034154787502,0.7725825969750001,-1.0504375,1.6712500000000006,-0.5976250000000001,0.07408800000000001,0.5264700000000002,0.03688999999999999,17.5,False,0
1.440974235534668,2.8002006476499997,-9.6047899164,0.5204389155,-5.29375,-7.052500000000001,-0.22750000000000004,2.8353153193050002,-9.57655460972,0.7444370211425,-1.0574375000000003,1.4223125000000005,-0.7035,0.07368200000000003,0.5269320000000002,0.03674999999999999,17.5,False,0
1.453552007675171,2.7182464736,-9.735198748099998,0.57248280705,4.585000000000001,-8.155000000000001,-0.21000000000000002,2.8357938838250005,-9.6163651957275,0.7146463797725,-0.6685000000000001,0.8649375000000006,-0.697375,0.07296800000000003,0.5273520000000003,0.03674999999999999,17.5,False,0
1.4660024642944336,2.6662025820500004,-9.9529456047,0.5587240770999999,14.175,-9.485000000000001,0.83125,2.8381567961425,-9.646813863312499,0.6909574360325,0.09362499999999993,0.12293749999999984,-0.5551875000000002,0.07253400000000003,0.5275060000000001,0.03674999999999999,17.5,False,0
1.4784812927246094,2.6273192147999995,-9.994820000199999,0.44207397535,19.38125,-11.830000000000002,3.00125,2.8392933868775,-9.67214787259,0.6743871395275001,0.7332499999999997,-0.5551875000000003,-0.39943750000000006,0.07277200000000003,0.5274080000000001,0.03644199999999999,17.5,False,0
1.491229772567749,2.6165515130999997,-9.9577312499,0.40917266459999996,19.0225,-14.166250000000002,4.165,2.8374688596450004,-9.697631433279998,0.654736083925,1.3833750000000002,-1.2206250000000005,-0.1229375,0.07306600000000002,0.5275900000000002,0.03644199999999999,17.5,False,0
1.503953218460083,2.6255245978499997,-9.916455060049998,0.48873401604999994,11.602500000000001,-14.1225,5.94125,2.8316363545575003,-9.717491860859997,0.6276074576974999,1.9626250000000003,-1.9289375000000004,0.21131250000000001,0.072912,0.5278700000000002,0.037113999999999994,17.5,False,0
1.5164802074432373,2.6560330859999994,-9.79202828485,0.67298135625,0.49875,-11.156250000000002,6.18625,2.8245177073225003,-9.729366243012498,0.60454662989,2.1621250000000005,-2.6057500000000005,0.609,0.072688,0.5281080000000001,0.037113999999999994,17.5,False,0
1.5289826393127441,2.6398815334499997,-9.6957171752,0.8656035755499999,-6.702500000000001,-7.892500000000001,6.597500000000001,2.8153651608775005,-9.734540721884999,0.5889035521425,1.8379375000000002,-3.2410000000000005,0.9765,0.072758,0.528402,0.03735899999999999,17.5,False,0
1.5417263507843018,2.6871397797999994,-9.62333429155,0.95413801175,-7.09625,-5.95,7.008750000000001,2.8035505992900003,-9.737920583807497,0.5845665611800002,1.2079375000000003,-3.8360000000000007,1.33175,0.072912,0.5287940000000001,0.03735899999999999,17.5,False,0
1.5543830394744873,2.71645185665,-9.523433948,1.0127621654499999,-3.7887500000000003,-6.492500000000001,7.026250000000001,2.7935306546525003,-9.734271529342497,0.5899803223125001,0.6208125000000002,-4.438000000000001,1.6935625,0.07289799999999999,0.529312,0.03700899999999999,17.5,False,0
1.5670392513275146,2.6763720780999996,-9.458827737799998,1.10488583555,0.7875000000000001,-7.437500000000001,6.44,2.7811477976975,-9.727601536344999,0.606759990795,0.3674999999999999,-5.001937500000001,2.0523125,0.07272999999999999,0.5295500000000001,0.03700899999999999,17.5,False,0
1.5832648277282715,2.64945282385,-9.353543543399999,1.1174481541999999,2.9662500000000005,-7.525,6.18625,2.7700510828900002,-9.715547692497498,0.6266503286574999,0.4252499999999998,-5.502000000000001,2.4066875000000003,0.072646,0.5299000000000001,0.03721899999999999,17.5,False,0
1.595930576324463,2.715853651,-9.371489712899999,1.17547410225,1.5050000000000001,-6.615,5.5825000000000005,2.75928338119,-9.6992166782525,0.6502794518324999,0.6028749999999997,-5.9311875,2.7304375000000003,0.072688,0.530306,0.036560999999999996,17.5,False,0
1.608457088470459,2.7523441956499997,-9.0771725331,1.2179467034,-4.22625,-4.996250000000001,6.527500000000001,2.7467509728225,-9.68315485655,0.6786643099249999,0.6540624999999997,-6.272,3.0585625000000003,0.07272999999999999,0.5307120000000001,0.036560999999999996,17.5,False,0
1.6210668087005615,2.7936203855,-9.0676012427,1.3501501520499999,-15.671250000000002,-0.60375,3.6400000000000006,2.74169613508,-9.6620681073875,0.7063313212375,0.2900625000000002,-6.446125,3.3980625000000004,0.070966,0.5306140000000001,0.037064999999999994,17.5,False,0
1.6339044570922852,2.8103701436999997,-8.888737753349998,1.51884414535,-26.398750000000003,5.34625,3.1412500000000003,2.734338205585,-9.6228258167475,0.747218677415,-0.5801250000000001,-6.377437500000001,3.647875,0.07075600000000001,0.5305160000000001,0.037064999999999994,17.5,False,0
1.6464369297027588,2.8426732488,-8.8522472087,1.5242279962,-29.88125,10.902500000000002,0.8750000000000001,2.731227536205,-9.577930482714999,0.791126972125,-1.775375,-5.9605000000000015,3.7611875000000006,0.07057400000000001,0.530838,0.03692499999999999,17.5,False,0
1.658989667892456,2.77746883295,-8.8713897895,1.3621142650499998,-24.368750000000002,11.086250000000001,-1.2775,2.7328127811775,-9.539854693092497,0.8353642799425,-2.9076250000000003,-5.417562500000001,3.68725,0.07050400000000001,0.530936,0.03692499999999999,17.5,False,0
1.6718122959136963,2.7493531674,-8.9443708788,1.2580264819499998,-13.48375,6.86875,-2.24,2.7313770876175,-9.502885583922499,0.880379255105,-3.5328125,-4.920562500000001,3.5918749999999995,0.07056000000000001,0.5309220000000001,0.03692499999999999,17.5,False,0
1.6843559741973877,2.7152554453500004,-9.02153940765,1.2023933564999998,-1.11125,1.3125000000000002,-3.3600000000000003,2.7242584403825,-9.468548579612499,0.92769732202,-3.5056875000000005,-4.531625,3.4475000000000002,0.07063,0.530936,0.03672199999999999,17.5,False,0
1.6968483924865723,2.7128626227499995,-9.26201807895,1.20059873955,8.56625,-1.6362500000000002,-4.0425,2.7120849554050004,-9.43597628197,0.96753781831,-2.870437500000001,-4.2524999999999995,3.2808125000000006,0.071078,0.5306840000000002,0.03672199999999999,17.5,False,0
1.709531307220459,2.7661029256000003,-9.472586467749998,1.2191431146999998,8.015,1.2075,-3.3600000000000003,2.7045475642150003,-9.41707298343,1.001695360925,-2.3025625000000005,-3.9186874999999994,3.1167500000000006,0.07196,0.5300260000000001,0.03609199999999999,17.5,False,0
1.7221157550811768,2.76789754255,-9.530612415799999,1.1760723079,1.4175000000000002,6.317500000000001,-2.7475,2.7056542446675005,-9.403703087152499,1.0321440285099999,-2.3948750000000003,-3.3455624999999998,2.9526875000000006,0.07284199999999999,0.5293680000000001,0.03609199999999999,17.5,False,0
1.7344675064086914,2.8007988532999994,-9.535398060999999,1.0516455326999998,-3.64875,9.56375,-3.08,2.7117559422975,-9.382077952905,1.0612168230999999,-3.2392499999999997,-2.441687499999999,2.7164375000000005,0.07293999999999999,0.5289619999999999,0.03693199999999999,17.5,False,0
1.7474420070648193,2.8055844984999996,-9.510871629349998,0.9822536772999998,-2.77375,9.45875,-3.2375000000000003,2.7229423879525005,-9.357072956735,1.0887641932824996,-4.4323125,-1.3076874999999992,2.3852500000000005,0.07303799999999999,0.5285559999999998,0.03693199999999999,17.5,False,0
1.759908676147461,2.8450660714,-9.63051275935,0.8350950873999999,2.12625,7.481250000000001,-3.1237500000000002,2.7300909454700006,-9.335447822487499,1.1152647035774996,-5.371187500000001,-0.1478749999999991,1.9788125000000008,0.073668,0.5285,0.03660999999999999,17.5,False,0
1.7724242210388184,2.7373890543999995,-9.6801638283,0.6155536138499998,7.1225000000000005,5.250000000000001,-3.1237500000000002,2.739363133045001,-9.324590389940001,1.1307582299124999,-5.5610625,0.8452500000000001,1.5111250000000005,0.074298,0.5284439999999999,0.03660999999999999,17.5,False,0
1.7849907875061035,2.75832625215,-9.814760099549998,0.7106683122,8.68875,4.077500000000001,-1.9775000000000003,2.7434608417475004,-9.322706042142501,1.1299207420024997,-5.0028125,1.5513750000000006,1.0526250000000006,0.07428399999999999,0.528122,0.03665199999999999,17.5,False,0
1.7974464893341064,2.7517459899999994,-9.8859465719,0.7591229698499998,5.5825000000000005,4.025,0.35875,2.746780883105,-9.33404203921,1.1164312045949998,-4.193437500000001,2.0829375000000003,0.6545000000000006,0.07426999999999999,0.5278,0.03665199999999999,17.5,False,0
1.8099660873413086,2.783450889449999,-9.78604622835,0.59760744435,3.7100000000000004,4.4975000000000005,2.2225,2.7483063075125,-9.34612579334,1.1001301006325,-3.6461250000000005,2.5825625000000003,0.35699999999999976,0.07408799999999999,0.526974,0.03691099999999999,17.5,False,0
1.8225595951080322,2.8229324623499994,-9.681360239599998,0.6299105494499999,2.5725000000000002,3.99,2.7300000000000004,2.7539593509049998,-9.361499678545,1.078385325255,-3.4120625,3.158312500000001,0.11112499999999996,0.07390599999999999,0.5261480000000002,0.03691099999999999,17.5,False,0
1.8353211879730225,2.8654050635,-9.56949578305,0.6412764567999999,0.6825000000000001,3.21125,2.555,2.7625436019824994,-9.3718785465725,1.0536495216275,-3.4208125000000003,3.7073750000000003,-0.08443750000000003,0.07394799999999999,0.5256020000000001,0.03668699999999999,17.5,False,0
1.8480098247528076,2.9228328058999997,-9.574879633899998,0.6897311144499999,2.00375,2.205,2.45875,2.77256354662,-9.382795799685002,1.0297212956275,-3.507875,4.2109375,-0.26512499999999994,0.07386399999999999,0.5253220000000002,0.03668699999999999,17.5,False,0
1.8604576587677002,2.9264220397999994,-9.606584533349999,0.6508477471999999,3.77125,1.49625,1.77625,2.7841687362299994,-9.392995206017499,1.0061220827350001,-3.3818749999999995,4.615187499999999,-0.44274999999999987,0.073654,0.5251680000000002,0.03675699999999999,17.5,False,0
1.873326301574707,2.9234310115499995,-9.6957171752,0.6484549245999999,2.1350000000000002,1.1375000000000002,1.26875,2.7900012413174995,-9.411569491449999,0.9815358305199998,-2.79125,4.883375,-0.6383125,0.075236,0.5249440000000002,0.03675699999999999,17.5,False,0
1.8859457969665527,2.8977081685999995,-9.77408211535,0.61196437995,-0.5775,0.9362500000000001,1.0237500000000002,2.7977180942024997,-9.4492863576825,0.948455058075,-1.7465000000000004,4.902625,-0.786625,0.07562799999999999,0.5249860000000003,0.03690399999999999,17.5,False,0
1.898458480834961,2.80618270415,-9.869196813699999,0.6221338759999999,-2.3975000000000004,0.63875,1.77625,2.8006493018874994,-9.50034320991,0.9023633127424999,-0.41649999999999976,4.508875,-0.8343124999999999,0.07601999999999999,0.5250280000000002,0.03690399999999999,17.5,False,0
1.911365032196045,2.77746883295,-9.889535805799998,0.6807580296999999,-2.7125000000000004,-0.24500000000000002,2.87875,2.7983162998524995,-9.552925486545,0.8609674817624999,0.9060624999999998,3.945812500000001,-0.7201249999999998,0.07629999999999999,0.5249580000000001,0.03669399999999999,17.5,False,0
1.9239845275878906,2.7367908487499997,-9.79202828485,0.6807580296999999,-1.6887500000000002,-1.33,4.296250000000001,2.7988247746549995,-9.599196693572498,0.830608545025,1.813437500000001,3.4291250000000004,-0.4576249999999999,0.07657999999999998,0.5248880000000002,0.03669399999999999,17.5,False,0
1.9365601539611816,2.77627242165,-9.7830552001,0.6807580296999999,-1.0237500000000002,-2.0475000000000003,4.9350000000000005,2.8001408270849995,-9.641220640484999,0.8031509056900001,2.1958125000000006,3.1001250000000007,-0.09887499999999996,0.07688799999999998,0.5249020000000002,0.03678499999999999,17.5,False,0
1.9491448402404785,2.88275302735,-9.67956562265,0.6705885336499999,-2.89625,-2.8875,6.107500000000001,2.8069304612124997,-9.675258541969999,0.7778468066949998,1.9429375000000007,2.982,0.3622500000000001,0.077196,0.524916,0.03678499999999999,17.5,False,0
1.9619355201721191,3.01914391555,-9.491729048549999,0.8171489178999999,-5.95,-2.9312500000000004,6.2562500000000005,2.8194329592975,-9.68937619531,0.7535596573049997,1.2516875000000003,2.8870625000000003,0.8658125000000003,0.07715400000000001,0.5249440000000001,0.036350999999999994,17.5,False,0
1.9745230674743652,3.0646075449499994,-9.307481708349998,0.849452023,-6.2475000000000005,-1.6800000000000002,5.617500000000001,2.8325037527499997,-9.6847999220875,0.7348956410249998,0.6387500000000002,2.6245625000000006,1.3413750000000002,0.077112,0.5249719999999999,0.036350999999999994,17.5,False,0
1.9904205799102783,3.0185457098999997,-9.247062937699999,0.8500502286499999,-6.2387500000000005,-0.5687500000000001,4.5062500000000005,2.844288404055,-9.6715197566575,0.7232007205675,0.36793750000000014,2.1651875000000005,1.7434375000000002,0.07711199999999999,0.525644,0.036392999999999995,17.5,False,0
2.003244161605835,2.9515466770999996,-9.307481708349998,0.8560322851499998,-6.8950000000000005,0.035,3.8937500000000003,2.853022206545,-9.6609315166525,0.7163512658749998,0.24850000000000053,1.6366875,2.114,0.077112,0.5263159999999999,0.036392999999999995,17.5,False,0
2.0158488750457764,2.9682964353,-9.27637501455,0.7716852885,-6.405,0.035,3.9375000000000004,2.8633412540074996,-9.64953569902,0.7139584432749999,-0.012249999999999605,1.2158124999999997,2.4679375,0.07721,0.526078,0.036504999999999996,17.5,False,0
2.028350591659546,2.9072794589999997,-9.2590270507,0.7483552681499999,-5.50375,-0.88375,2.5725000000000002,2.8693831310725,-9.632636389407498,0.7115955309574999,-0.5096874999999997,0.8623125,2.8056875000000003,0.077308,0.5258400000000001,0.036504999999999996,17.5,False,0
2.040848970413208,2.9042884307499994,-9.331409934349999,0.7465606511999999,-3.9550000000000005,-1.7325000000000002,2.45875,2.8779374718675,-9.609635382165,0.7132106862125,-1.1738125,0.5696249999999999,3.073875,0.07756,0.5262740000000001,0.036455999999999995,17.5,False,0
2.053555488586426,2.9258238341499996,-9.32901711175,0.7130611348,-3.77125,-2.2750000000000004,2.52875,2.8861927098374998,-9.581729088592498,0.715992342485,-1.7863125000000004,0.263375,3.256312500000001,0.07781200000000002,0.5267080000000001,0.036455999999999995,17.5,False,0
2.06603741645813,2.9407789753999998,-9.254839611149999,0.8159525066,-3.22,-2.0475000000000003,2.1875,2.8962724750399995,-9.555677232534999,0.7247560552574999,-2.1940625000000002,-0.05337500000000024,3.3197500000000004,0.07866599999999999,0.527296,0.03635799999999999,17.5,False,0
2.078446865081787,2.98444798785,-9.33200814,0.8452645834499999,-2.4762500000000003,-1.0762500000000002,1.435,2.9026433652124997,-9.530582505517497,0.7364210654324999,-2.4933125000000005,-0.38237499999999996,3.3070625000000007,0.07952,0.527884,0.03635799999999999,17.5,False,0
2.090972423553467,3.01316185905,-9.215358038249999,0.7872386353999999,-1.5925000000000002,-0.07,1.2337500000000001,2.9112276162899997,-9.515208620312498,0.7482057167374998,-2.7260625000000003,-0.595875,3.2523750000000007,0.079912,0.5280940000000001,0.03641399999999999,17.5,False,0
2.1035993099212646,3.0346972624499995,-9.28474989365,0.8087740387999999,-1.49625,0.035,0.47250000000000003,2.9157440689474994,-9.500253479062499,0.7557730182099999,-2.905875000000001,-0.7384999999999999,3.205125000000001,0.080304,0.528304,0.03641399999999999,17.5,False,0
2.116081714630127,2.9551359109999997,-9.41755154795,0.8709874264,-1.5750000000000002,0.16625,-2.1612500000000003,2.9164320054449995,-9.488498738039997,0.7612765101899998,-3.136000000000001,-0.8334375000000002,3.0905,0.08090599999999999,0.528374,0.03692499999999999,17.5,False,0
2.129084348678589,2.8390840148999996,-9.495916488099999,0.8219345630999999,-2.1612500000000003,0.026250000000000002,0.32375000000000004,2.91457756793,-9.480123858939999,0.7707281594599997,-3.3954375000000008,-0.898625,3.1110625000000005,0.081508,0.528444,0.03692499999999999,17.5,False,0
2.1418728828430176,2.78943294595,-9.51685368585,0.9020941201999999,-5.433750000000001,1.0237500000000002,0.8400000000000001,2.9074888309775,-9.470702119952499,0.7767999468074999,-3.5988750000000005,-0.9183124999999999,3.0642500000000004,0.081732,0.52801,0.036399999999999995,17.5,False,0
2.15448260307312,2.7451657278499995,-9.549754996599999,0.9260223461999999,-7.621250000000001,1.8987500000000002,0.42875,2.9026433652125,-9.4576313265,0.7913662543849999,-3.835562500000001,-0.8780625000000001,3.0349375000000007,0.081956,0.527576,0.036399999999999995,17.5,False,0
2.167102336883545,2.7559334295499998,-9.556933464399998,0.96610212475,-7.5512500000000005,2.30125,0.48125000000000007,2.9038098662299996,-9.440941388865,0.8078468200425,-4.075312500000001,-0.6693749999999999,2.9548750000000004,0.08197000000000002,0.52773,0.03660299999999999,17.5,False,0
2.1797068119049072,2.7990042363499996,-9.57906707345,0.9768698264499999,-5.94125,0.9625000000000001,1.05875,2.9060830476999997,-9.4304428797075,0.82037922841,-4.3198750000000015,-0.5529999999999997,2.8013125000000008,0.081984,0.527884,0.03660299999999999,17.5,False,0
2.192286491394043,2.8229324623499994,-9.509675218049999,1.1072786581499998,-1.8900000000000001,0.08750000000000001,1.7500000000000002,2.9091039862325005,-9.4173421759725,0.83736826887,-4.475187500000001,-0.4545624999999999,2.6368125000000004,0.08202600000000002,0.5280660000000001,0.03658199999999999,17.5,False,0
2.204963207244873,2.8378876036,-9.428917455299999,1.160518961,-0.42000000000000004,0.42000000000000004,1.54875,2.90775802352,-9.4041218311075,0.8580960946425001,-4.464687500000002,-0.32681249999999984,2.4543749999999998,0.08206800000000002,0.528248,0.03658199999999999,17.5,False,0
2.2267003059387207,2.7702903651499997,-9.43190848355,1.0588240004999998,-1.7850000000000001,2.0387500000000003,-0.035,2.90297237832,-9.391589422740001,0.879900690585,-4.305437500000002,-0.1085,2.1608125,0.08185800000000001,0.5283180000000001,0.03646999999999999,17.5,False,0
2.253666639328003,2.6895326023999995,-9.44028336265,1.0905288999499998,-0.5425000000000001,1.715,0.5687500000000001,2.8887051735675,-9.3932943088425,0.8914161493474999,-4.0945625,0.09450000000000006,1.8497499999999998,0.08174600000000003,0.528472,0.03600799999999999,17.5,False,0
2.2785897254943848,2.7116662114499994,-9.401399995399998,1.0444670649,-4.2525,3.8325000000000005,-0.17500000000000002,2.8715366714124997,-9.399994212122499,0.9007780677699999,-3.8819375000000007,0.29225,1.5802500000000004,0.08209600000000003,0.5281640000000002,0.03673599999999999,17.5,False,0
2.30389404296875,2.691925425,-9.272785780649999,1.1437692027999997,-6.6850000000000005,6.0287500000000005,-1.8375000000000001,2.8567310815749996,-9.3997549298625,0.9137890406575,-3.7957499999999995,0.534625,1.341375,0.08227800000000002,0.5280100000000002,0.03663099999999999,17.5,False,0
2.3322811126708984,2.6171497187499995,-9.3140619705,1.0366903914499999,-10.211250000000001,10.1325,-3.0362500000000003,2.8406094393075,-9.399934391557498,0.929671400665,-3.879749999999999,0.9576875000000001,1.0386250000000001,0.08220800000000003,0.5278140000000001,0.03660299999999999,17.5,False,0
2.3520824909210205,2.6434707673499998,-9.290731950149999,0.9678967416999998,-10.77125,8.70625,-4.0425,2.8273292738775,-9.40163927766,0.9386145751324998,-4.095437500000001,1.4630000000000003,0.6838125,0.08233400000000002,0.5278840000000001,0.037043999999999994,17.5,False,0
2.36454439163208,2.6572294972999995,-9.3726861242,0.9786644433999999,-8.12875,7.498750000000001,-5.040000000000001,2.814437942119999,-9.40474994704,0.9488139814649997,-4.3666875,1.9495,0.3364374999999999,0.08265600000000002,0.5274920000000002,0.037043999999999994,17.5,False,0
2.3774566650390625,2.5992035492500003,-9.503693161549998,1.01395857675,-5.407500000000001,6.308750000000001,-5.08375,2.7988845952199997,-9.412795813032497,0.9611370178549997,-4.5535000000000005,2.4045,-0.03850000000000002,0.08288000000000001,0.5269880000000001,0.03613399999999999,17.5,False,0
2.3899893760681152,2.6309084487,-9.509675218049999,1.0241280728,-2.3975000000000004,6.4750000000000005,-4.7250000000000005,2.7801308480925,-9.425417952247496,0.9706484876899998,-4.58675,2.8341250000000007,-0.41125,0.08283800000000001,0.5267080000000001,0.03613399999999999,17.5,False,0
2.402440071105957,2.7032913323499996,-9.517451891499999,1.0414760366499998,-2.1350000000000002,6.571250000000001,-4.138750000000001,2.7684957482,-9.438787848524997,0.9805487911974998,-4.543,3.2641875000000007,-0.7126875,0.08258599999999999,0.5268200000000001,0.036378999999999995,17.5,False,0
2.415053606033325,2.72961238095,-9.451649269999999,1.0103693428499998,-2.45,7.603750000000001,-4.7162500000000005,2.7533312349724994,-9.445996226607498,0.9918249676999997,-4.5320625,3.642187500000001,-1.0141250000000002,0.082488,0.526918,0.036378999999999995,17.5,False,0
2.4275171756744385,2.8917261120999997,-9.46780082255,0.9667003303999999,-2.205,8.3125,-4.9262500000000005,2.744148778245,-9.454969311357498,1.0018150020549998,-4.509312499999999,4.032000000000001,-1.33175,0.082572,0.5266380000000002,0.036350999999999994,17.5,False,0
2.4399869441986084,2.950350265799999,-9.4719882621,0.9068797653999999,-2.9575000000000005,7.446250000000001,-5.626250000000001,2.7420251481874995,-9.460801816444999,1.0078867894024999,-4.5565625,4.4143750000000015,-1.5846250000000002,0.082572,0.5263720000000001,0.036350999999999994,17.5,False,0
2.452500581741333,2.93539512455,-9.567102960449999,0.96131647955,-2.02125,8.137500000000001,-4.8825,2.7434010211824997,-9.463404011022499,1.0125827037549997,-4.6256875,4.777937500000002,-1.9726875,0.082376,0.5261060000000002,0.03621099999999999,17.5,False,0
2.4684202671051025,2.9682964353,-9.5736832226,0.9260223461999999,-1.04125,9.843750000000002,-4.43625,2.7523142853675,-9.4654977307975,1.0172187975424998,-4.5836875,5.1773750000000005,-2.2133125000000002,0.08219400000000002,0.5260780000000002,0.03621099999999999,17.5,False,0
2.480971574783325,3.0005995404,-9.549156790949999,0.83210405915,-0.42875,10.43875,-4.865,2.7664319387075,-9.46469015317,1.0158429245474998,-4.3246875,5.618375000000001,-2.473625,0.08232000000000002,0.52598,0.03655399999999999,17.5,False,0
2.493485450744629,3.0568308715,-9.6538427797,0.6867400861999999,-0.41125000000000006,9.695,-4.6025,2.7776183843625,-9.4678307328325,1.0048359405874998,-3.9598125000000004,5.914562500000001,-2.755375,0.08265600000000002,0.5256299999999999,0.03655399999999999,17.5,False,0
2.5060689449310303,3.1112675856499994,-9.6622176588,0.5617151053499999,-1.7500000000000002,8.461250000000001,-3.10625,2.790090972165,-9.469565529217501,0.9883553749299997,-3.62075,6.302625000000001,-2.9898750000000005,0.08314600000000003,0.525644,0.036406999999999995,17.5,False,0
2.5186057090759277,3.12682093255,-9.6358966102,0.6227320816499999,-4.978750000000001,6.6762500000000005,-3.0975,2.8070501023425,-9.4750092006325,0.9651150854274999,-3.5385000000000004,6.666187500000001,-3.1968125,0.083566,0.5255179999999999,0.036406999999999995,17.5,False,0
2.531384229660034,3.1088747630499998,-9.6933243526,0.65623159805,-5.1450000000000005,6.606250000000001,-3.6925000000000003,2.822962372632499,-9.48335416945,0.9425328221399999,-3.741062500000001,6.9746250000000005,-3.4588750000000004,0.08407,0.5247059999999999,0.036322999999999994,17.5,False,0
2.5440428256988525,3.0598218997499997,-9.80279598655,0.7070790782999999,-5.398750000000001,7.910000000000001,-2.42375,2.8353452295874995,-9.499655273412499,0.9203094822425,-3.9484375000000007,7.258125,-3.639125000000001,0.08474200000000001,0.5243979999999999,0.036322999999999994,17.5,False,0
2.5565404891967773,3.0652057506,-9.8057870148,0.61914284775,-5.5125,8.5225,0.10500000000000001,2.8495526137749994,-9.518498751387497,0.8997012975999998,-4.13525,7.584062499999999,-3.7086875,0.084882,0.524314,0.037197999999999995,17.5,False,0
2.5691769123077393,3.0592236941,-9.7196454012,0.5335994398,-6.343750000000001,7.892500000000001,1.1725,2.869771964744999,-9.535936446084998,0.8752645967974999,-4.3649375,7.872375,-3.6452500000000008,0.08463000000000001,0.524048,0.037197999999999995,17.5,False,0
2.5824267864227295,3.0687949844999998,-9.6167540294,0.5000999234,-5.3375,6.562500000000001,1.0150000000000001,2.8901707774099994,-9.553134858522498,0.8461918022075,-4.4401875,8.0294375,-3.570000000000001,0.084812,0.523614,0.03657499999999999,17.5,False,0
2.5950262546539307,3.0598218997499997,-9.677771005699999,0.54017970195,-7.148750000000001,4.576250000000001,0.8662500000000001,2.9104499489449998,-9.566444934234998,0.8108378482925002,-4.301937500000001,7.891625,-3.3941250000000003,0.085064,0.523684,0.03657499999999999,17.5,False,0
2.6075968742370605,3.0592236941,-9.5880401582,0.46360937874999997,-9.353750000000002,2.9575000000000005,1.37375,2.9284260287274995,-9.580951421247498,0.7844868894099999,-4.187750000000001,7.609,-3.1666250000000002,0.08486799999999999,0.5231239999999999,0.03623899999999999,17.5,False,0
2.620121479034424,3.12801734385,-9.442676185249999,0.48275195955,-15.916250000000002,3.5700000000000003,1.9775000000000003,2.9476284300924993,-9.590492801364999,0.7580162893974999,-4.225812500000001,7.356562500000001,-2.8704375000000004,0.084672,0.522564,0.03623899999999999,17.5,False,0
2.6325759887695312,3.12562452125,-9.41994437055,0.65742800935,-20.641250000000003,5.223750000000001,1.0237500000000002,2.974936518015,-9.586604464639999,0.7379464898399999,-4.715375,7.1995000000000005,-2.5235000000000003,0.08513399999999999,0.522424,0.03603599999999999,17.5,False,0
2.6450889110565186,3.0873393596499996,-9.4660062056,0.7345965381999999,-23.423750000000002,8.120000000000001,-0.11375000000000002,3.0035606583674994,-9.581041152094999,0.7245466832799999,-5.6310625000000005,7.2016875,-2.2535625,0.085596,0.522284,0.03603599999999999,17.5,False,0
2.6576664447784424,3.0436703471999995,-9.4791667299,0.6640082714999999,-25.821250000000003,9.520000000000001,-0.15750000000000003,3.0233612653825,-9.577541649042498,0.7079763867749999,-6.754125,7.295750000000001,-2.0536250000000003,0.08593200000000001,0.521346,0.03609899999999999,17.5,False,0
2.670203924179077,2.90309201945,-9.460622354749999,0.66341006585,-27.142500000000002,9.3975,-0.7175,3.03804721409,-9.577332277064999,0.6908377949024999,-7.929250000000001,7.4291875,-1.8414375000000003,0.08626800000000001,0.5204079999999999,0.03609899999999999,17.5,False,0
2.682628631591797,2.8091737324,-9.439685156999998,0.72323063085,-25.2525,6.973750000000001,-1.0675000000000001,3.0431618723975,-9.5762854171775,0.6741777675499999,-9.1835625,7.4720625,-1.6384375000000002,0.08681400000000002,0.5197219999999999,0.03560899999999999,17.5,False,0
2.695134401321411,2.7290141752999997,-9.45224747565,0.8620143416499999,-20.65875,3.98125,-1.3037500000000002,3.0362825074225,-9.5752086470075,0.6584449589549999,-10.229625,7.384562500000001,-1.4529375000000002,0.08736000000000002,0.519036,0.03560899999999999,17.5,False,0
2.707805871963501,2.7367908487499997,-9.4851487864,1.0492527101,-15.085,1.7587500000000003,-0.9537500000000001,3.0265317553275,-9.571978336497502,0.6602096656224999,-11.0350625,7.165812500000001,-1.24425,0.08807400000000003,0.5186580000000001,0.03579799999999999,17.5,False,0
2.7202463150024414,2.7343980261499996,-9.44506900785,1.22452696555,-11.576250000000002,1.04125,-0.45500000000000007,3.0151658479775,-9.569286411072502,0.6684349933099999,-11.600312500000001,6.802250000000001,-1.0377500000000002,0.08878800000000002,0.5182800000000001,0.03579799999999999,17.5,False,0
2.7326810359954834,2.6626133481499994,-9.512068040649998,1.3447663011999997,-10.1675,2.52875,-0.58625,3.0000312450325,-9.56710296045,0.6877271255225,-12.0509375,6.355562500000002,-0.8360625000000003,0.08912400000000002,0.5177200000000001,0.03585399999999999,17.5,False,0
2.7451436519622803,2.69372004195,-9.647860723199999,1.4057832774999999,-9.05625,4.82125,-0.8662500000000001,2.9826533708999996,-9.563483816267501,0.7187739987575,-12.5409375,6.001187500000002,-0.6286875000000001,0.08946000000000001,0.5171600000000002,0.03585399999999999,17.5,False,0
2.757606267929077,2.6321048599999997,-9.671788949199998,1.4446666447499998,-11.4975,6.116250000000001,-0.9275000000000001,2.9625835713425,-9.563005251747501,0.7582854819400001,-13.1105625,5.775875000000002,-0.464625,0.08953000000000003,0.516306,0.03537799999999999,17.5,False,0
2.770009994506836,2.5603201819999994,-9.7830552001,1.4488540842999997,-10.71,6.510000000000001,-0.44625000000000004,2.93563440681,-9.5655775360425,0.8027620720175002,-13.524437500000001,5.7194375000000015,-0.371,0.08960000000000004,0.5154520000000001,0.03537799999999999,17.5,False,0
2.782580614089966,2.55613274245,-9.722636429449999,1.3830514628000001,-9.205,5.95875,1.1287500000000001,2.9052754700725,-9.572546631865,0.8428418505674999,-13.749312499999998,5.7330000000000005,-0.1938125,0.08979600000000003,0.5151300000000001,0.03558099999999999,17.5,False,0
2.795255184173584,2.5830519966999996,-9.6598248362,1.4644074312000002,-9.231250000000001,4.0687500000000005,2.0562500000000004,2.8776383690425,-9.5707221046325,0.8753842379275,-13.9549375,5.621437500000001,0.043750000000000094,0.08999200000000003,0.514808,0.03558099999999999,17.5,False,0
2.8078346252441406,2.548356069,-9.5449693514,1.5732808595,-10.298750000000002,3.8237500000000004,1.9687500000000002,2.853022206545,-9.558608440219999,0.9176474670999999,-14.126875000000002,5.4140625,0.21918750000000015,0.09051000000000002,0.5145000000000001,0.035566999999999994,17.5,False,0
2.8204503059387207,2.5920250814499997,-9.510871629349998,1.66480632395,-11.8825,4.2787500000000005,1.3650000000000002,2.8275984664200005,-9.547870648802498,0.9687043193275,-14.33075,5.194000000000001,0.2533125000000001,0.09102800000000004,0.5141920000000002,0.035566999999999994,17.5,False,0
2.8332130908966064,2.5974089322999996,-9.46780082255,1.8083756799499997,-13.580000000000002,6.22125,1.3037500000000002,2.8028327525100005,-9.540602450155,1.0275976655699999,-14.647500000000003,5.0575,0.26775000000000004,0.09129400000000003,0.5134080000000001,0.035671999999999995,17.5,False,0
2.8457977771759033,2.6542384690499996,-9.389435882399999,1.83948237375,-13.868750000000002,9.406250000000002,1.3475000000000001,2.78057950233,-9.534769945067499,1.0958828405175,-15.039500000000004,5.109125000000001,0.27431250000000007,0.09156000000000004,0.5126240000000001,0.035671999999999995,17.5,False,0
2.8584141731262207,2.68055951765,-9.318249410049999,1.8191433816499998,-14.892500000000002,12.3375,1.11125,2.7612873701175,-9.523463858282499,1.1621341162549998,-15.358437500000003,5.448625,0.28306250000000005,0.09195200000000003,0.512526,0.034831999999999995,17.5,False,0
2.8742597103118896,2.63150665435,-9.321838643949999,1.5894324120499999,-17.368750000000002,13.886250000000002,0.36750000000000005,2.7437599445724996,-9.515567543702499,1.2284452125575,-15.602562500000005,5.933375,0.25593750000000004,0.09234400000000005,0.512428,0.034831999999999995,17.5,False,0
2.8869364261627197,2.6177479243999993,-9.3547399547,1.5014961814999999,-19.547500000000003,13.160000000000002,-0.052500000000000005,2.7211477710025,-9.5118586686725,1.277109242185,-15.6638125,6.4295,0.165375,0.09247000000000002,0.5121060000000001,0.034915999999999996,17.5,False,0
2.899477005004883,2.5615165933,-9.374480741149998,1.6259229567,-20.361250000000002,13.676250000000001,-0.18375000000000002,2.6923740792375,-9.510452885395,1.3188639965550002,-15.554437499999997,6.761562500000001,0.11943749999999995,0.09259600000000004,0.511784,0.034915999999999996,17.5,False,0
2.9122166633605957,2.56091838765,-9.319445821349998,1.7168502154999998,-20.9125,15.863750000000001,0.13125,2.6675485447625,-9.504710111155001,1.3661222429050004,-15.362812499999999,7.046375,0.13256249999999997,0.09290400000000001,0.511588,0.03466399999999999,17.5,False,0
2.924795150756836,2.6333012712999997,-9.19142981225,1.69830584035,-21.481250000000003,18.725,-0.10500000000000001,2.6472095526625,-9.495617385275,1.4184054167150002,-15.124374999999995,7.4055625,0.142625,0.093212,0.5113920000000001,0.03466399999999999,17.5,False,0
2.937448024749756,2.7266213527,-9.19382263485,1.6588242674499998,-22.37375,20.335,-1.60125,2.6364717612449997,-9.481619373064998,1.467817203405,-14.875437499999999,7.935374999999999,0.14700000000000008,0.09380000000000001,0.5111120000000001,0.034089999999999995,17.5,False,0
2.9580605030059814,2.7212375018499997,-9.19382263485,1.5667005973499997,-17.3075,18.462500000000002,-2.7125000000000004,2.6334807329949994,-9.47115077419,1.5165111433150003,-14.667625000000001,8.6183125,0.08575000000000003,0.094388,0.5108320000000002,0.034089999999999995,17.5,False,0
2.97053599357605,2.6500510295,-9.22851856255,1.4757733385499998,-12.293750000000001,15.216250000000002,-2.9487500000000004,2.6296821271174995,-9.460083969664998,1.5468700800525,-14.4633125,9.3275,0.024500000000000032,0.094906,0.5102720000000001,0.034131999999999996,17.5,False,0
2.98332142829895,2.476571391,-9.1920280179,1.66959196915,-5.608750000000001,11.707500000000001,-4.103750000000001,2.628575446665,-9.444979277002497,1.5736098726075,-14.325062500000001,10.024,-0.13256249999999997,0.095424,0.509712,0.034131999999999996,17.5,False,0
2.99596905708313,2.6159533074499994,-9.250053965949999,1.72821612285,1.49625,10.35125,-5.652500000000001,2.6227429415775,-9.4253282214,1.5865311146475003,-13.977250000000003,10.4969375,-0.36487499999999995,0.09594200000000001,0.5088999999999999,0.034733999999999994,17.5,False,0
3.008521795272827,2.6321048599999997,-9.2973122123,1.8233308212,6.4225,11.541250000000002,-6.116250000000001,2.6177479243999997,-9.408757924895001,1.6072290301375003,-13.299125000000004,10.843875,-0.6107500000000001,0.09646000000000002,0.508088,0.034733999999999994,17.5,False,0
3.021193265914917,2.6721846385499997,-9.207581364800001,1.8179469703499997,7.0875,15.408750000000001,-6.947500000000001,2.615175640105,-9.387730996297499,1.6287046129724998,-12.342749999999999,11.2380625,-0.8911875,0.09704800000000001,0.5075139999999999,0.034873999999999995,17.5,False,0
3.0336568355560303,2.6967110702,-9.129814630299999,1.7886348934999998,5.94125,18.69,-9.283750000000001,2.619243438525,-9.3632643852125,1.6427923560299997,-11.442375,11.7324375,-1.2166875000000001,0.09763600000000003,0.50694,0.034873999999999995,17.5,False,0
3.0460596084594727,2.6955146588999996,-9.09332408565,1.5643077747499998,6.798750000000001,20.098750000000003,-12.67875,2.6271696633875,-9.327102853669999,1.6564015345674998,-10.668875000000002,12.362,-1.7412500000000002,0.09815400000000003,0.506828,0.03507,17.5,False,0
3.0584912300109863,2.6416761503999995,-9.092725879999998,1.3495519463999999,5.687500000000001,17.59625,-15.006250000000001,2.636471761245,-9.299166649815,1.66552417073,-9.849,13.1158125,-2.49375,0.09867200000000002,0.506716,0.03507,17.5,False,0
3.0712978839874268,2.57168608935,-9.0245304359,1.3052847283,5.94125,14.105000000000002,-19.355,2.6386552118675,-9.272965242344998,1.6590336394274996,-9.120562500000002,13.6950625,-3.399375,0.099274,0.5061980000000001,0.03457999999999999,17.5,False,0
3.0837225914001465,2.41495620905,-9.1226361625,1.4440684390999998,8.916250000000002,13.562500000000002,-21.078750000000003,2.6397319820375005,-9.256694048665,1.6533506857524998,-8.253437499999999,14.177625000000003,-4.4813125,0.09987599999999999,0.50568,0.03457999999999999,17.5,False,0
3.096118211746216,2.4957139718,-9.3415794304,1.4219348300499999,11.0075,13.53625,-21.02625,2.6299513196600004,-9.2425464850425,1.6421642400974998,-7.0940625,14.636125000000002,-5.618375,0.10024,0.50554,0.034943999999999996,17.5,False,0
3.10867977142334,2.3670997570499996,-9.4169533423,1.24247313505,11.5675,13.2825,-19.293750000000003,2.6164916925350004,-9.239465725945,1.6219747994099998,-5.809999999999999,14.977812500000002,-6.702062500000001,0.100604,0.5054,0.034943999999999996,17.5,False,0
3.121417284011841,2.2857437886499996,-9.45464029825,1.1617153723,10.42125,9.275,-16.598750000000003,2.59776785569,-9.2420679205225,1.5910176570224996,-4.5215625,15.046500000000004,-7.689500000000001,0.10105200000000003,0.505134,0.03527299999999999,17.5,False,0
3.133988857269287,2.1726829208,-9.327222494799999,1.2203395259999998,10.03625,8.855,-16.458750000000002,2.5744976559049997,-9.24550760301,1.5638890307949995,-3.202062500000001,14.844375000000003,-8.5509375,0.1015,0.504868,0.03527299999999999,17.5,False,0
3.1468045711517334,2.06201487555,-9.190831606599998,1.27118700625,11.593750000000002,7.901250000000001,-18.961250000000003,2.5505694299049995,-9.2403929447025,1.5540186375699998,-1.7224375000000003,14.581437500000003,-9.413687500000002,0.10120600000000002,0.504378,0.03427899999999999,17.5,False,0
3.159424066543579,1.9818553184499998,-9.321240438299998,1.1150553316,10.526250000000001,7.51625,-22.12,2.527239409555,-9.227202510119998,1.5343974922499997,-0.14262499999999995,14.330312500000005,-10.402437500000001,0.100912,0.503888,0.03427899999999999,17.5,False,0
3.1720869541168213,1.91964193085,-9.58145989605,0.9996016411499998,9.336250000000001,6.510000000000001,-20.9125,2.4957438820824995,-9.2280100877475,1.5053546079424998,1.3833749999999998,13.956687500000005,-11.52725,0.100898,0.503972,0.035461999999999994,17.5,False,0
3.1846225261688232,1.7545371714499998,-9.597611448599999,0.9272187574999999,9.17875,2.345,-18.15625,2.4561127577699997,-9.245118769337498,1.4637793152674996,2.8695625,13.401937499999999,-12.530875,0.10088400000000002,0.5040560000000001,0.035461999999999994,17.5,False,0
3.1972219944000244,1.9381863059999997,-9.3547399547,0.9906285563999999,11.760000000000002,3.1675000000000004,-16.345000000000002,2.4218654843075,-9.265906415675,1.4312369279075,4.458562500000001,12.624062500000004,-13.3538125,0.10028200000000002,0.5040840000000001,0.034978999999999996,17.5,False,0
3.209991693496704,1.9794624958499998,-9.193224429199999,0.8650053699,17.333750000000002,2.8000000000000003,-19.433750000000003,2.3845673620300003,-9.268089866297501,1.40351009603,6.1131875,11.783625000000002,-14.078750000000003,0.09968000000000002,0.5041120000000001,0.034978999999999996,17.5,False,0
3.2227203845977783,2.1613170134499997,-9.21296521565,0.5958128274,17.2725,1.0675000000000001,-27.343750000000004,2.3496919726350005,-9.266145697935,1.3611870462924998,7.761687500000001,11.017562500000002,-15.023750000000001,0.09913400000000003,0.5040980000000002,0.034782999999999994,17.5,False,0
3.235339879989624,1.8843477975,-9.512068040649998,0.5306084115499999,14.446250000000001,0.60375,-27.22125,2.3212772042600003,-9.277003130482502,1.3103993866074999,9.172625,10.287812500000001,-16.282,0.09858800000000001,0.504084,0.034782999999999994,17.5,False,0
3.2480106353759766,1.8604195715,-9.9601240725,0.5306084115499999,12.346250000000001,1.9512500000000002,-25.121250000000003,2.2855643269550003,-9.308528568237502,1.2610773307649996,9.977625,9.798687500000002,-17.3823125,0.09762200000000001,0.5048819999999999,0.03511199999999999,17.5,False,0
3.260599136352539,1.6366906583999998,-10.092327521149999,0.39720855159999996,9.607500000000002,2.2575000000000003,-20.15125,2.236870387045,-9.347172653227501,1.1945867727674995,10.3915,9.398375000000001,-18.197812499999998,0.09665600000000003,0.5056800000000001,0.03511199999999999,17.5,False,0
3.2733027935028076,1.5308082583499998,-10.13539832795,0.35174492220000003,6.6675,2.4762500000000003,-13.326250000000002,2.1826131345899995,-9.397601389522503,1.1205289132974996,10.446187500000002,8.8598125,-18.774437499999998,0.09563400000000002,0.5064919999999999,0.03569299999999999,17.5,False,0
3.289111375808716,1.7569299940499998,-9.775876732299999,0.2835494781,10.526250000000001,1.11125,-8.015,2.1261724315125,-9.4389972205025,1.0532606879549997,10.474625000000001,8.1571875,-18.959937500000002,0.09461200000000003,0.5073040000000001,0.03569299999999999,17.5,False,0
3.3018038272857666,1.8777675353499996,-9.6023970938,0.2955135911,15.96,-1.9075000000000002,-7.5512500000000005,2.080200327309999,-9.4700440937375,0.9832407166224997,10.833375000000002,7.216125,-18.829562499999998,0.09304400000000003,0.5077520000000001,0.03611299999999999,17.5,False,0
3.3143675327301025,1.8622141884499999,-9.5485585853,0.38344982164999997,19.556250000000002,-1.1812500000000001,-6.107500000000001,2.0385353037874996,-9.48921658482,0.9314959278974999,11.361875000000003,6.08825,-18.5583125,0.09147600000000003,0.5082000000000001,0.03611299999999999,17.5,False,0
3.326874256134033,1.7862420708999998,-9.5102734237,0.44925244314999996,17.430000000000003,-1.2862500000000001,-4.43625,2.0007586169900002,-9.513503734210001,0.88307118053,12.058812500000002,5.257000000000001,-18.046874999999996,0.09037000000000003,0.5085500000000001,0.035049,17.5,False,0
3.3400347232818604,1.6199409001999998,-9.3667040677,0.61675002515,14.892500000000002,4.532500000000001,-5.71375,1.9585252981000003,-9.527681208114998,0.8368597940674997,12.542687500000003,4.5596250000000005,-17.239250000000002,0.08926400000000002,0.5089,0.035049,17.5,False,0
3.3631179332733154,1.2526426310999998,-9.6825566509,0.8153543009499999,6.580000000000001,4.1825,-4.9437500000000005,1.9150058370625005,-9.5435635681225,0.7936693461374998,12.638062500000002,4.1146875000000005,-16.4749375,0.088494,0.5096700000000001,0.03611299999999999,17.5,False,0
3.380427598953247,1.19820591695,-9.88534836625,1.17667051355,-7.3500000000000005,10.683750000000002,9.852500000000001,1.862752573535,-9.573623402035,0.7704888771999998,12.010250000000003,3.803187499999999,-15.429750000000004,0.087122,0.5103420000000001,0.03595199999999999,17.5,False,0
3.403604745864868,1.7156538042,-8.881559285549999,1.4793625724500001,-12.005,15.715000000000002,12.853750000000002,1.8165112767899998,-9.58002420249,0.7829016444374999,10.974687500000002,3.7887500000000003,-13.905499999999998,0.086114,0.5107480000000001,0.036294999999999994,17.5,False,0
3.4218051433563232,2.4263221163999997,-8.044669581199999,1.6061821702499999,-15.531250000000002,14.166250000000002,5.617500000000001,1.7963218361024995,-9.539735051962502,0.8003991596999999,9.729562500000002,4.143125000000001,-12.5418125,0.08510599999999999,0.5111540000000001,0.036294999999999994,17.5,False,0
3.4404795169830322,3.67956295315,-7.37168822495,1.8532411037,-6.763750000000001,3.87625,-0.7175,1.8331114835774998,-9.464480781192501,0.8134699531524999,8.4966875,4.2490000000000006,-11.5731875,0.084728,0.5118960000000001,0.03609199999999999,17.5,False,0
3.463641881942749,7.975277725799999,-6.43250535445,2.20678064285,22.723750000000003,-1.6187500000000001,-10.87625,1.9736599010449996,-9.3463351653175,0.8464909050325,7.7249375,3.937937500000001,-10.713062500000001,0.084448,0.5124000000000002,0.03563699999999999,17.5,False,0
3.48236346244812,14.029118903799999,-7.2418775988999995,2.18045959425,87.33375000000001,3.5962500000000004,-20.746250000000003,2.3228624492325,-9.203782758922499,0.911485948905,9.7129375,3.5415625000000004,-10.3175625,0.08405599999999999,0.5131700000000001,0.03597999999999999,17.5,False,0
3.5004749298095703,19.5996099166,-10.162317582199998,0.15074782379999999,104.44875,0.46375000000000005,-52.386250000000004,3.1470103732374994,-9.132177542617498,0.9114560386224999,14.5700625,3.5205625000000005,-10.91125,0.08366399999999999,0.5139400000000001,0.03597999999999999,17.5,False,0
3.5134565830230713,19.5996099166,-16.0462683556,-0.8530412569,65.94875,-21.087500000000002,-85.16375000000001,4.027748551732499,-9.262795746295,0.840538758815,18.842250000000003,3.0165625000000005,-13.3035,0.082642,0.5148220000000001,0.03663099999999999,17.5,False,0
3.5264251232147217,19.5996099166,-19.5996099166,-1.8089738855999997,-9.52875,-59.86750000000001,-117.32000000000001,4.9099224237875,-9.698588562319998,0.7224230532225,20.221250000000005,1.1821250000000003,-17.367,0.08162,0.5157040000000002,0.03663099999999999,17.5,False,0
3.5391948223114014,19.5996099166,-19.5996099166,-0.28594230069999993,-81.42750000000001,-83.51,-76.1075,5.7907204228474995,-10.219446221774998,0.6227021713674998,17.612437500000002,-2.4885,-21.815062500000003,0.08023400000000001,0.516922,0.037232999999999995,17.5,False,0
3.551854372024536,19.5996099166,-19.5996099166,1.7599210222999997,-121.87,-84.77000000000001,38.06250000000001,6.6636221073275,-10.728070575687498,0.6258128407475,11.718,-6.7073125000000005,-22.111250000000002,0.07884800000000002,0.51814,0.037232999999999995,17.5,False,0
3.564459800720215,19.5996099166,-19.5996099166,1.9034903783,-99.31250000000001,-102.13000000000001,191.29250000000002,7.5495048544125,-11.221650057502499,0.6835995065374998,4.858437499999998,-11.238062500000002,-15.654625000000001,0.07666400000000002,0.518812,0.037253999999999995,17.5,False,0
3.5770926475524902,19.5996099166,-1.6827524934499998,0.7387839777499999,-25.095000000000002,-121.65125,245.20125000000002,8.4495650754025,-11.447203497835002,0.7488039223874999,0.5853750000000005,-16.8301875,-2.972374999999998,0.07448000000000003,0.5194840000000001,0.037253999999999995,17.5,False,0
3.5898051261901855,19.5996099166,18.98525271405,-3.8213376921999997,-111.20375000000001,-74.06875000000001,68.94125000000001,9.35342390227,-10.54624596837,0.7204190642949998,-1.0823750000000003,-22.646750000000004,8.251250000000002,0.07338800000000004,0.5196100000000001,0.03616199999999999,17.5,False,0
3.602541923522949,19.5996099166,19.5996099166,-2.8498517165999995,-286.72,-8.26875,-178.44750000000002,10.2548899065375,-9.063952188235,0.4606482607824999,-13.403250000000003,-24.751125000000002,7.715750000000004,0.07229600000000003,0.519736,0.03616199999999999,17.5,False,0
3.6151654720306396,7.756334457899999,19.5996099166,6.829713906049999,-286.72,-0.35000000000000003,-286.72,11.146126594190001,-7.59936529534,0.3869493247024999,-28.373625000000004,-24.83775,-3.6623124999999987,0.07218400000000003,0.5194840000000001,0.03513999999999999,17.5,False,0
3.6277430057525635,-19.5996099166,19.5996099166,17.434105463599998,-122.39500000000001,25.80375,-281.05875000000003,10.717033681444999,-6.1436617563475,0.96729853605,-43.589000000000006,-24.765125,-17.5905625,0.07207200000000002,0.5192320000000002,0.03513999999999999,17.5,False,0
3.640263795852661,-19.5996099166,6.752545377199999,3.96311243125,143.0625,170.3625,-286.72,9.64498933608,-4.6859542284275,1.7146368545949997,-43.624,-21.389374999999998,-31.255875000000003,0.06881000000000001,0.5164180000000002,0.031927,17.5,False,0
3.652747392654419,-19.5996099166,1.5840485612,-4.4195433422,-44.98375000000001,88.94375000000001,-286.72,8.577820366762499,-4.0030426583875,1.5885051932924996,-38.57875,-12.613562499999999,-45.395,0.065548,0.5136040000000002,0.031927,17.5,False,0
3.6651711463928223,-19.5996099166,6.37627402335,1.59900370245,-286.72,-3.4737500000000003,-286.72,7.5209106243425,-3.419313585117499,1.3488640099025002,-47.1988125,-10.431750000000001,-59.42693750000001,0.06202,0.5101180000000002,0.032423999999999994,17.5,False,0
3.677675724029541,-19.5996099166,-2.6644079650999997,13.838291301449999,-286.72,70.245,-286.72,6.47629400803,-2.678555528722499,1.6316956412225,-61.5295625,-11.1426875,-73.79400000000001,0.059094,0.5067300000000001,0.032423999999999994,17.5,False,0
3.6903023719787598,-19.5996099166,-19.5996099166,9.620941468949999,-247.38875000000002,186.72500000000002,-286.72,5.42883591488,-2.942154848395,2.3046171769074997,-75.4005,-5.568937500000006,-88.732875,0.052598,0.4995060000000001,0.030463999999999998,17.5,False,0
3.7027838230133057,-19.5996099166,-19.5996099166,-9.197411868749999,286.67625000000004,126.43750000000001,-43.45250000000001,4.358167442509999,-3.490709429445,2.4901207489725,-76.50956250000002,2.93825,-103.61356250000001,0.04610200000000001,0.49228200000000016,0.030463999999999998,17.5,False,0
3.7152254581451416,-18.8733882575,-14.426925661049998,-19.5996099166,286.67625000000004,-127.59250000000002,286.67625000000004,3.2319256652549995,-4.083830331420001,1.4707185008075,-61.48581250000001,5.385187499999998,-95.35575000000001,0.039340000000000014,0.4821460000000002,0.02877,17.5,False,0
3.7279109954833984,-5.929414402799999,12.723235969849997,-8.8881395477,149.9925,-286.72,271.44250000000005,2.3022243543074996,-3.75709040539,0.3997210153300005,-46.954250000000016,-5.886125000000007,-80.875375,0.032480000000000016,0.4722480000000001,0.02877,17.5,False,0
3.7403886318206787,-0.5868397426499999,11.7176522722,14.62792275945,-285.48625000000004,-181.41375000000002,107.65125,1.7019249845325,-2.727159737785,0.2932104993475003,-53.06656250000001,-20.170937500000004,-70.93100000000001,0.026012000000000018,0.4665640000000001,0.031562999999999994,17.5,False,0
3.75648832321167,-0.44386859230000003,6.5940208799499995,19.5996099166,-246.73250000000002,-30.835000000000004,63.533750000000005,0.7861618652299986,-1.86604270461,1.2274282629524997,-72.6753125,-26.341437500000005,-64.42975000000001,0.019544000000000016,0.46088000000000007,0.031562999999999994,17.5,False,0
3.769207000732422,-0.18963119104999998,1.0366903914499999,19.5996099166,-41.650000000000006,-3.77125,29.172500000000003,-0.23338993434750135,-1.0194321584474997,2.2269700835374997,-86.62937500000001,-26.831875000000004,-58.982000000000006,0.012978000000000012,0.45480400000000004,0.030555,17.5,False,0
3.7824203968048096,-0.38045879339999994,-5.02193643175,18.0119721215,74.92625000000001,24.70125,20.930000000000003,-1.210229850515001,-0.22453649072749968,3.2726933803025,-87.64000000000001,-24.826375000000002,-52.69512500000002,0.006412000000000008,0.448728,0.030555,17.5,False,0
3.7948219776153564,-1.9549360641999998,-11.0560368233,12.43131161265,70.15750000000001,50.251250000000006,3.10625,-2.2448863427550014,0.3980759497925001,4.145086589980001,-81.90875000000003,-19.5671875,-46.564875000000015,0.0003780000000000009,0.44199399999999994,0.030506,17.5,False,0
3.807605504989624,-3.8123646074499993,-15.028720544949998,7.868198914449999,41.230000000000004,54.60875000000001,5.460000000000001,-3.3528529374025013,0.7325327287075006,4.642225395412501,-73.91125000000002,-12.703249999999999,-44.72956250000003,-0.005656,0.4352600000000001,0.030506,17.5,False,0
3.820181369781494,-3.2063822839999996,-16.1826592438,5.325226696299999,28.595000000000002,48.475,23.520000000000003,-4.514598219984999,0.9044570325175008,4.893382037565002,-65.92687500000002,-5.573750000000001,-49.329875000000015,-0.009715999999999999,0.42918400000000007,0.030646,17.5,False,0
3.832737922668457,-3.9876388628999995,-13.82154154325,3.9050864831999994,27.098750000000003,49.8575,51.26625000000001,-5.667938713184999,0.8770293034650004,5.0344987504,-60.81600000000002,2.253562499999997,-59.04368750000005,-0.013776000000000002,0.42310800000000004,0.030646,17.5,False,0
3.845229387283325,-4.7036910259499995,-10.607980791449998,3.3128628897,-0.16625,46.838750000000005,50.916250000000005,-6.8524158104675,-0.10022935665750055,5.204478885847501,-58.632000000000026,10.468062499999995,-66.72400000000003,-0.018578000000000004,0.417396,0.030708999999999997,17.5,False,0
3.85799503326416,-5.404189842099999,-9.852447055499999,4.62831711405,-10.631250000000001,38.40375,51.52875,-8.0745798637,-1.5826427779224992,5.632614669552501,-47.08987500000002,14.638312499999994,-63.14875000000003,-0.02338,0.41168400000000005,0.030708999999999997,17.5,False,0
3.870530605316162,-6.113661743,-10.252048429699999,5.5357950851,20.562500000000004,30.091250000000002,57.46125000000001,-9.333742936385,-3.072683321225,5.927440324155,-32.87331249999999,16.5143125,-48.74712500000002,-0.028154000000000002,0.40637800000000013,0.03146499999999999,17.5,False,0
3.8833882808685303,-6.9774707016,-11.08893813405,5.45862655625,71.95125,22.155,63.3325,-9.330632267005,-4.575555375719999,5.5979785624175005,-16.444750000000003,17.887187499999996,-31.455812500000008,-0.032928,0.4010720000000001,0.03146499999999999,17.5,False,0
3.896085023880005,-7.6319076827,-12.4462667539,4.286741687899999,98.5425,15.295000000000002,77.8225,-8.7171424626475,-6.121468326732499,5.0865725522325,-13.112750000000002,15.562312499999999,-14.165375000000006,-0.034762,0.3991260000000001,0.031114999999999997,17.5,False,0
3.90878963470459,-8.559724645849998,-12.878171233200002,2.69491645325,107.12625000000001,14.708750000000002,96.74000000000001,-8.131140207907498,-6.956264311307502,5.369822927507499,-13.8075,7.5096875,4.498375000000005,-0.036596000000000004,0.3971800000000001,0.031114999999999997,17.5,False,0
3.9215362071990967,-9.04905686755,-13.435100693349998,0.9182456727499999,90.22125000000001,13.396250000000002,117.1975,-7.583782038157499,-7.7198738235325,5.6667722121674995,-0.6111875000000027,5.833187499999999,24.01175,-0.03760400000000001,0.39678800000000003,0.031618999999999994,17.5,False,0
3.934171676635742,-10.1120683076,-13.3411824063,0.54376893585,64.86375000000001,4.38375,142.485,-7.062326173052499,-8.63904671504,5.363661409312499,17.766000000000002,6.7073125000000005,44.692375000000006,-0.038612,0.396396,0.031618999999999994,17.5,False,0
3.9467074871063232,-12.0945218317,-13.561322085499997,1.6193426945499998,63.07875000000001,-9.082500000000001,160.12500000000003,-6.614270141202501,-8.576952968570001,4.667320122429999,35.11200000000001,0.48081250000000103,66.4041875,-0.035238000000000005,0.40042800000000006,0.031800999999999996,17.5,False,0
3.9594571590423584,-14.188839812349999,-14.212169832699999,2.5866412305999997,110.88875000000002,-16.35375,179.99625,-6.294499310995,-8.2797943119325,4.502275183594999,40.8121875,-9.43425,89.10168750000003,-0.031864,0.4044600000000001,0.031800999999999996,17.5,False,0
3.972099781036377,-15.620345932799998,-14.721841046499998,1.9334006607999998,194.69625000000002,-27.0725,219.87875000000003,-6.0597335036525,-8.026304667744999,5.566512945227499,33.696250000000006,-13.399749999999997,90.24750000000002,-0.027454000000000006,0.41213200000000005,0.032711,17.5,False,0
3.9846324920654297,-15.046666714449998,-13.727025050549999,-0.4899304273499999,245.70000000000002,-43.688750000000006,260.72375000000005,-6.162445413757499,-8.760213269447501,6.617171438605,30.555874999999997,-3.8784374999999995,87.66450000000002,-0.02304400000000001,0.41980400000000007,0.032711,17.5,False,0
3.997239828109741,-10.336993631999999,-10.489536072749999,-2.7385854657,228.74250000000004,-68.97625000000001,279.74625000000003,-6.689793604514999,-10.1080304194625,6.5264236415,46.534687500000004,7.904312500000003,91.78662500000003,-0.018102000000000004,0.42443800000000015,0.03465,17.5,False,0
4.009812593460083,-5.266602542599999,-8.042276758599998,-3.2285158930499995,167.44875000000002,-86.7125,286.50125,-7.16339301762,-11.023584166787499,5.4029934308,71.29018750000002,9.994687500000003,101.05812500000003,-0.013160000000000002,0.429072,0.03465,17.5,False,0
4.02236008644104,-2.5106691130499996,-6.3517475917,-1.9692929997999997,84.75250000000001,-71.05875,286.67625000000004,-7.349853718725001,-11.627263398484999,4.285515366317499,87.20337500000002,6.5152500000000035,113.19656250000003,-0.0049,0.43527400000000005,0.035643999999999995,17.5,False,0
4.034772872924805,0.38045879339999994,-4.3501514868,-1.0863414604,-1.9600000000000002,-41.34375000000001,286.67625000000004,-7.4270521578575,-11.825957405132499,3.2312377287575003,88.56925000000001,3.1224375000000033,126.15706250000002,0.0033599999999999993,0.4414760000000001,0.035643999999999995,17.5,False,0
4.047300338745117,1.4907284798,-1.9890337862499996,0.23928225999999997,-61.792500000000004,-12.285000000000002,286.67625000000004,-7.3146194059399985,-11.6398855377,2.392792689717499,82.79468750000002,-0.1588124999999966,139.88275000000004,0.013258,0.44847600000000015,0.03646299999999999,17.5,False,0
4.059911012649536,5.28873615165,-0.1351944769,1.24008031245,-49.93625000000001,-9.73,260.11125000000004,-7.07150862978,-11.056096643865,1.8824335394199996,76.51918750000002,-3.258937499999999,153.82937500000003,0.023156000000000003,0.45547600000000016,0.03646299999999999,17.5,False,0
4.0724937915802,8.3796647452,1.0564311779,2.6883361911,3.9200000000000004,-21.93625,237.34375000000003,-6.5517875610599985,-10.2300045514975,1.62676044461,73.33418750000001,-6.561624999999998,166.018125,0.034538,0.46090800000000015,0.035573999999999995,17.5,False,0
4.085037469863892,13.493126641399998,1.22811619945,3.2350961551999995,66.87625000000001,-10.062500000000002,229.51250000000002,-5.920949792852499,-9.440702106605,1.5634403765575002,73.30356250000001,-10.06075,175.6475,0.04592,0.4663400000000001,0.035573999999999995,17.5,False,0
4.097503900527954,16.648063239499997,2.1900308846499996,1.3986048097,78.52250000000001,12.705000000000002,211.57500000000002,-4.986732029247497,-8.7588373964525,1.530150232135,76.29868750000001,-12.655125,184.21637500000003,0.058744000000000005,0.47125400000000006,0.03651899999999999,17.5,False,0
4.110165596008301,17.47059600825,3.14715992465,-0.5545366375499999,40.25000000000001,16.8,185.50000000000003,-3.8893536746049997,-8.09599562597,1.375813174435,80.25587500000003,-13.963249999999999,191.9316875,0.071568,0.4761679999999999,0.03651899999999999,17.5,False,0
4.122818231582642,18.0430788153,2.7349962317999994,-0.8650053699,-57.29500000000001,-8.023750000000001,161.00000000000003,-2.7311078950749996,-7.442067119672499,1.0977372780324997,81.05256250000004,-15.1676875,198.07637500000004,0.08581999999999998,0.48048000000000013,0.03684099999999999,17.5,False,0
4.135419845581055,18.51625948445,2.80618270415,1.040877831,-162.29500000000002,-45.596250000000005,156.205,-1.4999109365274992,-6.773781677775,0.787657379355,74.19693750000002,-17.53675,203.02275000000003,0.10007199999999998,0.4847920000000001,0.03684099999999999,17.5,False,0
4.148730516433716,19.3734881809,4.496113665399999,4.84965320455,-205.91375000000002,-74.09500000000001,142.41500000000002,-0.1835893139849997,-6.031199094147501,0.6559624055075001,60.491812500000016,-21.490875,207.40956250000005,0.11520599999999999,0.4877040000000002,0.035783999999999996,17.5,False,0
4.164742708206177,18.652650372649997,5.8145589179999995,7.897510991299999,-188.23875,-55.720000000000006,85.38250000000001,1.1776874631550003,-5.145615449887499,0.7658228731300001,44.963187500000004,-25.96125,209.67800000000003,0.13033999999999998,0.4906160000000003,0.035783999999999996,17.5,False,0
4.1773295402526855,16.38066531395,4.70728025985,8.203194078449998,-144.32250000000002,-17.1325,40.626250000000006,2.5102802793775,-4.198147431134999,1.1018648970175,30.942625,-28.884625000000007,207.722375,0.14527799999999996,0.49065800000000026,0.034124999999999996,17.5,False,0
4.190208196640015,13.569696964599999,1.5332010809499996,6.4827546290499996,-98.53375000000001,16.03,20.9475,3.7302309717050006,-3.3438499423699986,1.4668002538,20.645624999999995,-29.5255625,202.8455625,0.160216,0.49070000000000025,0.034124999999999996,17.5,False,0
4.202682733535767,10.96211853625,-0.7196413969499998,3.7130624695499996,-74.935,33.197500000000005,21.7875,4.875585419477499,-2.628455805535,1.7016258817074998,13.244437499999993,-28.195999999999998,196.4571875,0.17431400000000002,0.4895100000000002,0.033333999999999996,17.5,False,0
4.215276479721069,9.512666246299998,-2.18763806205,1.2610175101999996,-64.23375,31.403750000000002,25.742500000000003,6.042445360367499,-2.0180467602749994,1.7497814365325,5.803874999999993,-25.846187499999996,189.296625,0.18841200000000002,0.48832000000000014,0.033333999999999996,17.5,False,0
4.227900981903076,8.817551280999998,-3.2434710343,-0.26979074815,-47.643750000000004,14.918750000000001,21.7525,7.244031139239999,-1.4183755064324997,1.6525131978424998,-4.324687499999995,-23.593062499999995,181.04625000000004,0.20172600000000002,0.48519800000000013,0.033453,17.5,False,0
4.240445613861084,7.9585279675999985,-4.6947179411999995,-0.6251249042499999,-30.205000000000002,4.22625,16.28375,8.443134364665,-0.8593822367900007,1.5629319017549999,-17.477687500000005,-21.5201875,170.23956250000003,0.21503999999999998,0.48207600000000017,0.033453,17.5,False,0
4.253085374832153,7.593024315449999,-5.45264449975,-0.8171489178999999,-23.345000000000002,7.5075,21.673750000000002,9.5162554802,-0.4686043959274997,1.6069000170299996,-31.18106249999999,-18.7219375,157.75331250000005,0.22806,0.4770640000000001,0.032872,17.5,False,0
4.265701055526733,7.587640464599999,-5.3491549222999994,-0.7609175867999999,-23.03,5.8012500000000005,32.768750000000004,10.3671731070425,-0.28028925730749993,1.7106587870224998,-42.718375,-14.4948125,144.83350000000004,0.24108000000000004,0.472052,0.032872,17.5,False,0
4.278424501419067,7.691130042049998,-4.91904505995,-0.25304098994999996,-18.523750000000003,1.49625,33.11000000000001,10.977851344845,-0.17530416573249993,1.8148662112524998,-50.6200625,-9.999062499999997,132.23656250000002,0.25123000000000006,0.465822,0.03283699999999999,17.5,False,0
4.2912352085113525,7.7383882883999995,-4.96091945545,0.37148570864999997,1.49625,0.24500000000000002,28.7525,11.4379013999775,-0.1165304606199998,1.8963418207824998,-53.6948125,-6.891500000000001,119.43837500000004,0.26138000000000006,0.4595919999999999,0.03283699999999999,17.5,False,0
4.303759813308716,8.07757089195,-4.858028083649999,0.7184449856499999,22.5925,1.61,30.397500000000004,11.774302347254999,-0.19495522133499973,1.95218431821,-51.48062500000001,-5.289812500000001,106.540875,0.27018600000000015,0.4525639999999999,0.033172999999999994,17.5,False,0
4.316392183303833,8.33121008755,-4.3609191885,0.7680960546,30.520000000000003,8.7675,33.267500000000005,12.06520975485,-0.3694817197225,1.9719550149425,-46.79981250000001,-4.676,94.10624999999999,0.27899200000000013,0.445536,0.033172999999999994,17.5,False,0
4.32890510559082,8.2408810344,-3.9248272696499997,0.6903293201,20.501250000000002,14.918750000000001,31.281250000000004,12.1452795811025,-0.5906383485274997,1.9248164097225,-43.950375,-3.4243125000000005,83.05587499999999,0.2857400000000001,0.43996399999999997,0.03305399999999999,17.5,False,0
4.341524600982666,8.00937544785,-4.08275356125,1.1461620253999998,0.35875,18.173750000000002,32.322500000000005,12.0974829496675,-0.8303991730474996,1.8012271224324998,-44.62762500000001,-1.4577499999999999,73.10318749999999,0.2924880000000001,0.434392,0.03305399999999999,17.5,False,0
4.354030132293701,8.0865439767,-4.1826539047999995,1.4542379351499999,-17.045,17.622500000000002,39.698750000000004,11.773405038780002,-1.1253743790625,1.7404793386749997,-48.84512500000001,-0.41387500000000016,63.58493750000001,0.29835400000000006,0.428904,0.033263999999999995,17.5,False,0
4.366510629653931,8.408976822049999,-3.94516626175,1.8628123941,-28.20125,10.718750000000002,41.53625,11.3267547902075,-1.4920744425124999,1.7882460598274998,-53.486125,-0.5617499999999994,55.40106249999999,0.30422000000000005,0.4234160000000001,0.033263999999999995,17.5,False,0
4.379221439361572,8.58843851705,-3.60179621865,2.4921247379,-26.71375,4.20875,38.12375,10.877472436775001,-1.8221044996174995,1.9302899914199998,-55.64256250000001,-0.7993124999999992,48.682375,0.307776,0.41812400000000005,0.033214999999999995,17.5,False,0
4.391817092895508,8.436494281949999,-3.569493113549999,3.38763859595,-13.3,6.8425,37.056250000000006,10.407043513615003,-2.1481265788674997,2.1081664414475,-51.91987500000001,0.4567500000000001,42.6619375,0.31133200000000005,0.41283200000000003,0.033214999999999995,17.5,False,0
4.4045326709747314,8.4239319633,-3.2949167202,3.2997023654,-4.7075000000000005,13.825000000000001,34.895,9.882297517435001,-2.4970599345125,2.156351906555,-42.852250000000005,3.9173750000000007,36.781062500000004,0.31375400000000003,0.40796,0.032844,17.5,False,0
4.416971445083618,7.70429056635,-4.024129407549999,2.93300230195,-3.6225000000000005,17.867500000000003,31.797500000000003,9.327820700450003,-2.9229225367475,2.0219949175650003,-32.63181250000001,8.468250000000001,31.862687499999993,0.31617600000000007,0.403088,0.032844,17.5,False,0
4.429660081863403,7.831708369799999,-4.570291166,2.17088830385,-16.38875,18.66375,33.915000000000006,8.817850383825,-3.4287652343875004,1.7351253981074997,-24.1583125,11.586312500000002,30.254,0.31848600000000005,0.39963000000000004,0.033214999999999995,17.5,False,0
4.44239354133606,7.610970484949999,-4.8598227006,1.6067803759,-37.24875,10.447500000000002,33.005,8.450552114725001,-3.8349468707374994,1.4385350368374996,-19.1611875,12.519500000000003,30.478,0.320796,0.396172,0.033214999999999995,17.5,False,0
4.454876184463501,7.454240604649999,-5.3431728658,1.99262302015,-48.431250000000006,1.1900000000000002,35.743750000000006,8.2143506138225,-4.1254355343775,1.2411869929025,-16.8616875,11.6038125,31.143437500000005,0.32351200000000013,0.39338599999999996,0.032633999999999996,17.5,False,0
4.467411756515503,7.50927552445,-5.067400061149999,2.67816669505,-47.915000000000006,-2.8437500000000004,40.98500000000001,8.079814163137499,-4.318626049044999,1.2063714240724999,-15.768375,9.830187500000001,31.825937500000002,0.3262280000000001,0.39059999999999995,0.032633999999999996,17.5,False,0
4.480083227157593,7.859225829699999,-4.575675016849999,3.1328029890499995,-42.7,-3.7887500000000003,42.236250000000005,8.00506836717,-4.437459601417499,1.3234103594949997,-15.180812500000002,8.39825,32.666812500000006,0.32877600000000007,0.3888219999999999,0.032851,17.5,False,0
4.492806911468506,7.936992564199999,-4.33878557945,3.2135607518,-39.401250000000005,-1.8550000000000002,39.795,7.99059179044,-4.4731126581575,1.5006287833074998,-15.264375000000005,7.830375000000001,33.789,0.3313660000000001,0.38651199999999997,0.032851,17.5,False,0
4.513655424118042,8.4059857938,-4.88075989835,3.2506495021,-43.8025,3.9025000000000003,38.70125,8.002615724005,-4.441138566165,1.6962420308575,-15.851062500000001,7.57925,34.916875000000005,0.3333120000000001,0.384356,0.032851,17.5,False,0
4.529887914657593,9.5413801175,-4.88913477745,2.5734807063,-42.9275,0.22750000000000004,38.298750000000005,8.0518779592825,-4.413740747395001,1.8870696332074999,-16.874812500000004,7.3950625,35.585375000000006,0.3355520000000001,0.381752,0.032591999999999996,17.5,False,0
4.561913013458252,10.257432280549999,-5.13798832785,1.9513468303,-60.48875,-11.75125,35.665000000000006,8.1840814079325,-4.3942691534875005,2.0226828540624995,-18.022375000000004,7.000000000000002,35.6934375,0.33836600000000006,0.37878399999999995,0.031969,17.5,False,0
4.5806543827056885,9.8010013696,-4.971687157149999,2.68654157415,-79.06500000000001,-11.943750000000001,42.7875,8.3032439734125,-4.4147876072825,2.1194127076674993,-20.686750000000004,6.314000000000002,35.9690625,0.34095600000000004,0.37540999999999997,0.032095,17.5,False,0
4.598010063171387,9.665208687049999,-4.44406977385,3.24167641735,-70.27125000000001,-8.277500000000002,39.37500000000001,8.396444413682499,-4.4064725487475,2.2333708839925,-25.099812500000006,5.8038750000000014,36.65025000000001,0.34308400000000006,0.37157399999999996,0.03210899999999999,17.5,False,0
4.624125003814697,9.05264610145,-3.10049988395,3.0604201053999995,-32.34875,-10.123750000000001,25.698750000000004,8.4691862207225,-4.371148505114999,2.3622542912849998,-29.312937500000004,5.2495625000000015,36.873375,0.34557600000000005,0.367178,0.03217199999999999,17.5,False,0
4.642155647277832,7.8305119585,-2.7242285300999995,2.5441686294499997,-18.121250000000003,-23.003750000000004,12.083750000000002,8.490452431579998,-4.319343895825,2.4739093758574997,-31.866187500000002,3.9370624999999997,36.260000000000005,0.3476060000000001,0.361746,0.031800999999999996,17.5,False,0
4.66254186630249,6.728617151199999,-2.4658036893,2.8073791154499994,-36.478750000000005,-18.515,11.1475,8.435267960367499,-4.2511783620075,2.5655544814374998,-33.794250000000005,2.0269375,35.308875,0.3497200000000001,0.356426,0.031135999999999997,17.5,False,0
4.67514443397522,6.46121922565,-2.0787646337499996,2.7349962317999994,-57.72375,-14.34125,6.6937500000000005,8.358488265189997,-4.1659340568825005,2.6363820303975,-35.7875,0.24806249999999963,34.111000000000004,0.35102200000000006,0.35140000000000005,0.031135999999999997,17.5,False,0
4.687990188598633,6.51505773415,-1.8364913454999998,2.7194428849,-57.29500000000001,-14.953750000000001,0.7175,8.272675664697498,-4.05667179491,2.6911776679374997,-37.616249999999994,-1.1816875000000007,32.330375,0.352394,0.3457580000000001,0.03130399999999999,17.5,False,0
4.700417995452881,6.629315013299999,-1.4063814831500001,2.8175486115,-39.59375000000001,-15.146250000000002,-7.035000000000001,8.170561960242498,-3.9495032527125007,2.7268307246775,-38.797937499999996,-2.3086875000000004,30.0768125,0.354046,0.3405500000000001,0.03130399999999999,17.5,False,0
4.712953567504883,6.784848482299999,-0.8309076478499999,2.7714867764499997,-18.060000000000002,-11.707500000000001,-23.677500000000002,8.080292727657497,-3.8287554422600003,2.7200710008325,-39.34875,-3.237937500000001,27.528375,0.3554320000000001,0.335104,0.030869999999999998,17.5,False,0
4.7254860401153564,6.567699831349999,-1.2987044661499998,2.8420750431499995,-0.7612500000000001,-2.31875,-43.837500000000006,7.9907413418525,-3.7050166035574996,2.688994217315,-39.570125000000004,-4.189500000000002,24.0830625,0.35684600000000005,0.33002200000000015,0.030869999999999998,17.5,False,0
4.7381227016448975,6.285944970199998,-2.1690936868999997,2.5902304645,15.933750000000002,10.03625,-55.212500000000006,7.898886864294999,-3.615943782272499,2.6681467504125,-39.206125,-4.914437500000001,20.006875000000008,0.35789600000000005,0.32530400000000004,0.031842999999999996,17.5,False,0
4.750548362731934,6.4881384799,-2.8211378453999996,1.9573288867999998,23.441250000000004,26.608750000000004,-59.12375000000001,7.82740128912,-3.529772258389999,2.6475086554875,-37.845062500000004,-5.070625000000001,15.526437500000005,0.35858200000000007,0.3208520000000001,0.031842999999999996,17.5,False,0
4.763373851776123,6.8410798133999995,-3.0897321822499997,1.2675977723499998,26.101250000000004,40.43375,-60.34,7.762854899485001,-3.447788174057499,2.6393730586474997,-35.366625000000006,-4.321187499999999,10.828125000000004,0.35926800000000003,0.31640000000000007,0.031842999999999996,17.5,False,0
4.776003360748291,6.984649169399999,-3.2207392195999995,0.84167534955,28.000000000000004,48.798750000000005,-57.96000000000001,7.729385293367502,-3.3544680926574992,2.6070699535475,-31.91168750000001,-2.428999999999999,6.195000000000004,0.35933800000000005,0.31221400000000005,0.03217199999999999,17.5,False,0
4.788665294647217,7.60498842845,-1.7976079782499998,0.6711867392999998,21.93625,52.675000000000004,-63.49000000000001,7.715925666242501,-3.2300413174574993,2.5375584570174996,-28.11156250000001,0.16275000000000012,1.4201250000000012,0.359408,0.3080280000000001,0.03217199999999999,17.5,False,0
4.8016197681427,8.3581293418,-1.08574325475,0.8147560952999998,8.627500000000001,48.5275,-77.98,7.734769144217502,-3.0539893946624996,2.423360998432499,-24.93443750000001,2.982875000000001,-4.101124999999998,0.35987,0.3045420000000001,0.031695999999999995,17.5,False,0
4.814337491989136,9.18185852185,-0.5718846013999999,1.8017954178,-4.112500000000001,38.24625,-87.33375000000001,7.764529875305001,-2.8827829376325,2.3239990399674997,-22.69093750000001,5.375562500000001,-10.24625,0.36029000000000005,0.3015880000000001,0.031695999999999995,17.5,False,0
4.826903820037842,10.54457099255,1.11086789205,2.53220451645,-7.76125,34.49250000000001,-94.52625,7.8437023930825,-2.6724239208100005,2.270310082879999,-21.09187500000001,7.2069375,-16.702875,0.3606540000000001,0.29909600000000003,0.03215799999999999,17.5,False,0
4.8395676612854,12.113664412499999,2.7493531674,2.6829523402499995,4.4625,31.176250000000003,-119.76125000000002,7.976264765122499,-2.343350992745,2.2507188478424993,-19.246500000000005,8.6541875,-23.782937500000003,0.36072400000000004,0.29705200000000004,0.03215799999999999,17.5,False,0
4.8523101806640625,13.938191645,4.68335203385,2.6344976825999997,27.177500000000002,23.056250000000002,-160.79875,8.1120574476725,-1.9385751396725002,2.2877776878599994,-16.24875000000001,10.307500000000001,-32.3995,0.36036000000000007,0.2958900000000001,0.03230499999999999,17.5,False,0
4.864841938018799,15.940385955549997,4.8059841920999995,2.3551356440499998,44.292500000000004,6.6937500000000005,-192.41250000000002,8.361389562592498,-1.4433206820375004,2.3059930499024994,-11.196062500000005,11.849250000000001,-42.7805,0.36022000000000004,0.2951340000000001,0.03230499999999999,17.5,False,0
4.877530574798584,18.7094799094,6.2733826515499995,1.6420745092499998,51.48500000000001,-25.305000000000003,-217.79625000000001,8.7003328838825,-0.9444470802200001,2.2787447825449996,-4.722374999999998,12.164250000000001,-54.8620625,0.35968800000000006,0.2961140000000001,0.032626999999999996,17.5,False,0
4.890286207199097,19.5996099166,8.858229265199999,0.11844471869999999,31.893750000000004,-62.11625000000001,-261.61625000000004,9.201539487735,-0.38339000108499977,2.1709481244149993,0.43312500000000115,10.7139375,-68.19793750000001,0.3587920000000001,0.2976540000000001,0.032626999999999996,17.5,False,0
4.90292763710022,19.5996099166,11.448459729699998,-2.6129622791999996,-15.758750000000001,-97.2125,-286.72,9.742227664487501,0.24652054836500023,1.9923538276075,2.5926250000000017,7.6733125,-83.15431250000002,0.35679000000000005,0.30164400000000013,0.03222099999999999,17.5,False,0
4.915581226348877,19.5996099166,10.791629926,-6.5180487623999985,-114.07375,-138.64375,-286.72,10.367711492127501,0.9643374180825001,1.6535899680125,1.6283749999999988,3.3315625000000013,-98.08137500000001,0.354704,0.3055220000000001,0.03222099999999999,17.5,False,0
4.928382158279419,19.5996099166,9.429515660949999,-9.64965534015,-225.72375000000002,-190.63625000000002,-286.72,11.01882843187,1.575254938145,1.1156236269675008,-3.7121875000000015,-3.917812499999998,-112.91787500000002,0.350392,0.3104920000000001,0.031871,17.5,False,0
4.941000461578369,19.5996099166,10.449456294199999,-11.054840412,-286.72,-241.56125000000003,-286.72,11.676076979525002,2.1323937702725,0.4638785712925005,-14.231,-13.797875,-127.48137500000003,0.34601,0.3160780000000001,0.031871,17.5,False,0
4.953665018081665,19.5996099166,9.8727860476,-12.7393875224,-286.72,-286.72,-286.72,12.328390330567501,2.73762833666,-0.2657827702949997,-25.906125000000003,-26.253499999999995,-141.62618750000001,0.339136,0.3210900000000001,0.030071999999999998,17.5,False,0
4.966821670532227,19.5996099166,9.839884736850001,-12.300304575299998,-286.72,-286.72,-286.72,12.9692480434125,3.2537601714799997,-1.046201861285,-38.650937500000005,-39.8671875,-155.29500000000002,0.33252800000000005,0.32633999999999996,0.030071999999999998,17.5,False,0
4.979448318481445,19.5996099166,12.399606713199999,-8.284550046849999,-286.72,-286.72,-286.72,13.613694990157502,3.8228332063249995,-1.7459828306549994,-52.392375,-53.7534375,-168.03281250000003,0.321552,0.32873399999999997,0.028238000000000003,17.5,False,0
4.994645833969116,1.0719845248,15.485151455899999,-2.0350956212999995,-286.72,-284.41875000000005,-286.72,14.0849015806625,4.660739860279999,-2.1952950943699996,-66.9694375,-68.15156250000001,-179.97043750000006,0.31094,0.33076399999999995,0.028238000000000003,17.5,True,1
5.0072855949401855,-19.5996099166,19.5996099166,-5.243272522249999,-275.17,-115.99000000000001,-286.72,13.4432063799075,5.6928539785074985,-2.3584556854075,-82.31912500000001,-80.75418750000001,-191.4390625000001,0.2962539999999999,0.32821599999999995,0.026495,17.5,True,1
5.0198211669921875,-19.5996099166,19.5996099166,-19.5996099166,-286.72,-40.145,-286.72,12.133644481209998,6.820890372712499,-2.94508605608,-97.49906250000001,-85.70931250000001,-202.7685625000001,0.28156799999999993,0.32566799999999996,0.026495,17.5,True,1
5.032434701919556,-19.5996099166,10.366903914499998,-19.5996099166,-286.72,-286.01125,-286.72,10.809905108607499,7.962206932347499,-3.9765421480925,-113.19831250000001,-92.32475000000001,-214.1243125000001,0.26441799999999993,0.319088,0.026187000000000005,17.5,True,1
5.048234462738037,-19.5996099166,6.293123438,14.029118903799999,-286.72,-286.72,-286.72,9.47127041532,8.570163334442498,-4.8072703342475,-128.85906250000002,-109.22449999999999,-225.5688750000001,0.24588199999999993,0.304836,0.029127000000000004,17.5,True,1
5.06059193611145,-19.5996099166,16.797614652,19.5996099166,-286.72,-286.72,-286.72,8.090821147097499,8.939914246707499,-3.857648775154999,-144.04906250000005,-126.2065,-236.4884375000001,0.22695399999999996,0.289884,0.029127000000000004,17.5,True,1
5.073233604431152,-19.5996099166,-19.5996099166,19.5996099166,125.3525,-45.21125000000001,-286.41375000000005,6.683003970387499,8.884400762387497,-2.9366214461324986,-158.58543750000004,-142.7741875,-246.7456250000001,0.20753600000000003,0.26796,0.03638599999999999,17.5,True,1
5.085742235183716,-19.5996099166,-19.5996099166,3.4971102298999996,286.67625000000004,286.67625000000004,286.67625000000004,5.220271515007499,7.915337519669997,-2.0631215560024985,-143.90731250000005,-133.28743750000004,-247.7728750000001,0.1881740000000001,0.24557400000000001,0.03638599999999999,17.5,True,1
5.0983567237854,-8.4059857938,19.5996099166,-19.5996099166,286.67625000000004,198.32750000000001,286.67625000000004,3.6824044299874985,7.431149866559997,-3.1746474742674993,-129.27731250000005,-120.62443750000004,-228.2853125000001,0.16881200000000007,0.22318800000000003,0.030624999999999996,17.5,True,1
5.1108903884887695,13.686945271999999,19.5996099166,-19.5996099166,-183.28625000000002,-234.13250000000002,65.22250000000001,3.164178875392498,8.248268874177498,-4.294009886547499,-115.60675000000003,-123.14312500000003,-207.17987500000004,0.15115800000000007,0.20426000000000002,0.030624999999999996,17.5,True,1
5.123694896697998,9.62572711415,19.5996099166,11.579466767049999,-286.72,-204.05875000000003,-83.89500000000001,3.108456019094999,8.997192437694997,-5.136552634289998,-131.68093750000003,-135.70987500000007,-200.90218750000008,0.13350400000000007,0.185332,0.030624999999999996,17.5,True,1
5.136419773101807,-2.2899312282,14.221142917449999,19.5996099166,-115.20250000000001,-172.40125,-59.84125,2.448365994602498,9.719705221764997,-4.269303993202499,-148.53956250000005,-145.50856250000007,-194.96312500000005,0.11447800000000008,0.16717400000000004,0.030261,17.5,True,1
5.148957252502441,-7.246065038449999,4.259224228,19.5996099166,39.033750000000005,7.367500000000001,-21.883750000000003,1.2091530803449984,9.862556730984998,-3.3526136551424996,-151.13700000000009,-149.59700000000004,-185.73975000000007,0.09545200000000002,0.149016,0.030261,17.5,True,1
5.161725759506226,-8.260621820849998,-2.2109680824,19.5996099166,31.902500000000003,164.2375,-0.8225000000000001,-0.08892326987250092,9.446624342539998,-2.3392233737599994,-150.44006250000004,-142.23518750000002,-172.5762500000001,0.076958,0.12747000000000003,0.03214399999999999,17.5,True,1
5.174407482147217,-11.076974021049999,-4.3477586642,9.250652171599999,33.057500000000005,192.34250000000003,7.455000000000001,-1.56765772639,8.716693808409998,-1.249382410307498,-146.51743750000009,-127.38337500000003,-158.03068750000008,0.05846399999999998,0.10592400000000002,0.03214399999999999,17.5,True,1
5.186850070953369,-9.2829552767,-3.8626138820500002,5.000999233999999,-12.818750000000001,134.2775,35.157500000000006,-3.0580272828000004,7.949674523979999,-0.46743789490999876,-137.91793750000005,-110.47925000000001,-142.87918750000009,0.04289599999999999,0.08349600000000006,0.031247999999999998,17.5,True,1
5.199688911437988,-8.9216390641,-1.8095720912499997,7.8963145799999985,-41.3875,85.96000000000001,44.17,-4.4688653980425,7.39717178564,0.33535408739000083,-125.98425000000002,-94.09881250000004,-126.38937500000006,0.027328000000000012,0.061068000000000025,0.031247999999999998,17.5,True,1
5.21234130859375,-8.7050886188,-1.4518451125499998,11.666206586300001,-23.896250000000002,67.82125,66.71875,-5.896124258377499,6.785985073035,1.4069497785175014,-113.83137500000005,-77.24456250000001,-109.68956250000005,0.015554000000000012,0.03936799999999998,0.030632,17.5,True,1
5.225151062011719,-8.937790616649998,2.5866412305999997,12.929616919099999,49.43750000000001,81.38375,91.13125000000001,-7.301578522769999,6.318816370667501,2.6800510428474995,-99.605625,-59.24668750000003,-91.28175,0.0037800000000000012,0.01766799999999999,0.030632,17.5,True,1
5.237695693969727,-10.787442486449999,5.6141600252499995,12.053245641849998,113.08500000000001,98.04375,93.30125000000001,-8.759704794645,6.015556016400001,3.9018561726899996,-81.37018750000001,-40.51993750000001,-72.49199999999999,-0.0037519999999999997,-0.0016520000000000094,0.030414999999999998,17.5,True,1
5.250369310379028,-12.071191811349998,2.62193536395,9.848259615949999,158.25250000000003,106.22500000000001,116.35750000000002,-10.0604132497225,5.466522870830001,4.788516587119999,-60.41962500000001,-21.097125,-53.15537499999999,-0.011284000000000002,-0.020971999999999994,0.030414999999999998,17.5,True,1
5.263045072555542,-14.2229375344,1.46620204815,7.9387871811499995,212.76500000000001,94.53500000000001,135.26625,-10.414580904804998,4.664329094180002,5.2905606788825,-37.17087500000001,-3.9974375000000073,-32.57362499999998,-0.01421,-0.03430000000000001,0.029498000000000003,17.5,True,1
5.275557518005371,-15.343376716849999,-0.7292126873499999,7.6941210703,281.52250000000004,79.19625,154.83125,-10.157980591237498,3.7100116207350005,6.1742001547799985,-11.20262500000001,3.8246249999999997,-11.255562500000014,-0.017136000000000005,-0.04762800000000002,0.029498000000000003,17.5,True,1
5.288218259811401,-17.44427495965,-1.2699905949499997,9.1226361625,286.67625000000004,53.313750000000006,190.96875000000003,-9.974810021207498,2.6719154460074988,7.557251617579999,17.467187499999994,11.788874999999996,11.358374999999995,-0.017766,-0.055328,0.028595,17.5,True,1
5.300701856613159,-16.9076844916,-0.9391828704999999,10.2939228252,286.67625000000004,39.20875,239.54875,-9.868598608049997,2.124288083714999,8.81551738179,46.137000000000015,28.396812500000003,35.94543750000001,-0.01701,-0.055355999999999995,0.028595,17.5,True,1
5.313349485397339,-16.19522156245,0.2656033086,10.448259882899999,286.67625000000004,45.57000000000001,273.89250000000004,-9.731669334764998,1.7908482544049995,8.34293491829,74.8068125,44.620625000000004,62.957125000000005,-0.016114,-0.05142199999999999,0.026775000000000004,17.5,True,1
5.325780153274536,-12.90867972135,0.09990034354999999,7.528418105249999,286.67625000000004,65.25750000000001,286.51875,-9.510602436807499,1.9013368379599995,7.8739715989725,103.47662500000001,61.584687499999994,91.31500000000001,-0.014728000000000002,-0.04051600000000001,0.026775000000000004,17.5,True,1
5.3389177322387695,-11.8193472327,-1.6295121905999996,3.5790644039499995,286.67625000000004,76.51,286.67625000000004,-9.14393228364,2.820001254664999,7.191688144865,103.47662500000001,53.94943750000001,111.15343750000002,-0.012978000000000003,-0.024360000000000003,0.026915,17.5,True,1
5.351656198501587,-6.55095007315,-0.6095715573499999,0.76989067155,286.67625000000004,65.30125000000001,286.67625000000004,-8.63115040046,3.155355342055,8.286883048885,103.47662500000001,43.302875,111.15343750000002,-0.011228000000000002,-0.008204,0.026915,17.5,True,1
5.364194869995117,-2.12781749705,0.55573304885,0.33678978094999995,286.67625000000004,46.27,286.67625000000004,-9.00981457691,2.189701871542499,9.283852585175001,103.47662499999998,47.3825625,111.15343750000002,-0.010220000000000002,0.009170000000000006,0.027251000000000004,17.5,True,1
5.376686334609985,1.4793625724500001,0.5330012341499999,2.4795624192499996,286.67625000000004,32.48875,283.24625000000003,-9.7401339447125,1.2323634595650004,10.063374367689999,132.1464375,61.078937500000016,127.77931250000002,-0.009212000000000007,0.026544000000000005,0.027251000000000004,17.5,True,1
5.389255046844482,6.571887270899999,-0.6197410534,1.5828521499,286.67625000000004,60.917500000000004,258.5625,-9.754640431725,0.27149563425250006,9.2141915372325,160.81625000000003,72.940875,145.50943750000002,-0.004102000000000002,0.04642400000000001,0.028546,17.5,True,1
5.4017815589904785,9.3367937852,-3.2392835947500003,0.1052841944,286.09875000000005,91.71750000000002,255.91125000000002,-9.105348019215,-0.293539512455,8.303214063130001,175.4318125,82.48931250000001,160.4973125,0.0010079999999999991,0.066304,0.028546,17.5,True,1
5.414375305175781,10.220343530249998,-3.1788648240999997,-0.2620140747,234.09750000000003,122.03625000000001,268.16125000000005,-8.3200535521775,-0.54496534715,7.314948419047499,187.408375,84.1194375,174.31793750000003,0.008554000000000003,0.09074800000000001,0.031226999999999994,17.5,True,1
5.426911115646362,11.9688986452,-1.9178473138999999,-0.8482556117,174.41375000000002,114.66875000000002,241.76250000000002,-7.2744498965424995,-0.5317450022849999,6.391947011379999,196.000875,80.87493750000002,187.37775000000002,0.016100000000000003,0.115192,0.031226999999999994,17.5,True,1
5.439601421356201,13.490135613149999,-1.63250321885,0.15074782379999999,150.52625,94.67500000000001,211.15500000000003,-6.131996746172501,-0.3396611680699999,5.984957797402499,203.09537500000002,77.42612500000001,198.08031250000005,0.025200000000000007,0.14075600000000002,0.031962,17.5,True,1
5.455595016479492,14.65783304195,-1.8933208822499998,2.0195422744,138.34625000000003,84.91875,165.34875000000002,-5.006083982025001,-0.3347558817399999,5.7353265796574995,211.827,76.2286875,205.48981250000003,0.03430000000000001,0.16632000000000002,0.031962,17.5,True,1
5.468317747116089,15.316457462599999,-5.922834140649999,4.584648101599999,110.03125000000001,71.37375,151.585,-3.8048272162600005,-0.4257429611049998,5.3784071785849985,220.51443750000004,76.33850000000001,210.74725000000004,0.044618000000000005,0.19264,0.03379599999999999,17.5,True,1
5.480934143066406,15.728022949799998,-6.072983758799999,4.858028083649999,79.93125,83.055,159.83625,-2.5992932800974993,-0.7210172699449999,4.987988261112499,225.59950000000003,76.3826875,214.53512500000002,0.054936000000000006,0.21896000000000004,0.03379599999999999,17.5,True,1
5.493544101715088,16.1970161794,-5.3551369788,2.8163522002,34.265,88.97875,128.345,-1.3275977990449999,-1.2292527901849999,4.5447776950274985,224.81506250000007,76.34812500000001,217.795375,0.06715800000000002,0.24592400000000003,0.03449599999999999,17.5,True,1
5.5061194896698,15.46062502425,-7.137789815799999,0.17407784415000002,2.0387500000000003,61.215,82.62625000000001,-0.034725837982499466,-1.7078173101850003,4.0592141689225,218.99237499999998,75.4438125,218.39081250000004,0.07938000000000002,0.2728880000000001,0.03449599999999999,17.5,False,1
5.5186591148376465,13.799407934199998,-8.672187308049999,-0.26141586904999997,0.5950000000000001,7.76125,55.597500000000004,1.3742279294625,-2.2573290202750003,3.5496625962525004,209.85999999999999,72.42987500000001,215.71112500000004,0.09224600000000002,0.29835400000000006,0.034866999999999995,17.5,False,1
5.531552791595459,12.239885804649997,-9.74776106675,2.22472681235,-3.3687500000000004,-30.038750000000004,49.35,2.7460331260424993,-2.7387649273949997,3.1851459834249995,198.00900000000004,67.486125,211.3195,0.10511200000000002,0.32382000000000005,0.034866999999999995,17.5,False,1
5.54425048828125,10.69531881635,-10.189236836449998,4.82811780115,-24.832500000000003,-18.856250000000003,52.92875000000001,4.131118488052499,-3.1789545549474996,2.9419155661349996,183.13093750000002,62.32362500000001,205.50512500000005,0.11811800000000001,0.3471160000000001,0.034943999999999996,17.5,False,1
5.556903123855591,9.3020978575,-9.15194823935,5.188237602449999,-24.613750000000003,15.9075,62.081250000000004,5.503791082824999,-3.5922548385324995,2.744926445589999,167.45181250000002,59.667125,198.10087500000003,0.13112400000000002,0.3704120000000001,0.034943999999999996,17.5,False,1
5.569645643234253,8.794221260649998,-8.24267565135,2.60279278315,-22.225,45.237500000000004,71.46125,6.7936121950725,-4.0149469508225,2.460778761839999,151.9765625,59.2799375,188.66400000000002,0.14448,0.38936800000000005,0.035098,17.5,False,1
5.582354307174683,8.1487573643,-7.350751027199999,-0.22612173569999997,-18.725,25.891250000000003,45.298750000000005,7.965736345682499,-4.386253197777499,2.0277376918049996,136.3635,58.818812500000014,177.8984375,0.15783600000000003,0.4083240000000001,0.035098,17.5,False,1
5.5949320793151855,8.01416109305,-6.64905579975,-0.78903325235,-12.932500000000001,-7.7525,12.705000000000002,9.012027937814999,-4.6834417646975,1.7030316649849997,121.1424375,55.61806249999999,165.2564375,0.17120600000000002,0.42182000000000003,0.03455899999999999,17.5,False,1
5.607456684112549,6.914659108349999,-7.3758756645,-0.5922235935,-3.0362500000000003,-25.698750000000004,4.138750000000001,9.845747152220001,-4.949733009795,1.5416357806149998,106.39956250000003,51.1643125,151.28006249999999,0.18457600000000002,0.4353160000000001,0.03455899999999999,17.5,False,1
5.620092153549194,6.37866684595,-7.5110701413999985,0.6400800454999999,-3.6750000000000003,-24.071250000000003,15.645000000000001,10.423195066165,-5.3412586077199995,1.5093924960799998,91.90868750000001,46.63181250000001,137.2485625,0.19720400000000002,0.4439400000000001,0.034957999999999996,17.5,False,1
5.63277792930603,6.476174366899999,-5.94915518925,0.9433703100499999,-13.090000000000002,-4.025,36.645,10.7733547433925,-5.7262338537775,1.4938092388974997,77.25987500000002,43.687875000000005,124.05356249999997,0.20983200000000002,0.4525640000000002,0.034957999999999996,17.5,False,1
5.645200490951538,7.114459795449998,-4.6552363683,0.4821537538999999,-15.802500000000002,12.853750000000002,42.017500000000005,10.9635841400925,-6.029135284655,1.4104193712875,62.338500000000025,41.9295625,112.34562499999997,0.219828,0.4566100000000001,0.03466399999999999,17.5,False,1
5.671279668807983,7.475177802399999,-3.5174492219999998,0.6305087550999998,-26.85375,12.075000000000001,26.188750000000002,10.937412642904999,-6.1786567868725,1.3641182539775,46.91356250000002,38.906875,101.78437500000001,0.22982399999999997,0.46065600000000007,0.03466399999999999,17.5,False,1
5.687948226928711,7.457829838549999,-4.354937132,0.8847461563499999,-16.957500000000003,10.850000000000001,19.94125,10.846724666364997,-6.1797335570425,1.4059328289125,32.02762500000001,34.226937500000005,89.784625,0.239372,0.46138400000000007,0.034594,17.5,False,1
5.707400560379028,7.411768003499999,-4.9005006848,1.0492527101,29.5925,13.72,31.298750000000002,10.677312826284998,-6.2700027896275,1.4879468235275002,21.645312499999996,28.46637500000001,77.6475,0.24885000000000002,0.46230800000000005,0.034061999999999995,17.5,False,1
5.741856575012207,8.28215722425,-4.638486610099999,0.6855436748999999,4.6725,29.347500000000004,29.618750000000002,10.423314707294999,-6.451109550165,1.5728621155450002,15.143625000000005,23.912875000000003,67.84618750000001,0.2565640000000001,0.4617620000000001,0.034426,17.5,False,1
5.761783838272095,8.216952808399999,-5.181657340299998,0.25663022385,-18.488750000000003,20.720000000000002,16.73,10.135697430775,-6.6029939647,1.5607484511325,7.461562499999999,20.808375000000005,59.48950000000001,0.26448800000000006,0.46103400000000017,0.034936999999999996,17.5,False,1
5.777796506881714,7.919644600349999,-6.24107954645,0.34995030525,0.9887500000000001,4.9,7.796250000000001,9.788588602362498,-6.69607476384,1.4505290601199998,0.31150000000000155,17.657062500000006,52.447500000000005,0.269948,0.4591020000000001,0.03530099999999999,17.5,False,1
5.797911882400513,7.330412035099999,-7.631309477049999,0.52701917765,35.253750000000004,-0.20125,19.521250000000002,9.39470009212,-6.724728814475,1.2255738254375,-3.708687500000001,13.956687500000001,45.04281250000001,0.27613600000000005,0.4571840000000001,0.034887999999999995,17.5,False,1
5.81287145614624,7.350751027199999,-7.243074010199999,0.45822552789999993,42.603750000000005,7.708750000000001,28.647500000000004,8.96207776604,-6.805546397789999,1.0339386454600001,-4.741187499999998,9.6604375,38.58706250000001,0.280546,0.455098,0.034887999999999995,17.5,False,1
5.825392007827759,7.5182486092,-7.211967316399999,-0.21595223965000002,25.121250000000003,16.5375,27.562500000000004,8.5492859572575,-6.8890259962475,0.9495617385274999,-3.581375,6.05675,34.52793750000001,0.284382,0.452942,0.03527999999999999,17.5,False,1
5.838013648986816,7.6366933279,-6.29132882105,-0.3696910917,-1.12,15.636250000000002,24.12375,8.2149488194725,-6.7776999247825005,0.9820143950399999,-2.665687499999998,4.600750000000001,32.23412500000001,0.2870420000000001,0.45087,0.03527999999999999,17.5,False,1
5.850569248199463,7.56789967815,-6.7657059015,-0.16570296504999998,-14.507500000000002,11.4975,14.892500000000002,7.949614703414999,-6.652495482237498,0.9422636295974998,-3.2108124999999985,5.8069375,30.572062500000005,0.29015,0.4490920000000001,0.035231,17.5,False,1
5.863382816314697,7.360920523249999,-7.100701065499999,-0.20039889274999997,-8.61875,3.6750000000000003,14.682500000000001,7.7351280676075,-6.502824428607498,0.7724928661274999,-3.3521249999999987,7.854000000000001,28.8159375,0.2932020000000001,0.44766400000000006,0.035231,17.5,False,1
5.876034498214722,7.135396993199999,-6.9457658021499995,-0.1878365741,16.59,-5.32875,21.79625,7.609624522237498,-6.359793457692497,0.4876572458799999,-2.057125,8.2438125,26.763187500000004,0.29621200000000003,0.44623600000000013,0.035182,17.5,False,1
5.8886590003967285,7.0749782225499995,-6.51625414545,-0.08673981925,26.862500000000004,-7.262500000000001,20.6675,7.505058174617498,-6.2240306854249985,0.255373991985,0.19206249999999975,6.425562500000001,24.502625000000002,0.2987320000000001,0.4451860000000001,0.035182,17.5,False,1
5.901427745819092,6.845865458599999,-5.893522063799999,-0.09212367009999999,28.840000000000003,-3.7012500000000004,29.40875,7.442994338429999,-6.181528173992499,0.17973088754249997,2.9553125,3.967687500000001,22.365875000000003,0.30171400000000004,0.4440660000000001,0.03522399999999999,17.5,False,1
