time,accX,accY,accZ,gyroX,gyroY,gyroZ,temp
1607123372.0668774,-0.189212447095,0.7941180003750001,9.555637352158334,-2.4383333333333335,-4.315208333333333,-4.723541666666666,-0.13437200000000002,-0.16678666666666675,0.0009986666666666666,16.5,False
1607123372.0818472,-0.09892327432166663,0.7638288542966668,9.866963512606667,-0.7020416666666667,0.0002916666666666253,0.9619166666666665,-0.13441866666666671,-0.1664693333333334,0.0009986666666666666,16.5,False
1607123372.0956063,-0.09956136034833331,0.7634699309066666,9.867920641646666,0.2225416666666667,-0.0662083333333335,0.9050416666666666,-0.13471733333333338,-0.16646933333333333,0.0012226666666666668,16.5,False
1607123372.1104143,-0.09858429111999996,0.7630910673283335,9.867182854678333,0.5372499999999997,-0.029166666666666747,0.9400416666666666,-0.13501600000000005,-0.16670266666666667,0.0012226666666666668,16.5,False
1607123372.1251113,-0.09792626490499996,0.7624330411133334,9.8668039911,0.24179166666666665,-0.12250000000000015,0.8959999999999998,-0.13521200000000005,-0.1667586666666666,0.0011713333333333335,16.5,False
1607123372.1512902,-0.09834500885999999,0.7618547756516667,9.865168895656668,-0.33979166666666666,-0.2875833333333334,0.7979999999999999,-0.1350626666666667,-0.16717866666666661,0.0012413333333333334,16.5,False
1607123372.1698058,-0.09842476961333331,0.76235328036,9.864351347935001,-0.9928333333333336,-0.46724999999999994,0.7002916666666666,-0.13518400000000005,-0.167496,0.001204,16.5,False
1607123372.1968548,-0.09768698264499999,0.7618946560283334,9.865607579799997,-1.419541666666667,-0.5912083333333334,0.6349583333333333,-0.13516533333333333,-0.167748,0.0011853333333333334,16.5,False
1607123372.2204936,-0.09890333413333334,0.7614559718849999,9.864929613396665,-1.6359583333333334,-0.6492500000000001,0.595875,-0.13509066666666666,-0.1676173333333333,0.0013440000000000001,16.5,False
1607123372.2474585,-0.097686982645,0.762413100925,9.863753142284997,-1.7243333333333335,-0.6763750000000002,0.576625,-0.13487600000000002,-0.16751466666666667,0.0010406666666666665,16.5,False
1607123372.2716482,-0.09808578641166667,0.7618348354633331,9.863354338518333,-1.7648750000000002,-0.6903750000000002,0.5742916666666666,-0.13466133333333333,-0.167496,0.00126,16.5,False
1607123372.2865832,-0.09838488923666668,0.7623931607366665,9.863194817011665,-1.7791666666666666,-0.7011666666666669,0.5646666666666668,-0.13467999999999997,-0.1674773333333333,0.00126,16.5,False
1607123372.3116322,-0.09784650415166668,0.762911605633333,9.862895714186665,-1.8127083333333334,-0.7110833333333335,0.5591250000000001,-0.134652,-0.1676453333333333,0.0014420000000000001,16.5,False
1607123372.326661,-0.09790632471666667,0.7628717252566665,9.862636491738334,-1.8179583333333336,-0.7052500000000002,0.5623333333333334,-0.13465199999999997,-0.16787866666666665,0.001064,16.5,False
1607123372.341326,-0.09770692283333333,0.7628517850683332,9.862237687971666,-1.8290416666666667,-0.7002916666666668,0.5576666666666666,-0.134652,-0.16811199999999996,0.001064,16.5,False
1607123372.355708,-0.09796614528166665,0.7632306486466666,9.86054277196333,-1.8363333333333338,-0.7061250000000001,0.56,-0.134708,-0.16825199999999993,0.0009986666666666666,16.5,False
1607123372.370249,-0.09946165940666664,0.7636892729783331,9.859884745748332,-1.8526666666666673,-0.7131250000000001,0.5562083333333335,-0.13468933333333333,-0.16796266666666662,0.001204,16.5,False
1607123372.384997,-0.0990827958283333,0.7632904692116665,9.858349351246664,-1.859958333333334,-0.7137083333333333,0.5515416666666668,-0.13467066666666666,-0.1676733333333333,0.001204,16.5,False
1607123372.3993735,-0.09938189865333331,0.7681359349766664,9.859246659721665,-1.8622916666666671,-0.720125,0.5506666666666667,-0.134484,-0.1674773333333333,0.0011666666666666668,16.5,False
1607123372.4130206,-0.09890333413333333,0.7681159947883333,9.860183848573334,-1.8614166666666672,-0.721875,0.5541666666666668,-0.13429733333333335,-0.16728133333333334,0.0011666666666666668,16.5,False
1607123372.4275384,-0.09804590603499998,0.7635297514716667,9.858349351246666,-1.8512083333333336,-0.7154583333333334,0.5532916666666667,-0.13412,-0.16714133333333334,0.0010313333333333333,16.5,False
1607123372.4413955,-0.09890333413333331,0.7625327420550001,9.85878803539,-1.8380833333333337,-0.7075833333333333,0.5573750000000001,-0.13412933333333335,-0.16718800000000003,0.0010313333333333333,16.5,False
1607123372.4558074,-0.09946165940666664,0.7628517850683334,9.858568693318334,-1.8418750000000004,-0.7035000000000001,0.5605833333333334,-0.13412933333333335,-0.16734666666666667,0.0011806666666666667,16.5,False
1607123372.4706085,-0.09926225752333331,0.7623133999833333,9.857890726915,-1.829625,-0.6991250000000002,0.5585416666666668,-0.13412933333333335,-0.16750533333333334,0.0011806666666666667,16.5,False
1607123372.4852374,-0.09854441074333332,0.7611768092483333,9.858309470870001,-1.8217500000000002,-0.6897916666666668,0.5632083333333335,-0.13424133333333335,-0.16768266666666673,0.0008586666666666666,16.5,False
1607123372.499917,-0.09884351356833333,0.7608777064233333,9.859466001793331,-1.80775,-0.6778333333333335,0.5617500000000002,-0.13432533333333335,-0.1678693333333334,0.0014513333333333336,16.5,False
1607123372.513699,-0.09834500886,0.7608178858583333,9.860343370079999,-1.8179583333333333,-0.6740416666666669,0.5605833333333334,-0.13440933333333333,-0.16805600000000004,0.0014513333333333336,16.5,False
1607123372.528449,-0.09736793963166666,0.7609774073650001,9.861260618743334,-1.808625,-0.6565416666666669,0.5637916666666668,-0.13429733333333335,-0.16807466666666668,0.0011713333333333335,16.5,False
1607123372.543048,-0.09748758076166664,0.7605985437866667,9.860243669138335,-1.800458333333333,-0.6542083333333334,0.5649583333333333,-0.13418533333333335,-0.16809333333333332,0.0011713333333333335,16.5,False
1607123372.5576468,-0.09643075077999999,0.7604789026566666,9.85974516443,-1.7841249999999997,-0.6577083333333336,0.5629166666666666,-0.13413866666666668,-0.16843866666666668,0.0009893333333333332,16.5,False
1607123372.5715208,-0.096849494735,0.760020278325,9.859765104618337,-1.7826666666666664,-0.6687916666666669,0.5693333333333332,-0.13409200000000002,-0.168784,0.0009893333333333332,16.5,False
1607123372.5862358,-0.09543374136333331,0.7597809960649999,9.860841874788337,-1.7949166666666663,-0.6792916666666667,0.5693333333333332,-0.13395200000000004,-0.16912,0.0011246666666666666,16.5,False
1607123372.6009614,-0.09605188720166664,0.7595018334283332,9.861260618743334,-1.802208333333333,-0.6915416666666668,0.5565,-0.1335786666666667,-0.16899866666666669,0.0013393333333333334,16.5,False
1607123372.6155136,-0.09617152833166664,0.7596812951233332,9.858748155013332,-1.7972499999999998,-0.697375,0.5445416666666667,-0.13320533333333337,-0.16887733333333335,0.0013393333333333334,16.5,False
1607123372.6293244,-0.09645069096833334,0.7597809960649999,9.857930607291665,-1.7995833333333333,-0.7011666666666667,0.5392916666666666,-0.13309333333333337,-0.16884000000000005,0.0012086666666666667,16.5,False
1607123372.6433814,-0.09674979379333334,0.7606184839749999,9.857711265219999,-1.796375,-0.7005833333333334,0.5433749999999999,-0.1333266666666667,-0.1684386666666667,0.0012086666666666667,16.5,False
1607123372.6579192,-0.09645069096833335,0.7602396203966665,9.857053239005001,-1.78325,-0.6953333333333332,0.54075,-0.13347600000000007,-0.16818666666666668,0.0011013333333333333,16.5,False
1607123372.6716294,-0.09641081059166669,0.7600202783249997,9.856853837121667,-1.7666250000000001,-0.6956249999999998,0.5395833333333332,-0.1337653333333334,-0.168,0.0011013333333333333,16.5,False
1607123372.686327,-0.09585248531833335,0.7596414147466664,9.855717246386668,-1.778,-0.707875,0.5410416666666668,-0.1335413333333334,-0.168028,0.0012086666666666667,16.5,False
1607123372.701069,-0.09585248531833335,0.7601797998316665,9.856694315615,-1.7814999999999999,-0.7084583333333333,0.5454166666666667,-0.13345733333333337,-0.168028,0.0012086666666666667,16.5,False
1607123372.71556,-0.09527421985666669,0.7598009362533332,9.855517844503334,-1.7879166666666664,-0.7160416666666668,0.5433749999999999,-0.1336066666666667,-0.16786933333333331,0.0010033333333333333,16.5,False
1607123372.730481,-0.09529416004500003,0.7601399194549998,9.855657425821667,-1.7949166666666665,-0.7142916666666667,0.5454166666666665,-0.13346666666666668,-0.167692,0.0013953333333333337,16.5,False
1607123372.7452016,-0.09603194701333335,0.7593622521099999,9.858010368044999,-1.7817916666666669,-0.7140000000000001,0.5465833333333333,-0.13328000000000004,-0.16758933333333334,0.0013953333333333337,16.5,False
1607123372.7597756,-0.09543374136333335,0.7596214745583333,9.858568693318329,-1.7742083333333332,-0.7175,0.5480416666666668,-0.13303733333333337,-0.16744933333333334,0.0007840000000000002,16.5,False
1607123372.7734416,-0.09491529646666666,0.7595217736166666,9.85958564292333,-1.768083333333333,-0.7186666666666668,0.5480416666666666,-0.1327946666666667,-0.16730933333333334,0.0007840000000000002,16.5,False
1607123372.7883096,-0.09503493759666666,0.7594619530516665,9.859406181228332,-1.7660416666666667,-0.7177916666666667,0.5495000000000001,-0.13273866666666667,-0.16721599999999998,0.0012926666666666668,16.5,False
1607123372.8023114,-0.094935236655,0.7594818932399999,9.860243669138331,-1.7593333333333334,-0.7105,0.5495000000000001,-0.13276666666666667,-0.16722533333333336,0.0012926666666666668,16.5,False
1607123372.8169265,-0.09619146851999999,0.7592426109799998,9.85938624104,-1.759041666666667,-0.7040833333333334,0.5503750000000002,-0.13275733333333334,-0.16733733333333334,0.001092,16.5,False
1607123372.8307412,-0.09567302362333333,0.7587241660833332,9.859785044806667,-1.761666666666667,-0.7110833333333334,0.5527083333333334,-0.13291599999999998,-0.167356,0.001092,16.5,False
1607123372.8455174,-0.09702895642999998,0.7588039268366665,9.857033298816665,-1.7707083333333338,-0.7207083333333333,0.5495,-0.1328693333333333,-0.167328,0.0012460000000000001,16.5,False
1607123372.8601532,-0.09643075077999998,0.7642475982516665,9.857890726914999,-1.7823750000000005,-0.7399583333333334,0.5427916666666667,-0.1327573333333333,-0.16724400000000003,0.00119,16.5,False
1607123372.87483,-0.09653045172166662,0.76522466748,9.856694315615,-1.7861666666666671,-0.7422916666666668,0.5448333333333333,-0.1326453333333333,-0.16716,0.00119,16.5,False
1607123372.888771,-0.09557332268166663,0.7664410189683332,9.856474973543333,-1.7698333333333338,-0.7428750000000001,0.5445416666666666,-0.13251466666666664,-0.16694533333333333,0.0010453333333333332,16.5,False
1607123372.9027138,-0.09477571514833331,0.7665207797216665,9.856355332413331,-1.7850000000000004,-0.7352916666666668,0.5494999999999999,-0.13238399999999997,-0.16673066666666664,0.0010453333333333332,16.5,False
1607123372.92025,-0.09505487778499998,0.7721239726433332,9.855138980925,-1.771291666666667,-0.7294583333333333,0.5509583333333333,-0.13212266666666667,-0.16657199999999997,0.0013253333333333335,16.5,False
1607123372.9349947,-0.09515457872666665,0.7726623577283332,9.854321433203332,-1.7596250000000004,-0.7315,0.5538749999999999,-0.13184266666666666,-0.1664786666666667,0.0013253333333333335,16.5,False
1607123372.9496539,-0.09537392079833332,0.7728617596116666,9.853842868683332,-1.7400833333333339,-0.7256666666666668,0.5544583333333333,-0.1316,-0.16631999999999997,0.001288,16.5,False
1607123372.9634407,-0.09507481797333332,0.772821879235,9.853922629436664,-1.7371666666666672,-0.7204166666666668,0.5541666666666666,-0.13152533333333333,-0.16635733333333336,0.0008866666666666666,16.5,False
1607123372.9781277,-0.09421738987499997,0.7720242717016667,9.853344363975,-1.7120833333333336,-0.7008750000000001,0.545125,-0.1314506666666667,-0.16639466666666666,0.0008866666666666666,16.5,False
1607123372.9920986,-0.09381858610833331,0.7717650492533331,9.852985440585,-1.6805833333333335,-0.6839583333333333,0.5497916666666666,-0.13171200000000002,-0.16604933333333338,0.0012413333333333334,16.5,False
1607123373.0067184,-0.09419744968666664,0.7717650492533333,9.853025320961667,-1.6665833333333333,-0.6755000000000001,0.5410416666666666,-0.13197333333333336,-0.16570399999999996,0.0012413333333333334,16.5,False
1607123373.0214312,-0.09407780855666666,0.7706284585183332,9.853144962091669,-1.6735833333333334,-0.685416666666667,0.5457083333333334,-0.13208533333333333,-0.1654986666666667,0.0012693333333333335,16.5,False
1607123373.0359402,-0.09308079913999999,0.7704489968233332,9.851629507778332,-1.6934166666666666,-0.7043750000000003,0.548625,-0.13217866666666667,-0.16543333333333338,0.0012693333333333335,16.5,False
1607123373.0505793,-0.092422772925,0.7703692360699999,9.85336430416333,-1.7345416666666662,-0.7236250000000002,0.5521250000000002,-0.13256133333333336,-0.1652093333333334,0.0010453333333333332,16.5,False
1607123373.0651488,-0.09359924403666665,0.7712665445449998,9.85388274906,-1.7616666666666665,-0.7408333333333336,0.5518333333333333,-0.13250533333333334,-0.16535866666666674,0.0009753333333333334,16.5,False
1607123373.07971,-0.09302097857499998,0.7711269632266665,9.853384244351666,-1.7619583333333333,-0.7341250000000001,0.5477500000000001,-0.13244933333333334,-0.16550800000000007,0.0009753333333333334,16.5,False
1607123373.094061,-0.09371888516666665,0.7720840922666665,9.852307474181664,-1.7721666666666667,-0.7382083333333334,0.5433749999999999,-0.13222533333333333,-0.16559200000000007,0.0012226666666666668,16.5,False
1607123373.1086118,-0.09415756931,0.7734400250733331,9.850572677796665,-1.7642916666666666,-0.7134166666666668,0.5471666666666667,-0.13200133333333333,-0.16567600000000005,0.0012226666666666668,16.5,False
1607123373.1226788,-0.09427721044,0.7733004437549998,9.850811960056665,-1.701875,-0.6720000000000002,0.5477500000000001,-0.13194533333333333,-0.16579733333333335,0.001530666666666667,16.5,False
1607123373.1372206,-0.094576313265,0.7725626567866665,9.851330404953332,-1.6648333333333334,-0.6352500000000002,0.5436666666666666,-0.13188933333333333,-0.16591866666666666,0.001530666666666667,16.5,False
1607123373.1519217,-0.09469595439500002,0.7728617596116666,9.852586636818332,-1.6158333333333332,-0.5772083333333334,0.5462916666666667,-0.131908,-0.16590000000000002,0.0012180000000000001,16.5,False
1607123373.1675456,-0.09497511703166667,0.7729814007416665,9.852387234935,-1.5458333333333332,-0.5226666666666668,0.5471666666666668,-0.13188933333333333,-0.165928,0.001288,16.5,False
1607123373.1818295,-0.09222337104166667,0.7710870828499999,9.852925620019997,-1.5595416666666668,-0.47920833333333346,0.5480416666666666,-0.13187066666666664,-0.165956,0.001288,16.5,False
1607123373.1955233,-0.09238289254833335,0.7689136023216666,9.853882749059999,-1.6377083333333333,-0.5273333333333334,0.5433749999999999,-0.1320573333333333,-0.16601199999999997,0.0010033333333333333,16.5,False
1607123373.2099733,-0.09395816742666668,0.7704888772000001,9.850792019868331,-1.58375,-0.5451250000000002,0.5404583333333333,-0.13224399999999997,-0.166068,0.0010033333333333333,16.5,False
1607123373.2238111,-0.09324032064666668,0.7682555761066668,9.852068191921663,-1.5668333333333335,-0.5427916666666667,0.5366666666666665,-0.1319173333333333,-0.16600266666666666,0.0016193333333333337,16.5,False
1607123373.2375212,-0.09268199537333334,0.7668797031116669,9.854301493014995,-1.6059166666666667,-0.5798333333333334,0.5363749999999999,-0.13159066666666666,-0.16593733333333333,0.0016193333333333337,16.5,False
1607123373.2514691,-0.09222337104166667,0.7683353368600001,9.853982450001663,-1.61,-0.59675,0.5410416666666666,-0.13161866666666666,-0.16577866666666666,0.0011993333333333335,16.5,False
1607123373.2661169,-0.09232307198333331,0.7682755162950001,9.853164902279994,-1.6032916666666666,-0.5830416666666667,0.5378333333333332,-0.13164666666666666,-0.16562,0.0011993333333333335,16.5,False
1607123373.279871,-0.09186444765166665,0.76773713121,9.854720236969996,-1.612916666666667,-0.5947083333333334,0.5372499999999999,-0.1317586666666667,-0.16549866666666666,0.0012086666666666667,16.5,False
1607123373.2940629,-0.09351948328333332,0.76654071991,9.854540775274995,-1.6219583333333338,-0.5947083333333334,0.5425000000000001,-0.1319266666666667,-0.16537733333333332,0.0012086666666666667,16.5,False
1607123373.3087397,-0.09341978234166666,0.7657829927533333,9.85599640902333,-1.6210833333333337,-0.5888749999999999,0.5407500000000002,-0.1320666666666667,-0.16534000000000001,0.001376666666666667,16.5,False
1607123373.3230236,-0.09377870573166665,0.764088076745,9.856514853919998,-1.626916666666667,-0.587125,0.5404583333333334,-0.13246800000000003,-0.16523733333333332,0.0010313333333333333,16.5,False
1607123373.3453104,-0.09322038045833334,0.7645267608883332,9.856554734296667,-1.5974583333333332,-0.5807083333333334,0.534625,-0.13286933333333337,-0.16513466666666668,0.0010313333333333333,16.5,False
1607123373.3716564,-0.09441679175833334,0.75840512307,9.857152939946669,-1.5808333333333333,-0.5751666666666667,0.5340416666666667,-0.133196,-0.16491999999999998,0.0009146666666666666,16.5,False
1607123373.3881764,-0.09345966271833331,0.7588836875899999,9.857651444655003,-1.5668333333333335,-0.5652500000000001,0.5282083333333334,-0.13337333333333337,-0.16491999999999998,0.0012553333333333333,16.5,False
1607123373.411906,-0.092422772925,0.7573084127116666,9.856953538063335,-1.584625,-0.5687500000000001,0.5282083333333334,-0.13368133333333335,-0.16483599999999995,0.0009939999999999999,16.5,False
1607123373.426048,-0.09238289254833333,0.7580063193033334,9.857830906350001,-1.5968750000000003,-0.5932499999999999,0.532875,-0.13401733333333335,-0.16490133333333332,0.0014233333333333335,16.5,False
1607123373.4540098,-0.09322038045833331,0.7582456015633333,9.860143968196668,-1.6362500000000002,-0.6253333333333334,0.536375,-0.13438133333333335,-0.16499466666666668,0.0012366666666666667,16.5,False
1607123373.4754498,-0.09655039190999998,0.7545965470983335,9.846704281260001,-1.6980833333333334,-0.6454583333333334,0.5241250000000001,-0.134344,-0.16527466666666665,0.0012366666666666667,16.5,False
1607123373.4949687,-0.09276175612666666,0.7556334368916667,9.849635488945,-1.6724166666666667,-0.6332083333333334,0.5355,-0.13455866666666666,-0.16538666666666668,0.0009800000000000002,16.5,False
1607123373.5162644,-0.09234301217166667,0.7568099080033335,9.84144007154,-1.6543333333333334,-0.6057916666666667,0.5404583333333333,-0.134708,-0.16546133333333338,0.001204,16.5,False
1607123373.5311623,-0.09078767748166669,0.757148891205,9.839446052706665,-1.6190416666666667,-0.5745833333333333,0.54075,-0.13509066666666666,-0.16558266666666668,0.0012693333333333335,16.5,False
1607123373.5457664,-0.09088737842333335,0.7571289510166666,9.837671375945,-1.5913333333333335,-0.5419166666666667,0.5290833333333332,-0.135184,-0.16586266666666669,0.0012693333333333335,16.5,False
1607123373.5601854,-0.09074779710500001,0.7563114032949999,9.840143959298333,-1.556916666666667,-0.5215000000000001,0.5287916666666667,-0.13545466666666664,-0.16568533333333335,0.0011853333333333334,16.5,False
1607123373.5749393,-0.09048857465666668,0.7561718219766665,9.839924617226666,-1.5405833333333336,-0.5194583333333334,0.5320000000000001,-0.13572533333333334,-0.16550800000000002,0.0011853333333333334,16.5,False
1607123373.588973,-0.08813563243333333,0.7566902668733333,9.840044258356668,-1.548166666666667,-0.5165416666666667,0.5355000000000001,-0.13578133333333336,-0.16548000000000002,0.0011526666666666666,16.5,False
1607123373.6029272,-0.08829515394000001,0.7543373246500001,9.839625514401666,-1.5257083333333337,-0.5168333333333333,0.5355000000000001,-0.13583733333333334,-0.16545200000000002,0.0011526666666666666,16.5,False
1607123373.6168451,-0.08673981924999999,0.7509674328216668,9.842536781898334,-1.5677083333333335,-0.566125,0.5404583333333334,-0.13625733333333334,-0.16534933333333335,0.001432666666666667,16.5,False
1607123373.630773,-0.08368897043499998,0.7488138924816667,9.843633492256668,-1.7502916666666668,-0.7218749999999999,0.5500833333333334,-0.13667733333333335,-0.16524666666666668,0.001432666666666667,16.5,False
1607123373.6453767,-0.08462615928666667,0.7496314402033335,9.841619533234999,-1.9985000000000002,-0.9289583333333334,0.5448333333333333,-0.13678933333333332,-0.16539600000000004,0.00105,16.5,False
1607123373.6599398,-0.09082755785833331,0.7505885692433335,9.841599593046663,-2.183708333333334,-1.0887916666666668,0.5425,-0.13704133333333332,-0.16556400000000007,0.0011480000000000001,16.5,False
1607123373.6871526,-0.09547362174,0.7540781022016669,9.837830897451664,-2.1586250000000007,-1.1205833333333333,0.5416249999999999,-0.137228,-0.1654426666666667,0.0012273333333333333,16.5,False
1607123373.7009966,-0.097328059255,0.7573682332766668,9.828159906109997,-2.0186250000000006,-0.9975,0.539875,-0.13723733333333332,-0.16526533333333335,0.0012273333333333333,16.5,False
1607123373.7147784,-0.09583254512999997,0.75720871177,9.829635480046665,-1.9976250000000002,-0.9167083333333333,0.5448333333333334,-0.13718133333333335,-0.16509733333333335,0.0010266666666666666,16.5,False
1607123373.7293584,-0.09557332268166664,0.7584649436349998,9.831290515678331,-1.998791666666667,-0.8989166666666667,0.5495,-0.13739599999999996,-0.16509733333333335,0.0010266666666666666,16.5,False
1607123373.7437892,-0.09471589458333332,0.7612765101899999,9.82959559967,-1.998791666666667,-0.8945416666666668,0.5503750000000002,-0.13794666666666663,-0.1651626666666667,0.0011946666666666668,16.5,False
1607123373.7594192,-0.09575278437666665,0.7589634483433332,9.826445049913334,-2.034958333333334,-0.8997916666666668,0.5392916666666667,-0.13817999999999994,-0.16521866666666668,0.0011946666666666668,16.5,False
1607123373.7731721,-0.09878369300333333,0.7594619530516665,9.828439068746665,-2.03875,-0.9006666666666667,0.54425,-0.13825466666666664,-0.16534000000000001,0.001176,16.5,False
1607123373.786982,-0.098763752815,0.7603592615266666,9.828837872513333,-1.9868333333333335,-0.8572083333333335,0.5527083333333334,-0.13830133333333333,-0.16565733333333335,0.001232,16.5,False
1607123373.801306,-0.09766704245666664,0.7623333401716664,9.82935631741,-1.9646666666666672,-0.8335833333333333,0.548625,-0.138348,-0.16597466666666666,0.001232,16.5,False
1607123373.815179,-0.09870393224999999,0.7629514860099997,9.826823913491667,-1.9705000000000006,-0.8461250000000001,0.5512499999999999,-0.13852533333333333,-0.1660866666666667,0.000966,16.5,False
1607123373.8288958,-0.09764710226833333,0.7631110075166664,9.824989416165002,-2.0043333333333337,-0.8802500000000001,0.5611666666666667,-0.1384693333333333,-0.16628266666666666,0.000966,16.5,False
1607123373.842908,-0.09868399206166667,0.7612964503783332,9.824710253528336,-2.072291666666667,-0.9277916666666667,0.562625,-0.13819866666666666,-0.16630133333333333,0.0011573333333333333,16.5,False
1607123373.8571308,-0.09802596584666667,0.7628916654449998,9.828419128558334,-2.11925,-0.9578333333333333,0.5541666666666667,-0.13802133333333336,-0.16635733333333336,0.0011573333333333333,16.5,False
1607123373.8717706,-0.10131609692166667,0.7674779087616664,9.83067236984,-2.1215833333333336,-0.9522916666666668,0.5576666666666666,-0.13824533333333336,-0.166432,0.0012926666666666668,16.5,False
1607123373.8864355,-0.10217352502,0.7710272622849998,9.830114044566667,-2.031166666666667,-0.8971666666666667,0.56175,-0.13830133333333336,-0.166656,0.0012926666666666668,16.5,False
1607123373.9003704,-0.10053842957666667,0.7698707313616666,9.82696349481,-1.9903333333333335,-0.853125,0.55475,-0.13832000000000005,-0.16661866666666664,0.0009426666666666666,16.5,False
1607123373.9144094,-0.10141579786333334,0.7701100136216666,9.823533782416666,-1.9483333333333337,-0.8152083333333333,0.553,-0.13831066666666667,-0.1665533333333333,0.0011246666666666666,16.5,False
1607123373.9283412,-0.09826524810666666,0.7783253712150001,9.837511854438333,-1.872791666666667,-0.783125,0.5646666666666668,-0.13837600000000003,-0.16655333333333333,0.0011246666666666666,16.5,False
1607123373.942217,-0.10209376426666666,0.7770491991616667,9.835477955228333,-1.8975833333333338,-0.7810833333333335,0.5611666666666667,-0.13774133333333338,-0.16684266666666667,0.0011573333333333333,16.5,False
1607123373.956057,-0.104267244795,0.7785845936633334,9.845328408264999,-1.878041666666667,-0.7740833333333333,0.5454166666666667,-0.13741466666666674,-0.1670386666666667,0.0011573333333333333,16.5,False
1607123373.9701421,-0.10514461308166667,0.7798009451516668,9.84993459177,-1.8564583333333338,-0.7589166666666666,0.5465833333333335,-0.13720000000000004,-0.16703866666666672,0.0011993333333333335,16.5,False
1607123373.9841201,-0.105463656095,0.7790830983716668,9.849057223483332,-1.8287500000000005,-0.7522083333333333,0.5623333333333335,-0.13698533333333338,-0.16703866666666672,0.0011993333333333335,16.5,False
1607123373.9991748,-0.10520443364666666,0.7769893785966667,9.844809963368332,-1.8453750000000004,-0.7513333333333334,0.5684583333333334,-0.1369573333333334,-0.16729066666666673,0.0013673333333333335,16.5,False
1607123374.0130749,-0.10518449345833332,0.7763911729466667,9.845747152219998,-1.8415833333333336,-0.7583333333333333,0.5702083333333333,-0.13692933333333338,-0.16754266666666673,0.0013673333333333335,16.5,False
1607123374.0275948,-0.10668000758333333,0.77431739336,9.849814950639999,-1.8380833333333337,-0.7717499999999998,0.5716666666666668,-0.13710666666666668,-0.167664,0.0009426666666666666,16.5,False
1607123374.0414886,-0.1065603664533333,0.7769096178433333,9.853444064916667,-1.8911666666666669,-0.7985833333333333,0.5705000000000001,-0.13728400000000004,-0.16778533333333334,0.0009426666666666666,16.5,False
1607123374.0551527,-0.10703893097333332,0.7829913752849998,9.850572677796666,-1.8984583333333336,-0.7863333333333333,0.5664166666666668,-0.1371906666666667,-0.1675613333333333,0.00119,16.5,False
1607123374.0690985,-0.10935199282,0.7849853941183333,9.847721230865,-1.7651666666666666,-0.6685000000000001,0.5579583333333333,-0.13709733333333335,-0.16732799999999995,0.0009473333333333333,16.5,False
1607123374.0829835,-0.10975079658666666,0.7817351434200001,9.847521828981666,-1.5443749999999996,-0.4987500000000001,0.5696250000000002,-0.1371346666666667,-0.16705733333333328,0.0009473333333333333,16.5,False
1607123374.0969214,-0.10299107274166666,0.7778866870716666,9.84933638612,-1.3912499999999997,-0.37070833333333336,0.5734166666666668,-0.13702266666666674,-0.16685199999999994,0.0008819999999999999,16.5,False
1607123374.1108434,-0.100797652025,0.7770491991616668,9.851270584388333,-1.3871666666666664,-0.36750000000000005,0.5693333333333335,-0.13697600000000007,-0.16693599999999995,0.0008819999999999999,16.5,False
1607123374.1249433,-0.09928219771166667,0.7770491991616667,9.858688334448333,-1.4300416666666667,-0.42554166666666676,0.5707916666666667,-0.13704133333333338,-0.16707599999999995,0.0010686666666666668,16.5,False
1607123374.138843,-0.09952147997166667,0.7768896776549999,9.860542771963335,-1.4848749999999997,-0.46987500000000004,0.5693333333333334,-0.13717200000000004,-0.16720666666666661,0.0010686666666666668,16.5,False
1607123374.152882,-0.09938189865333333,0.7764509935116666,9.860084147631666,-1.492458333333333,-0.4795000000000001,0.5690416666666668,-0.13704133333333338,-0.16743066666666664,0.0012973333333333335,16.5,False
1607123374.167485,-0.100797652025,0.7733602643200002,9.86142014025,-1.4522083333333335,-0.4474166666666667,0.5690416666666668,-0.1365746666666667,-0.16758933333333334,0.0012973333333333335,16.5,False
1607123374.181486,-0.09928219771166667,0.7744370344899999,9.865188835844998,-1.4072916666666666,-0.4418750000000001,0.5812916666666667,-0.1362666666666667,-0.16748666666666664,0.0013066666666666667,16.5,False
1607123374.1961858,-0.09579266475333334,0.7744370344899999,9.862277568348333,-1.4032083333333334,-0.4430416666666667,0.5780833333333334,-0.13611733333333337,-0.16731866666666664,0.0013066666666666667,16.5,False
1607123374.2108197,-0.09525427966833333,0.7744968550549999,9.863593620778333,-1.4192500000000001,-0.4579166666666667,0.5702083333333333,-0.1360986666666667,-0.1671133333333333,0.001176,16.5,False
1607123374.2248795,-0.09593224607166667,0.7729215801766663,9.863573680590001,-1.4277083333333336,-0.471625,0.571375,-0.1360706666666667,-0.16698266666666664,0.0009986666666666666,16.5,False
1607123374.2387106,-0.09409774874500001,0.7717251688766662,9.864650450760001,-1.4087500000000002,-0.45762499999999995,0.567875,-0.13594000000000003,-0.1669733333333333,0.0009986666666666666,16.5,False
1607123374.2527735,-0.09385846648499999,0.771705228688333,9.860443071021669,-1.381041666666667,-0.4176666666666667,0.5524166666666667,-0.13608933333333334,-0.16704799999999995,0.0011386666666666667,16.5,False
1607123374.2666073,-0.09076773729333333,0.7754141037183331,9.861140977613333,-1.339041666666667,-0.3820833333333334,0.5524166666666667,-0.13645333333333334,-0.16729999999999995,0.0011386666666666667,16.5,False
1607123374.2805893,-0.09100701955333332,0.7731409222483331,9.856415152978334,-1.3209583333333337,-0.3610833333333334,0.5565,-0.136416,-0.16731866666666664,0.0010873333333333334,16.5,False
1607123374.2952154,-0.08817551281,0.7688139013799998,9.854780057535,-1.355666666666667,-0.3806250000000001,0.5594166666666668,-0.13612666666666667,-0.167104,0.0010873333333333334,16.5,False
1607123374.3090951,-0.08715856320499998,0.7662814974616664,9.855298502431664,-1.4274166666666668,-0.4445,0.5565000000000001,-0.13620133333333334,-0.1670293333333333,0.0012226666666666668,16.5,False
1607123374.3229082,-0.08829515394,0.7664410189683333,9.858010368044999,-1.4557083333333336,-0.4669583333333333,0.5565,-0.13631333333333334,-0.16703866666666664,0.0012226666666666668,16.5,False
1607123374.336774,-0.08584251077499999,0.7660023348249999,9.861360319684998,-1.4705833333333336,-0.4888333333333333,0.56525,-0.1362013333333333,-0.16705733333333334,0.001022,16.5,False
1607123374.351393,-0.08664011830833332,0.7597610558766665,9.859206779344996,-1.5120000000000005,-0.5107083333333333,0.5646666666666668,-0.13601466666666664,-0.1670106666666667,0.001022,16.5,False
1607123374.3681831,-0.08532406587833333,0.7595217736166667,9.856794016556666,-1.530375,-0.524125,0.5591250000000001,-0.13657466666666665,-0.16679600000000003,0.0009800000000000002,16.5,False
1607123374.382356,-0.08512466399499999,0.756909608945,9.854700296781665,-1.558375,-0.5465833333333333,0.5640833333333334,-0.13664933333333332,-0.1665906666666667,0.0007186666666666667,16.5,False
1607123374.3969808,-0.08604191265833332,0.7554938555733334,9.851230704011666,-1.626625,-0.5874166666666667,0.5661250000000001,-0.13637866666666668,-0.1665346666666667,0.0007186666666666667,16.5,False
1607123374.4108388,-0.08338986760999999,0.7590830894733335,9.856295511848334,-1.6604583333333334,-0.6305833333333335,0.5690416666666667,-0.136388,-0.16661866666666672,0.0009800000000000002,16.5,False
1607123374.4247887,-0.08402795363666667,0.7603792017150002,9.853144962091665,-1.6540416666666669,-0.6425416666666667,0.5605833333333334,-0.13625733333333334,-0.16662800000000003,0.0009800000000000002,16.5,False
1607123374.4393594,-0.08257231988833334,0.7611369288716667,9.859605583111666,-1.664541666666667,-0.6547916666666667,0.5535833333333334,-0.13582800000000003,-0.16661866666666672,0.0012413333333333334,16.5,False
1607123374.4532235,-0.08221339649833334,0.7617550747100001,9.86177906364,-1.6377083333333333,-0.64575,0.5602916666666667,-0.13538933333333336,-0.16660933333333333,0.0012413333333333334,16.5,False
1607123374.4670744,-0.0809771048216667,0.757148891205,9.8536434668,-1.6196250000000003,-0.6375833333333334,0.5556250000000001,-0.13515600000000003,-0.16645066666666666,0.0010126666666666667,16.5,False
1607123374.4808373,-0.08141578896500003,0.7547760087933333,9.857412162395,-1.6207916666666669,-0.6288333333333334,0.5436666666666667,-0.13518400000000003,-0.1666,0.0010126666666666667,16.5,False
1607123374.495665,-0.08334998723333337,0.7546563676633332,9.857771085785,-1.6044583333333335,-0.6320416666666666,0.5477500000000001,-0.1351746666666667,-0.166796,0.001106,16.5,False
1607123374.5096922,-0.08179465254333333,0.7562914631066666,9.858588633506667,-1.6155416666666669,-0.6425416666666667,0.5375416666666669,-0.1355106666666667,-0.1669173333333333,0.0011853333333333334,16.5,False
1607123374.537769,-0.08217351612166669,0.7583453025049999,9.856694315615,-1.6280833333333338,-0.6577083333333335,0.536375,-0.13556666666666667,-0.1669453333333333,0.0010686666666666668,16.5,False
1607123374.5600939,-0.08183453292000001,0.7583851828816665,9.856813956745002,-1.6470416666666672,-0.6565416666666667,0.541625,-0.13587466666666667,-0.16681466666666667,0.0009986666666666666,16.5,False
1607123374.5832877,-0.08131608802333336,0.7579664389266665,9.861280558931668,-1.6563750000000002,-0.6766666666666666,0.5454166666666668,-0.13607066666666665,-0.16662800000000003,0.0009986666666666666,16.5,False
1607123374.6009336,-0.08179465254333333,0.7582256613749998,9.860203788761664,-1.7007083333333337,-0.7005833333333334,0.5413333333333334,-0.136136,-0.1667866666666667,0.0011526666666666666,16.5,False
1607123374.6253986,-0.082372918005,0.7586045249533332,9.862058226276664,-1.7176250000000002,-0.7172083333333336,0.5349166666666668,-0.13632266666666668,-0.1665626666666667,0.0008680000000000001,16.5,False
1607123374.6449704,-0.08065806180833333,0.7612964503783333,9.860502891586664,-1.7126666666666668,-0.7058333333333336,0.5334583333333335,-0.13653733333333337,-0.16627333333333336,0.0011293333333333333,16.5,False
1607123374.6711273,-0.07982057389833333,0.7603393213383333,9.861440080438332,-1.6905000000000001,-0.6740416666666669,0.5308333333333335,-0.136444,-0.16634800000000005,0.0008073333333333335,16.5,False
1607123374.6928732,-0.079142607495,0.759900637195,9.860762114035,-1.6989583333333331,-0.6763750000000002,0.5241250000000002,-0.13650933333333334,-0.16630133333333336,0.0013440000000000001,16.5,False
1607123374.7067792,-0.079022966365,0.7585247641999999,9.859585642923332,-1.7039166666666667,-0.6903750000000001,0.5258750000000002,-0.13659333333333334,-0.16610533333333338,0.0013440000000000001,16.5,False
1607123374.7204711,-0.07826523920833334,0.7582456015633332,9.859705284053332,-1.7027499999999998,-0.6871666666666668,0.5247083333333334,-0.136304,-0.16606800000000005,0.0009800000000000002,16.5,False
1607123374.7344441,-0.07866404297500001,0.7586643455183333,9.861460020626668,-1.7208333333333334,-0.6959166666666667,0.5223750000000001,-0.1360146666666667,-0.16603066666666672,0.0009800000000000002,16.5,False
1607123374.748237,-0.08007979634666666,0.7589036277783335,9.866225725638333,-1.7126666666666666,-0.7002916666666666,0.5334583333333335,-0.13582800000000003,-0.16572266666666666,0.0012460000000000001,16.5,False
1607123374.7622907,-0.081535430095,0.7560721210350001,9.864371288123333,-1.7065416666666666,-0.7011666666666667,0.5322916666666668,-0.13564133333333336,-0.16541466666666665,0.0012460000000000001,16.5,False
1607123374.7761247,-0.08039883936,0.7574479940300001,9.863593620778333,-1.69925,-0.7049583333333334,0.5317083333333334,-0.13549200000000003,-0.16570399999999996,0.0013533333333333336,16.5,False
1607123374.7909365,-0.080339018795,0.7567700276266666,9.862556730985,-1.6823333333333332,-0.7075833333333332,0.5290833333333335,-0.13568800000000003,-0.16583466666666666,0.0010453333333333332,16.5,False
1607123374.8050103,-0.08079764312666667,0.7572485921466665,9.863115056258332,-1.6983749999999997,-0.7040833333333332,0.5264583333333335,-0.13552,-0.16582533333333332,0.0010453333333333332,16.5,False
1607123374.8188035,-0.08043871973666666,0.7577072164783332,9.863274577765003,-1.7231666666666665,-0.7163333333333332,0.5296666666666667,-0.1352773333333333,-0.16576933333333332,0.0013393333333333334,16.5,False
1607123374.8330142,-0.08077770293833333,0.7574479940299998,9.861639482321667,-1.7389166666666667,-0.7221666666666664,0.5244166666666668,-0.13525866666666667,-0.16570399999999996,0.0013393333333333334,16.5,False
1607123374.8477404,-0.07902296636499999,0.7594420128633332,9.865089134903336,-1.7371666666666665,-0.7396666666666665,0.5194583333333334,-0.13546399999999997,-0.16569466666666663,0.0010406666666666665,16.5,False
1607123374.8627503,-0.07998009540499998,0.7588039268366665,9.866165905073334,-1.7456249999999995,-0.7498749999999998,0.5229583333333333,-0.13537066666666667,-0.16573200000000002,0.0010406666666666665,16.5,False
1607123374.877665,-0.07878368410499999,0.7597411156883332,9.867561718256667,-1.7497083333333332,-0.7440416666666665,0.5226666666666666,-0.13553866666666664,-0.165592,0.001106,16.5,False
1607123374.8915882,-0.07932206919,0.759182790415,9.869655438031668,-1.7322083333333331,-0.7349999999999999,0.5229583333333332,-0.13570666666666664,-0.165452,0.001106,16.5,False
1607123374.905598,-0.08153543009499999,0.7558527789633332,9.867302495808332,-1.7240416666666667,-0.7125416666666666,0.5197499999999999,-0.1358,-0.16529333333333335,0.001512,16.5,False
1607123374.919441,-0.07972087295666665,0.755593556515,9.874680365491665,-1.7295833333333335,-0.6985416666666666,0.5267499999999999,-0.13552933333333333,-0.165144,0.0009753333333333334,16.5,False
1607123374.9342299,-0.08109674595166666,0.7550352312416667,9.867402196749998,-1.729875,-0.6880416666666667,0.5267499999999999,-0.1355573333333333,-0.16501333333333335,0.0009753333333333334,16.5,False
1607123374.9480958,-0.08073782256166666,0.754756068605,9.862875773998333,-1.7418333333333333,-0.6795833333333333,0.5191666666666666,-0.13573466666666664,-0.16485466666666668,0.001204,16.5,False
1607123374.9618516,-0.08237291800499996,0.7568896687566667,9.869097112758334,-1.7438750000000003,-0.6822083333333334,0.5215,-0.13570666666666667,-0.16484533333333332,0.001204,16.5,False
1607123374.9762206,-0.08193423386166664,0.75673014725,9.867142974301666,-1.7529166666666671,-0.6962083333333332,0.5343333333333332,-0.13565066666666667,-0.16463999999999998,0.0014560000000000003,16.5,False
1607123374.9899526,-0.08067800199666665,0.7555736163266666,9.867801000516668,-1.7669166666666671,-0.6985416666666667,0.5346249999999999,-0.135632,-0.16439733333333334,0.0014560000000000003,16.5,False
1607123375.0037262,-0.08041877954833332,0.7538787003183332,9.866764110723333,-1.7817916666666669,-0.7011666666666668,0.5372499999999999,-0.13514666666666664,-0.16447199999999998,0.0009753333333333334,16.5,False
1607123375.0174885,-0.08025925804166666,0.7545167863450001,9.868299505225,-1.8027916666666668,-0.7113750000000001,0.5369583333333333,-0.135044,-0.16452799999999998,0.0009753333333333334,16.5,False
1607123375.0318933,-0.08037889917166667,0.7543173844616666,9.867442077126666,-1.7955000000000003,-0.7221666666666665,0.5355,-0.13469866666666666,-0.164752,0.0014746666666666669,16.5,False
1607123375.0467653,-0.08039883935999997,0.7528418105249999,9.863493919836666,-1.8074583333333334,-0.7160416666666668,0.5331666666666666,-0.13435333333333335,-0.16497600000000004,0.0014746666666666669,16.5,False
1607123375.06027,-0.07960123182666666,0.7512665356466666,9.863174876823333,-1.7739166666666668,-0.706125,0.5404583333333334,-0.1342226666666667,-0.16484533333333337,0.0010873333333333334,16.5,False
1607123375.0742762,-0.07944171032,0.7520442029916666,9.860363310268331,-1.7619583333333333,-0.6932916666666668,0.5483333333333333,-0.13424133333333338,-0.165032,0.001502666666666667,16.5,False
1607123375.0881898,-0.08000003559333332,0.7505486888666667,9.860443071021665,-1.764,-0.7029166666666667,0.5465833333333333,-0.13423200000000005,-0.16528400000000001,0.001502666666666667,16.5,False
1607123375.1023397,-0.08071788237333334,0.7505885692433334,9.858847855954998,-1.7806250000000001,-0.7175000000000001,0.5445416666666667,-0.1342226666666667,-0.165508,0.0007746666666666668,16.5,False
1607123375.1193109,-0.08197411423833333,0.7512067150816667,9.861121037424997,-1.779166666666667,-0.7140000000000001,0.5445416666666667,-0.1340546666666667,-0.16585333333333332,0.0007746666666666668,16.5,False
1607123375.1332319,-0.08197411423833333,0.7517251599783333,9.860801994411664,-1.787916666666667,-0.7061250000000001,0.5448333333333334,-0.13420400000000005,-0.16596533333333333,0.0014140000000000001,16.5,False
1607123375.1475508,-0.08173483197833332,0.7524031263816668,9.860502891586663,-1.7864583333333335,-0.7052500000000002,0.5524166666666667,-0.13473600000000005,-0.165844,0.0014140000000000001,16.5,False
1607123375.1614766,-0.08151548990666667,0.7519046216733332,9.859864805559996,-1.7960833333333333,-0.7081666666666669,0.5535833333333334,-0.13488533333333338,-0.165872,0.0008539999999999999,16.5,False
1607123375.1761465,-0.08119644689333333,0.7514260571533332,9.861280558931663,-1.8092083333333335,-0.7227500000000001,0.54425,-0.134652,-0.1660866666666667,0.0008539999999999999,16.5,False
1607123375.1907744,-0.08109674595166667,0.7514260571533333,9.86323469738833,-1.8214583333333336,-0.7271250000000001,0.5500833333333334,-0.13453066666666663,-0.16621733333333338,0.0010826666666666667,16.5,False
1607123375.2047424,-0.0813559684,0.7504091075483333,9.864989433961664,-1.8407083333333338,-0.7332500000000001,0.553875,-0.13472666666666663,-0.16586266666666669,0.000952,16.5,False
1607123375.2186573,-0.08133602821166666,0.7500103037816667,9.864750151701665,-1.852666666666667,-0.7338333333333333,0.5535833333333333,-0.1345773333333333,-0.16566666666666668,0.000952,16.5,False
1607123375.240056,-0.08179465254333332,0.7493522775666666,9.865747161118334,-1.8590833333333339,-0.7294583333333334,0.5570833333333333,-0.13481066666666666,-0.16576000000000002,0.0010546666666666666,16.5,False
1607123375.254064,-0.08265208064166665,0.7489734139883333,9.86704327336,-1.8445000000000003,-0.7268333333333334,0.5567916666666667,-0.13511866666666664,-0.16590000000000002,0.001064,16.5,False
1607123375.267785,-0.08263214045333332,0.7496912607683334,9.870393224999997,-1.8482916666666669,-0.7320833333333334,0.5544583333333334,-0.13523066666666664,-0.16574133333333332,0.001064,16.5,False
1607123375.281652,-0.08358926949333334,0.7499106028399999,9.870433105376666,-1.8640416666666673,-0.7364583333333334,0.5547500000000002,-0.1349973333333333,-0.16556399999999996,0.0011853333333333334,16.5,False
1607123375.2963068,-0.08215357593333335,0.7510471935749999,9.872128021384999,-1.8488750000000003,-0.7437500000000002,0.5629166666666667,-0.13476399999999997,-0.16538666666666663,0.0011853333333333334,16.5,False
1607123375.3111558,-0.08109674595166667,0.7505686290549999,9.87035334462333,-1.8590833333333334,-0.7670833333333335,0.5635,-0.1348573333333333,-0.16537733333333332,0.001092,16.5,False
1607123375.3248098,-0.08177471235500001,0.7508079113149999,9.86766141919833,-1.857625,-0.7764166666666669,0.5605833333333335,-0.13495066666666666,-0.165368,0.001092,16.5,False
1607123375.3385878,-0.08205387499166666,0.7511070141399998,9.8668039911,-1.8310833333333336,-0.7659166666666669,0.562625,-0.1350253333333333,-0.16523733333333332,0.001232,16.5,False
1607123375.3524187,-0.08247261894666665,0.7523233656283331,9.864750151701665,-1.7987083333333336,-0.7574583333333335,0.5655416666666667,-0.135464,-0.16509733333333335,0.001232,16.5,False
1607123375.3671193,-0.08227321706333332,0.7534400161749999,9.866205785450001,-1.7692500000000002,-0.7417083333333335,0.5681666666666667,-0.13577200000000003,-0.16504133333333337,0.0012180000000000001,16.5,False
1607123375.3817134,-0.08221339649833331,0.7537191788116664,9.863134996446666,-1.772166666666667,-0.7361666666666669,0.559125,-0.1359306666666667,-0.16501333333333337,0.0012180000000000001,16.5,False
1607123375.3963733,-0.08075776274999999,0.755134932183333,9.86263649173833,-1.7704166666666667,-0.7364583333333335,0.5597083333333334,-0.13614533333333334,-0.16503200000000004,0.0012180000000000001,16.5,False
1607123375.4112291,-0.08101698519833332,0.7529415114666664,9.859685343865,-1.747666666666667,-0.7312083333333333,0.5559166666666667,-0.13615466666666667,-0.16531200000000004,0.0012973333333333335,16.5,False
1607123375.4250562,-0.07994021502833332,0.7539983414483331,9.859067198026667,-1.74825,-0.72975,0.5570833333333333,-0.13616400000000004,-0.16559200000000004,0.0012973333333333335,16.5,False
1607123375.4393992,-0.08109674595166666,0.7551349321833332,9.86335433851833,-1.7677916666666667,-0.74025,0.5576666666666665,-0.13650000000000004,-0.16546133333333335,0.0009753333333333334,16.5,False
1607123375.453326,-0.08129614783499998,0.7543173844616665,9.864331407746665,-1.7832500000000002,-0.7545416666666666,0.5605833333333334,-0.13683600000000007,-0.16533066666666668,0.0009753333333333334,16.5,False
1607123375.467959,-0.08099704500999998,0.7538188797533331,9.864451048876667,-1.8132916666666667,-0.784,0.5629166666666667,-0.13692933333333338,-0.16527466666666665,0.0012226666666666668,16.5,False
1607123375.481809,-0.08151548990666664,0.7543772050266665,9.862596611361665,-1.8456666666666668,-0.8146249999999999,0.5649583333333335,-0.1370226666666667,-0.16521866666666665,0.0012226666666666668,16.5,False
1607123375.4957137,-0.08273184139499999,0.7537789993766666,9.861479960814998,-1.875416666666667,-0.8379583333333334,0.5623333333333332,-0.13732133333333335,-0.16491999999999998,0.001036,16.5,False
1607123375.5103767,-0.08408777420166665,0.7539584610716664,9.861659422509998,-1.8687083333333336,-0.83125,0.5556250000000001,-0.1376106666666667,-0.1645933333333333,0.001036,16.5,False
1607123375.5249965,-0.08496514248833331,0.7547161882283331,9.862776073056665,-1.857916666666667,-0.8385416666666666,0.5556250000000001,-0.1376106666666667,-0.16443466666666665,0.0011200000000000001,16.5,False
1607123375.5396345,-0.0850249630533333,0.7559923602816665,9.863294517953332,-1.8660833333333335,-0.8324166666666668,0.5567916666666668,-0.13776933333333333,-0.16427599999999998,0.0009753333333333334,16.5,False
1607123375.5534966,-0.0836490900583333,0.7560322406583333,9.862058226276666,-1.8585000000000003,-0.8137500000000001,0.5617500000000001,-0.137928,-0.1641173333333333,0.0009753333333333334,16.5,False
1607123375.5675094,-0.08362914986999997,0.7553941546316666,9.860203788761668,-1.8363333333333338,-0.8052916666666668,0.5620416666666668,-0.13783466666666663,-0.16415466666666667,0.0012273333333333333,16.5,False
1607123375.5814333,-0.08448657796833331,0.7540781022016667,9.859166898968335,-1.8147500000000003,-0.7784583333333335,0.5565000000000001,-0.13774133333333333,-0.164192,0.0012273333333333333,16.5,False
1607123375.5952673,-0.08528418550166665,0.75421768352,9.858588633506665,-1.7750833333333336,-0.7513333333333335,0.5635000000000001,-0.13808666666666664,-0.16420133333333334,0.0009800000000000002,16.5,False
1607123375.6100452,-0.08466603966333333,0.7552545733133335,9.859824925183334,-1.7514583333333336,-0.7201250000000002,0.5681666666666668,-0.13843199999999994,-0.16421066666666667,0.0009800000000000002,16.5,False
1607123375.6249893,-0.08508478361833333,0.7554340350083334,9.858768095201668,-1.7301666666666669,-0.7096250000000003,0.5608750000000001,-0.1387213333333333,-0.16449066666666673,0.0010966666666666666,16.5,False
1607123375.639489,-0.08426723589666667,0.7567102070616668,9.85822971011667,-1.7196666666666671,-0.7035000000000001,0.5629166666666668,-0.1390573333333333,-0.16489200000000007,0.0010966666666666666,16.5,False
1607123375.6533298,-0.08412765457833334,0.7563313434833334,9.857830906350005,-1.7129583333333338,-0.707875,0.5623333333333336,-0.1390573333333333,-0.1650413333333334,0.0010826666666666667,16.5,False
1607123375.667134,-0.08378867137666665,0.755593556515,9.856574674485005,-1.726666666666667,-0.7344166666666666,0.5608750000000001,-0.139244,-0.16492000000000004,0.0012366666666666667,16.5,False
1607123375.6807997,-0.08428717608499998,0.7558128985866668,9.853842868683337,-1.7494166666666666,-0.7606666666666667,0.562916666666667,-0.13943066666666665,-0.1647986666666667,0.0012366666666666667,16.5,False
1607123375.7089086,-0.08498508267666666,0.7571887715816668,9.850632498361671,-1.755541666666667,-0.7691250000000001,0.5591250000000001,-0.13955199999999998,-0.1651346666666667,0.0009893333333333332,16.5,False
1607123375.7275314,-0.08546364719666665,0.7565108051783332,9.849256625366671,-1.7628333333333337,-0.7600833333333334,0.5629166666666667,-0.13966399999999998,-0.16555466666666666,0.0012693333333333335,16.5,False
1607123375.7515652,-0.08689934075666667,0.7565307453666665,9.84706320465,-1.7473750000000003,-0.7294583333333333,0.5535833333333334,-0.13988799999999998,-0.16584399999999996,0.0009613333333333332,16.5,False
1607123375.7655523,-0.08783652960833334,0.7572884725233331,9.84742212804,-1.7211250000000007,-0.690375,0.5538749999999999,-0.14000933333333332,-0.16613333333333336,0.0009613333333333332,16.5,False
1607123375.793363,-0.08568298926833333,0.7576274557249998,9.850153933841666,-1.681458333333334,-0.6632499999999999,0.5576666666666666,-0.14033600000000002,-0.16634800000000005,0.0011526666666666666,16.5,False
1607123375.810323,-0.08622137435333332,0.7569096089449999,9.851569687213333,-1.6875833333333339,-0.6676249999999998,0.559125,-0.14006533333333335,-0.1666653333333334,0.000952,16.5,False
1607123375.831678,-0.086440716425,0.7553742144433333,9.851310464765001,-1.7167500000000004,-0.6950416666666666,0.5518333333333334,-0.14003733333333335,-0.1669266666666667,0.0013440000000000001,16.5,False
1607123375.8490958,-0.08671987906166666,0.7544170854033332,9.849595608568334,-1.7587500000000005,-0.7209999999999999,0.5509583333333334,-0.13980399999999998,-0.1674586666666667,0.001106,16.5,False
1607123375.87547,-0.08761718753666667,0.7536792984349998,9.85184884985,-1.7797500000000004,-0.7463749999999999,0.5585416666666666,-0.13962666666666668,-0.16767333333333337,0.0008073333333333335,16.5,False
1607123375.8898878,-0.08813563243333333,0.7525028273233333,9.852267593805001,-1.8019166666666668,-0.7583333333333332,0.5588333333333334,-0.13939333333333334,-0.16784133333333334,0.0008073333333333335,16.5,False
1607123375.9037304,-0.08889335959000001,0.7552745135016665,9.854620536028335,-1.8229166666666672,-0.7656249999999999,0.5629166666666666,-0.13934666666666665,-0.16803733333333332,0.001358,16.5,False
1607123375.9176044,-0.09004989051333333,0.7548358293583333,9.855717246386668,-1.8290416666666667,-0.7764166666666665,0.559125,-0.13929999999999998,-0.16823333333333326,0.001358,16.5,False
1607123375.9314253,-0.08953144561666666,0.756072121035,9.851729208720002,-1.7966666666666669,-0.7665000000000001,0.5535833333333334,-0.13926266666666667,-0.1686533333333333,0.000952,16.5,False
1607123375.9452353,-0.08969096712333334,0.7562715229183332,9.849795010451666,-1.7715833333333333,-0.7414166666666667,0.5483333333333335,-0.13922533333333337,-0.1690733333333333,0.000952,16.5,False
1607123375.9589334,-0.08965108674666666,0.7555736163266666,9.850393216101667,-1.742708333333333,-0.6997083333333336,0.5500833333333334,-0.1390573333333333,-0.16944666666666663,0.0009099999999999999,16.5,False
1607123375.9735773,-0.08927222316833333,0.7552545733133333,9.853005380773332,-1.696625,-0.6658750000000001,0.5451250000000001,-0.13888933333333334,-0.16981999999999997,0.0009099999999999999,16.5,False
1607123375.9881501,-0.08839485488166667,0.7563911640483333,9.854720236969998,-1.6729999999999998,-0.6372916666666667,0.5430833333333334,-0.13832000000000003,-0.1700533333333333,0.0009146666666666666,16.5,False
1607123376.0021691,-0.08646065661333331,0.755832838775,9.85485981828833,-1.6715416666666667,-0.64575,0.5422083333333334,-0.138012,-0.170464,0.0012413333333333334,16.5,False
1607123376.0157819,-0.08588239115166664,0.7554938555733333,9.854760117346666,-1.6767916666666667,-0.63525,0.5457083333333334,-0.13799333333333333,-0.17070666666666667,0.0012413333333333334,16.5,False
1607123376.0306978,-0.08536394625499999,0.7548158891699999,9.854421134144998,-1.6703750000000002,-0.6442916666666666,0.5483333333333335,-0.1381706666666667,-0.170744,0.0010873333333333334,16.5,False
1607123376.0453408,-0.08598209209333334,0.7539584610716665,9.854899698664997,-1.6910833333333335,-0.6766666666666666,0.5527083333333334,-0.13834800000000003,-0.1707813333333333,0.0010873333333333334,16.5,False
1607123376.0598016,-0.08608179303499999,0.7541179825783332,9.85785084653833,-1.7205416666666664,-0.6932916666666668,0.5550416666666667,-0.1383573333333334,-0.17092133333333334,0.0008446666666666667,16.5,False
1607123376.0737855,-0.08594221171666663,0.7545367265333331,9.858648454071664,-1.7704166666666665,-0.7425833333333335,0.5535833333333334,-0.13836666666666672,-0.17106133333333334,0.0008446666666666667,16.5,False
1607123376.0878265,-0.08570292945666665,0.7554739153849999,9.858010368044999,-1.8118333333333332,-0.77875,0.5500833333333334,-0.13826400000000003,-0.17114533333333337,0.0008446666666666667,16.5,False
1607123376.1018765,-0.08616155378833333,0.7551349321833333,9.855657425821665,-1.852083333333333,-0.8087916666666666,0.5483333333333335,-0.13816133333333333,-0.17122933333333334,0.0008446666666666667,16.5,False
1607123376.1162572,-0.08673981924999999,0.7553143938783332,9.855617545445,-1.8695833333333334,-0.8099583333333334,0.5503750000000002,-0.13807733333333336,-0.17105200000000004,0.0008026666666666668,16.5,False
1607123376.1311073,-0.08723832395833335,0.7553941546316666,9.856395212789998,-1.8739583333333334,-0.8041250000000001,0.5436666666666667,-0.13785333333333336,-0.1709026666666667,0.0012180000000000001,16.5,False
1607123376.1456912,-0.08749754640666668,0.7553941546316666,9.856175870718333,-1.8576249999999999,-0.7907083333333332,0.5439583333333334,-0.13796533333333336,-0.1710053333333334,0.0012180000000000001,16.5,False
1607123376.1597362,-0.08797611092666664,0.75684978838,9.856474973543335,-1.8339999999999999,-0.7650416666666666,0.5451250000000001,-0.13756400000000005,-0.17102400000000004,0.0012460000000000001,16.5,False
1607123376.1736262,-0.08769694829,0.7610372279300001,9.856455033355001,-1.811833333333333,-0.7364583333333332,0.5378333333333334,-0.1371626666666667,-0.1710426666666667,0.0012460000000000001,16.5,False
1607123376.1884139,-0.08727820433499998,0.759182790415,9.857292521265,-1.7966666666666664,-0.7212916666666666,0.5422083333333333,-0.13692000000000001,-0.1710333333333334,0.0010966666666666666,16.5,False
1607123376.202586,-0.08717850339333331,0.7592027306033331,9.857611564278333,-1.7774166666666664,-0.7157499999999999,0.5430833333333334,-0.136808,-0.17090266666666673,0.0010966666666666666,16.5,False
1607123376.2171938,-0.08683952019166664,0.7586244651416665,9.857930607291667,-1.7882083333333332,-0.7384999999999999,0.546,-0.13678933333333335,-0.1706880000000001,0.0007980000000000001,16.5,False
1607123376.2311347,-0.0861615537883333,0.7583253623166666,9.857033298816669,-1.8106666666666666,-0.7650416666666666,0.5477500000000001,-0.13677066666666668,-0.17047333333333337,0.0007980000000000001,16.5,False
1607123376.2450128,-0.08879365864833332,0.7656234712466665,9.854401193956669,-1.7660416666666667,-0.69825,0.5527083333333334,-0.1365186666666667,-0.17050133333333334,0.0010266666666666666,16.5,False
1607123376.2587707,-0.07804589713666664,0.7458428044199998,9.871749157806669,-2.00725,-0.9575416666666666,0.55825,-0.13667733333333337,-0.17042666666666667,0.0010126666666666667,16.5,False
1607123376.2728405,-0.07543373246499999,0.7402794918749998,9.873683356075,-2.9242500000000007,-1.7879166666666668,0.5611666666666667,-0.13684533333333337,-0.17038933333333336,0.0010126666666666667,16.5,False
1607123376.2865736,-0.08091728425666665,0.7543173844616664,9.863115056258332,-3.8701250000000003,-2.4978333333333333,0.5562083333333334,-0.13700400000000004,-0.16998800000000003,0.0012273333333333333,16.5,False
1607123376.3002744,-0.098285188295,0.7740382307233329,9.853842868683333,-4.010708333333334,-2.7046250000000005,0.5535833333333333,-0.13710666666666668,-0.16990400000000003,0.0012273333333333333,16.5,False
1607123376.3149703,-0.10440682611333334,0.7774679431166663,9.853005380773332,-3.849125,-2.596125,0.49583333333333346,-0.1372746666666667,-0.17001600000000003,0.0014560000000000003,16.5,False
1607123376.3295074,-0.10927223206666666,0.7832904781099999,9.850712259115001,-3.783208333333334,-2.5535416666666664,0.4888333333333334,-0.13748933333333335,-0.17003466666666667,0.0014560000000000003,16.5,False
1607123376.3432162,-0.12281161994499998,0.7987640642566665,9.843573671691667,-3.474625000000001,-2.1650416666666668,0.5060416666666667,-0.137956,-0.16986666666666667,0.0015400000000000001,16.5,False
1607123376.3571692,-0.13423734786,0.8125826147716666,9.835418134663334,-2.548000000000001,-1.3655833333333334,0.5098333333333335,-0.13807733333333333,-0.1696426666666667,0.0015400000000000001,16.5,False
1607123376.371136,-0.12510474160333332,0.7854639586383332,9.853144962091669,-1.8281666666666667,-0.8341666666666671,0.49525000000000013,-0.137984,-0.16944666666666663,0.0014233333333333335,16.5,False
1607123376.3850298,-0.11569297270999998,0.776052189745,9.854540775275003,-2.2414583333333336,-1.1103749999999997,0.5325833333333334,-0.13825466666666666,-0.1692133333333333,0.0014233333333333335,16.5,False
1607123376.398866,-0.11665010174999998,0.7846862912933333,9.852048251733335,-2.7912500000000002,-1.4880833333333332,0.5168333333333334,-0.13851600000000003,-0.16884933333333327,0.0010873333333333334,16.5,False
1607123376.4129388,-0.12458629670666665,0.7860621642883334,9.849755130075,-2.8977083333333336,-1.6907916666666671,0.5360833333333336,-0.13888933333333336,-0.16887733333333327,0.0010873333333333334,16.5,False
1607123376.4267747,-0.11864412058333332,0.7778268665066668,9.854939579041664,-3.347166666666667,-2.1008750000000007,0.5037083333333334,-0.13897333333333334,-0.1686533333333333,0.0010266666666666666,16.5,False
1607123376.4407926,-0.12957134379,0.7882555850050001,9.850632498361666,-3.8885,-2.513583333333334,0.5244166666666668,-0.13935599999999998,-0.16846666666666663,0.0010733333333333333,16.5,False
1607123376.4547577,-0.13278171411166664,0.8018348532600001,9.847681350488331,-3.9978750000000005,-2.6092500000000007,0.5159583333333334,-0.13953333333333334,-0.16841066666666663,0.0010733333333333333,16.5,False
1607123376.4693105,-0.13385848428166666,0.8039883936,9.850094113276667,-4.020041666666667,-2.729416666666667,0.49029166666666685,-0.13932799999999998,-0.16855066666666665,0.0012460000000000001,16.5,False
1607123376.4832113,-0.14199408112166667,0.8091329621900001,9.848219735573332,-4.286625000000001,-2.90675,0.4278750000000001,-0.13922533333333328,-0.16862533333333335,0.0012460000000000001,16.5,False
1607123376.4978623,-0.15276178282166666,0.8243672660766668,9.841479951916664,-4.248125,-2.884875,0.44537500000000013,-0.13934666666666665,-0.1684666666666667,0.0013206666666666668,16.5,False
1607123376.5118701,-0.15982060949166665,0.8329415470600001,9.837651435756666,-3.9345833333333338,-2.6372500000000003,0.43050000000000016,-0.139524,-0.1682426666666667,0.0013206666666666668,16.5,False
1607123376.525552,-0.15816557386,0.8160920879183334,9.809515830018332,-3.4740416666666674,-2.2481666666666666,0.23216666666666674,-0.139552,-0.16823333333333335,0.0014233333333333335,16.5,False
1607123376.5404642,-0.16199409002,0.7968298659883334,9.807103067229997,-2.761208333333334,-1.7514583333333333,-0.840875,-0.13950533333333334,-0.16829866666666668,0.0014233333333333335,16.5,False
1607123376.558351,-0.15401801468666668,0.783828863195,9.807242648548332,-2.215791666666667,-1.3574166666666665,-2.2391250000000005,-0.13974800000000004,-0.16842933333333338,0.0014186666666666668,16.5,False
1607123376.5725698,-0.15146567058,0.7840482052666666,9.805687313858332,-1.9559166666666672,-1.2970416666666662,-3.4693750000000003,-0.1392906666666667,-0.16860666666666668,0.0010966666666666666,16.5,False
1607123376.586362,-0.14478570748833333,0.7672386265016667,9.803473952953334,-1.6105833333333337,-1.0709999999999995,-4.507416666666668,-0.1387773333333334,-0.16884933333333332,0.0010966666666666666,16.5,False
1607123376.6002946,-0.15014961814999997,0.7750352401399999,9.801559694873333,-1.177166666666667,-0.8026666666666663,-5.115541666666667,-0.13843200000000003,-0.169232,0.0008633333333333334,16.5,False
1607123376.6149197,-0.17184454305666666,0.8069594816616666,9.790851813738335,-0.31850000000000034,-0.13504166666666606,-5.152291666666667,-0.13818933333333336,-0.16948399999999994,0.0008633333333333334,16.5,False
1607123376.6287107,-0.177487616355,0.8295716552316666,9.782357293508335,1.0304583333333333,0.9496666666666673,-5.100666666666667,-0.13776000000000005,-0.16989466666666664,0.000406,16.5,False
1607123376.6425736,-0.17222340663500002,0.8153941813266667,9.778548717536667,2.914916666666666,2.4001250000000014,-5.169208333333333,-0.13712533333333338,-0.17051999999999998,0.000406,16.5,False
1607123376.6562734,-0.16709877823333333,0.8000003559333334,9.773802952713336,4.958041666666667,4.056208333333334,-5.302791666666667,-0.13638800000000006,-0.17092133333333331,0.000466666666666667,16.5,False
1607123376.6700823,-0.147816616115,0.7689933630750001,9.774899663071668,7.098291666666667,5.796291666666668,-5.779666666666667,-0.13567866666666675,-0.17115466666666665,0.000466666666666667,16.5,False
1607123376.6839414,-0.11597213534666666,0.7373482841900001,9.771190788041668,8.957958333333332,7.395208333333334,-6.307875,-0.13404533333333338,-0.17111733333333332,5.782411586589357e-20,16.5,False
1607123376.6994693,-0.07742775129833333,0.6766304107150002,9.799266573215,9.515333333333334,8.058166666666668,-7.132416666666667,-0.13246800000000006,-0.17094,-0.0001493333333333331,16.5,False
1607123376.7134972,-0.061256258559999985,0.6493522330750001,9.789356299613331,9.973833333333333,8.518708333333333,-8.161416666666668,-0.13123600000000007,-0.17077200000000003,-0.0001493333333333331,16.5,False
1607123376.727306,-0.03312065282166666,0.6125027650350001,9.791968464284999,10.789041666666668,9.274416666666669,-9.255166666666668,-0.1297613333333334,-0.17094000000000004,3.7333333333333256e-05,16.5,False
1607123376.7413208,0.013300105618333346,0.5693721376700001,9.792466968993335,11.146333333333335,9.74866666666667,-10.28154166666667,-0.12822133333333338,-0.1709120000000001,3.7333333333333256e-05,16.5,False
1607123376.7562208,0.03914258969833333,0.5360919633416669,9.785846826466669,11.183375,9.886625000000002,-11.181916666666668,-0.12639200000000003,-0.17094000000000006,-0.0005366666666666665,16.5,False
1607123376.7700918,0.07918248787166665,0.5602794117900001,9.752985396093333,11.351958333333334,10.163708333333336,-11.643333333333336,-0.1243106666666667,-0.17115466666666676,-0.0005366666666666665,16.5,False
1607123376.7841837,0.11413763802,0.48380878953166645,9.764311423066667,11.214291666666668,9.952541666666667,-11.854208333333336,-0.12227600000000002,-0.1714253333333334,-0.0004946666666666663,16.5,False
1607123376.7980416,0.11519446800166667,0.4701298203349998,9.755398158881665,10.940416666666668,9.951083333333333,-12.417125000000004,-0.12045600000000004,-0.17166800000000007,-0.0004946666666666663,16.5,False
1607123376.8121326,0.12610175102,0.46339003667833306,9.754102046640002,11.312875000000002,10.197249999999999,-13.161750000000005,-0.11839333333333336,-0.17191066666666677,-0.0008399999999999998,16.5,False
1607123376.8260396,0.14129617452999996,0.4231108562449998,9.765906638133334,12.10241666666667,10.536166666666668,-13.962083333333338,-0.1157426666666667,-0.1723773333333334,-0.0007093333333333333,16.5,False
1607123376.8406606,0.18648064129333333,0.37435709576999976,9.782736157086669,12.82254166666667,10.382166666666668,-13.838125000000003,-0.11309200000000003,-0.17284400000000008,-0.0007093333333333333,16.5,False
1607123376.8546383,0.20215362932333333,0.2834298369699998,9.789954505263333,14.375083333333334,10.212125000000002,-13.02204166666667,-0.11059066666666668,-0.17304000000000005,-0.000933333333333333,16.5,False
1607123376.8686764,0.23994028621499996,0.11682956344499983,9.841260609845,15.883000000000003,9.85454166666667,-13.35804166666667,-0.10779066666666666,-0.1731986666666667,-0.000933333333333333,16.5,False
1607123376.8945272,0.26325036637666666,0.08269196101833319,9.905946580798332,17.128125000000004,9.400125000000003,-13.681208333333336,-0.10554133333333333,-0.1730306666666667,-0.0011479999999999995,16.5,False
1607123376.917535,0.27230321188,0.04321038811833327,9.976096163355,17.58954166666667,9.338583333333336,-14.46666666666667,-0.10444,-0.1724426666666667,-0.0023426666666666682,16.5,False
1607123376.943287,0.32117661348500004,-0.07092724990166666,10.051031391111668,18.634000000000004,9.531375000000002,-15.026375000000003,-0.10403866666666664,-0.17047333333333337,-0.003686666666666669,16.5,False
1607123376.961573,0.390688110015,-0.22366909253499992,10.11960569879,19.71841666666667,9.72591666666667,-15.195833333333336,-0.10398266666666663,-0.16718800000000003,-0.004787999999999998,16.5,False
1607123376.9861586,0.4021537183066667,-0.32319057250666655,10.204211917888333,19.945333333333338,10.19229166666667,-15.680000000000003,-0.10428133333333331,-0.16254000000000002,-0.005697999999999998,16.5,False
1607123377.0084543,0.43270208683333333,-0.3632504108683332,10.314600800501665,18.489333333333335,10.081458333333336,-16.268583333333336,-0.10420666666666666,-0.15657599999999997,-0.005716666666666665,16.5,False
1607123377.0332832,0.47371905423499994,-0.43144585496833326,10.378349582603333,15.813291666666668,9.814000000000002,-15.599791666666672,-0.10413199999999999,-0.15061200000000002,-0.005716666666666665,16.5,False
1607123377.0467265,0.5341777052616667,-0.5439284573566666,10.379326651831667,14.21729166666667,10.276875000000002,-14.379750000000003,-0.10412266666666667,-0.14440533333333333,-0.005473999999999998,16.5,False
1607123377.060646,0.5872983669816666,-0.6587041814033332,10.37753203488167,14.279416666666666,11.440625000000002,-12.803583333333334,-0.10370266666666668,-0.13746133333333338,-0.005632666666666664,16.5,False
1607123377.0746522,0.6102694639416666,-0.7593223717333333,10.373264834578334,14.446250000000001,12.940083333333337,-11.182500000000003,-0.10328266666666668,-0.13051733333333335,-0.005632666666666664,16.5,False
1607123377.0885072,0.6296912073783332,-0.8698109552883333,10.379565934091666,14.406875000000001,14.564083333333336,-10.140375000000002,-0.10250800000000002,-0.1232746666666667,-0.005534666666666664,16.5,False
1607123377.1026192,0.6561717774849999,-1.0257831084316666,10.386126256053334,13.7865,15.486041666666667,-10.286791666666668,-0.10173333333333336,-0.11603200000000005,-0.005534666666666664,16.5,False
1607123377.119195,0.7176274379283333,-1.1923235613916665,10.403115296513331,12.595333333333334,16.009875000000005,-10.766583333333335,-0.10029600000000002,-0.10808000000000002,-0.005739999999999998,16.5,False
1607123377.134384,0.799980415745,-1.3447862413883331,10.425428367258332,10.860208333333333,16.763250000000003,-10.241000000000001,-0.0988586666666667,-0.10012800000000004,-0.005739999999999998,16.5,False
1607123377.1483638,0.896770089915,-1.4705490092066666,10.428180113248333,9.044583333333332,17.866041666666668,-9.408583333333334,-0.09674933333333335,-0.09220400000000004,-0.0055299999999999985,16.5,False
1607123377.1622918,0.9712466933399999,-1.5928222440666666,10.404670631203333,7.7201249999999995,19.378333333333337,-8.744458333333334,-0.09376266666666669,-0.08370133333333338,-0.005501999999999998,16.5,False
1607123377.1770985,0.9955139025416667,-1.6662220773216665,10.33902753121,8.120000000000003,21.784875,-8.352458333333333,-0.09170000000000003,-0.07546933333333339,-0.005501999999999998,16.5,False
1607123377.1918945,1.0360921858,-1.8024733842033334,10.277332588506669,11.070208333333335,26.25525,-7.240333333333333,-0.08823733333333336,-0.06673333333333338,-0.005543999999999998,16.5,False
1607123377.2057726,1.1156535372500003,-1.9864814421433332,10.227043433530001,14.564666666666666,31.339291666666675,-5.950291666666669,-0.08477466666666669,-0.05799733333333337,-0.005543999999999998,16.5,False
1607123377.2205424,1.2091929607216667,-2.1205991488733336,10.167282689095,17.50904166666667,35.98787500000001,-4.586166666666667,-0.08008000000000001,-0.048216000000000016,-0.0058566666666666645,16.5,False
1607123377.2345512,1.2990833297283333,-2.1889939948566663,10.111390341196666,20.96091666666667,40.306291666666674,-2.815749999999999,-0.07538533333333336,-0.038434666666666686,-0.0058566666666666645,16.5,False
1607123377.24902,1.4304293502800003,-2.249911270215,10.091410272486668,24.510791666666666,44.23562500000001,-1.0791666666666686,-0.06994400000000002,-0.027384000000000002,-0.005506666666666665,16.5,False
1607123377.2628362,1.5509279083783336,-2.3993629817733333,10.103314564921666,27.121500000000008,46.73229166666668,0.46841666666666554,-0.06450266666666668,-0.016333333333333325,-0.005506666666666665,16.5,False
1607123377.276813,1.6311472860433336,-2.4424936091383334,10.043254717661664,29.04679166666667,49.02070833333335,1.6076666666666655,-0.05808133333333334,-0.00444266666666665,-0.005259333333333332,16.5,False
1607123377.2905648,1.726820309666667,-2.489632214358333,9.951071226996666,31.540250000000007,51.76295833333335,2.8029166666666674,-0.051071999999999985,0.008138666666666678,-0.004993333333333332,16.5,False
1607123377.307734,1.8164315160366669,-2.5644278607966666,9.855557724879997,35.07991666666667,55.754708333333355,3.619875,-0.04430533333333333,0.02072000000000002,-0.004993333333333332,16.5,False
1607123377.3215377,1.96438771347,-2.6201606871883327,9.726026261466664,38.65516666666667,59.95383333333335,4.614166666666667,-0.03730533333333333,0.03412266666666668,-0.004965333333333332,16.5,False
1607123377.3362405,2.12901390835,-2.6514667828716663,9.592088016431664,42.01691666666668,64.11154166666668,5.128958333333334,-0.030305333333333333,0.04752533333333334,-0.004965333333333332,16.5,False
1607123377.3509758,2.3113071100933333,-2.6485156349983328,9.477711096151666,45.14650000000001,66.81966666666668,5.135375000000001,-0.022437333333333323,0.06145066666666668,-0.004465999999999998,16.5,False
1607123377.3656626,2.4633709863233335,-2.6043680580283333,9.352406952664998,48.38108333333334,67.72966666666669,6.079208333333335,-0.01456933333333333,0.07537600000000001,-0.004465999999999998,16.5,False
1607123377.3802314,2.637787813675,-2.6980071824416663,9.195936294813333,51.33216666666668,67.42808333333336,6.79875,-0.00578666666666666,0.08977733333333333,-0.004330666666666666,16.5,False
1607123377.3941364,2.841317315993334,-2.760200629853334,9.005547376606666,54.975375000000014,66.39995833333334,7.997208333333334,0.0033319999999999934,0.10492533333333333,-0.003808000000000002,16.5,False
1607123377.4080951,3.0322246790966667,-2.745225548415,8.797710793608333,58.26158333333334,65.30970833333336,9.147833333333333,0.013150666666666673,0.118692,-0.003808000000000002,16.5,False
1607123377.421884,3.220699339223333,-2.7129025031266676,8.605427557510001,60.228875000000016,64.34837500000002,10.408125000000002,0.02362266666666667,0.13179599999999997,-0.0035653333333333353,16.5,False
1607123377.4357631,3.4115668219499997,-2.7643282488383343,8.411369644650001,61.610500000000016,62.52604166666669,12.719875000000004,0.03444933333333333,0.14353733333333332,-0.0035653333333333353,16.5,False
1607123377.4506662,3.4881172049616667,-2.8461229013816673,8.223553010738334,64.46387500000002,60.27350000000002,16.12741666666667,0.044538666666666664,0.154308,-0.0034066666666666694,16.5,False
1607123377.464695,3.5967314108133337,-2.9439494653450002,8.043174067075002,68.42820833333336,58.082208333333355,18.855083333333337,0.05462799999999999,0.16507866666666668,-0.0034066666666666694,16.5,False
1607123377.478652,3.7440694624083335,-2.9530421912250007,7.959305634945001,71.3897916666667,55.475583333333354,21.366916666666672,0.06511866666666666,0.176176,-0.0032246666666666686,16.5,False
1607123377.4926689,3.907379604858334,-2.962932524638333,7.968737344026667,73.71466666666669,55.85475000000002,22.77770833333334,0.07449866666666667,0.18658266666666667,-0.0032246666666666686,16.5,False
1607123377.5066597,4.106861248945,-3.0113074215349993,7.8654072880833334,74.30004166666669,57.71179166666669,23.222791666666673,0.08390666666666667,0.197596,-0.0030333333333333354,16.5,False
1607123377.5204546,4.339403725288333,-3.078505856218333,7.752466061363334,74.25016666666669,58.20879166666669,23.78191666666667,0.093128,0.20845066666666667,-0.0030333333333333354,16.5,False
1607123377.5351148,4.534817570955,-3.110888722071666,7.618527816328334,73.98941666666668,59.40404166666668,25.71566666666667,0.10285333333333332,0.21910933333333332,-0.0029866666666666683,16.5,False
1607123377.5489986,4.619563371371666,-3.217668430596666,7.4768527782200005,73.62541666666668,60.307625000000016,28.744333333333337,0.11234533333333334,0.22917066666666666,-0.0028233333333333357,16.5,False
1607123377.5630105,4.740540493989999,-3.308954612786666,7.3337420465516665,73.66945833333334,59.890833333333354,30.462250000000008,0.12183733333333334,0.239232,-0.0028233333333333357,16.5,False
1607123377.5767324,4.881059001174999,-3.369473084378333,7.21447978013,74.74220833333334,58.46283333333334,32.252791666666674,0.13109600000000002,0.24910666666666667,-0.002375333333333335,16.5,False
1607123377.5906694,5.022933441166667,-3.386860928604999,7.126244446754999,75.51016666666668,55.78183333333334,34.848625000000006,0.13947733333333334,0.2584026666666667,-0.002375333333333335,16.5,False
1607123377.6044803,5.186163822863333,-3.3285956982949996,7.056134744575,74.470375,51.290166666666664,38.500583333333346,0.14820400000000003,0.2678013333333334,-0.002226000000000001,16.5,False
1607123377.6183813,5.308496878288333,-3.2293932613366665,6.946503589118333,71.99879166666668,44.555875,42.316750000000006,0.1558386666666667,0.2765373333333334,-0.002226000000000001,16.5,False
1607123377.632129,5.401218754038331,-3.1748568462449995,6.897510546383331,68.322625,34.80195833333334,45.27862500000001,0.16369733333333336,0.28530133333333335,-0.0024966666666666687,16.5,False
1607123377.6465771,5.523252706638331,-3.1609186546,6.866862476914999,63.714000000000006,21.59266666666667,47.935708333333345,0.1700813333333334,0.293356,-0.0024966666666666687,16.5,False
1607123377.6604328,5.4728040301549985,-3.2071400111566666,6.762615172308332,55.23962500000001,11.415541666666673,48.404125000000015,0.17531733333333338,0.3012053333333334,-0.0026786666666666686,16.5,False
1607123377.6744547,5.458088171164998,-3.2423543837533333,6.667859397348333,51.213166666666666,7.925750000000003,48.78504166666668,0.1795173333333334,0.30784133333333336,-0.0026786666666666686,16.5,False
1607123377.6881769,5.510510926293331,-3.301576743103334,6.610032851181667,49.37770833333334,6.943416666666667,49.45937500000001,0.1834746666666667,0.3136746666666667,-0.0031780000000000016,16.5,False
1607123377.7026987,5.574279648583331,-3.3189247069533336,6.566722762121666,48.625499999999995,6.188874999999996,50.08033333333334,0.18687200000000004,0.3192093333333334,-0.0025526666666666684,16.5,False
1607123377.7170067,5.615296615984998,-3.321496991248334,6.728916254024999,46.09966666666665,4.909333333333333,52.11791666666668,0.1896813333333333,0.3240533333333334,-0.0025526666666666684,16.5,False
1607123377.7309496,5.730550904551665,-3.2989047578666675,6.782675001771667,40.401374999999994,0.015458333333334788,54.707916666666684,0.19295733333333334,0.32900000000000007,-0.0026320000000000024,16.5,False
1607123377.7448914,5.770511041971664,-3.346880850996668,6.766882372611665,31.251208333333313,-7.797708333333333,56.68104166666668,0.19540266666666667,0.33321866666666666,-0.0026320000000000024,16.5,False
1607123377.7596495,5.816054432124998,-3.353899797290001,6.693642060863332,22.10629166666666,-18.397166666666667,57.53795833333334,0.19764266666666666,0.336056,-0.0031640000000000023,16.5,False
1607123377.7736514,5.745406344859999,-3.3568509451633344,6.633043828518333,12.633833333333325,-27.523125,57.20545833333334,0.199136,0.33802533333333334,-0.0031640000000000023,16.5,False
1607123377.787996,5.695476113273332,-3.214717282723334,6.444748630086665,4.242291666666664,-29.559833333333337,55.311958333333344,0.19950933333333332,0.3391266666666667,-0.003728666666666668,16.5,False
1607123377.8021722,5.7502916910016655,-3.0712276874766675,6.376533245798331,0.2788333333333278,-26.75020833333333,54.14295833333334,0.19951866666666665,0.3394253333333333,-0.003728666666666668,16.5,False
1607123377.8160532,5.641896827221667,-2.9193233327533346,6.472186329233333,-2.1355833333333276,-22.716458333333332,54.30629166666667,0.19965866666666662,0.3383146666666666,-0.0034580000000000023,16.5,False
1607123377.830069,5.602495015074999,-2.778366141425001,6.604090675058333,-5.678749999999997,-21.744916666666665,54.305708333333335,0.19979866666666662,0.33720399999999995,-0.0034580000000000023,16.5,False
1607123377.8438468,5.487739231216666,-2.7823541790916675,6.605426667676666,-7.498458333333334,-20.7235,53.90350000000001,0.20019999999999996,0.33547733333333335,-0.003873333333333336,16.5,False
1607123377.8585508,5.417489947718333,-2.7464020195266667,6.634997966974999,-6.589041666666666,-18.27641666666667,51.66583333333333,0.2007133333333333,0.33395600000000003,-0.003808000000000002,16.5,False
1607123377.8726969,5.499364361014999,-2.718864619438333,6.693382838414999,-4.283125000000001,-14.215250000000003,48.454875,0.20144133333333328,0.332304,-0.003808000000000002,16.5,False
1607123377.8864768,5.579723319998333,-2.6421347747316664,6.7130837444883324,-1.3772500000000008,-9.738166666666663,45.77066666666666,0.20255199999999993,0.331492,-0.003150000000000002,16.5,False
1607123377.9004307,5.552225800286666,-2.6305096449333325,6.695955122709999,2.149291666666666,-5.219375,42.625625,0.20347599999999993,0.330204,-0.003150000000000002,16.5,False
1607123377.9150636,5.568895797733332,-2.607857590986666,6.665426694371665,1.6823333333333361,-5.358791666666663,40.26429166666666,0.20477333333333328,0.3298493333333333,-0.003108000000000002,16.5,False
1607123377.9296045,5.507619598984999,-2.5445873734049993,6.665805557949999,0.770875000000004,-8.01470833333333,38.18149999999999,0.20604266666666665,0.328888,-0.003108000000000002,16.5,False
1607123377.9432435,5.488875821951666,-2.4683959137833327,6.6805612973166655,0.6352500000000065,-9.162416666666665,36.789958333333324,0.20786266666666667,0.32825333333333334,-0.0028140000000000023,16.5,False
1607123377.9572203,5.496612615025,-2.4604995992033323,6.694200386136665,0.6670416666666685,-10.950916666666672,34.958291666666675,0.20917866666666668,0.3278146666666667,-0.0028140000000000023,16.5,False
1607123377.9711304,5.557689411889999,-2.376232363306667,6.716333995186664,1.4974166666666735,-12.541375000000006,32.73549999999999,0.2100746666666667,0.32727333333333336,-0.0027160000000000023,16.5,False
1607123377.9882872,5.540859892936666,-2.2472392849783334,6.736772688228331,1.8480000000000054,-13.404124999999999,31.447208333333336,0.2109146666666667,0.3269000000000001,-0.002538666666666669,16.5,False
1607123378.002167,5.530610636133332,-2.1425732364166667,6.739285151958331,0.7282916666666714,-13.564833333333338,29.710041666666672,0.21121333333333336,0.3265173333333334,-0.002538666666666669,16.5,False
1607123378.0160651,5.52119886724,-2.084228245353333,6.740162520244998,-1.5749999999999973,-13.076291666666675,27.248375000000003,0.2119226666666667,0.3260413333333334,-0.0025013333333333354,16.5,False
1607123378.029869,5.517709334281665,-2.190808551995,6.7831535662916655,-3.253249999999998,-11.25045833333334,23.623541666666668,0.21228666666666668,0.32546266666666673,-0.0025013333333333354,16.5,False
1607123378.052388,5.5279585910849995,-2.2455244287816667,6.836912314038332,-4.411458333333329,-8.333791666666674,19.215875000000004,0.2126413333333334,0.3248186666666667,-0.0026926666666666687,16.5,False
1607123378.0684886,5.557769172643333,-2.2274586181516667,6.862475635481666,-4.948708333333333,-3.5501666666666662,15.770125,0.21294933333333338,0.3240253333333334,-0.0025853333333333353,16.5,False
1607123378.0874486,5.542734270639999,-2.162573245315,6.842355985453333,-5.153166666666664,4.70808333333333,12.945041666666667,0.21325733333333338,0.3232320000000001,-0.0025853333333333353,16.5,False
1607123378.1083236,5.689813099786666,-2.0435901415299997,6.874320107351666,-1.6660000000000041,11.115999999999998,11.995375,0.21453600000000003,0.3224573333333334,-0.0028700000000000028,16.5,False
1607123378.1283355,5.7731630870199995,-2.0009580188733334,6.853701952615,-0.7207083333333324,12.807083333333333,11.398916666666667,0.21602000000000005,0.3216080000000001,-0.003089333333333335,16.5,False
1607123378.1533782,5.780740358586666,-1.9903498386799998,6.872625191343333,-2.0897916666666694,11.611541666666666,9.898875,0.21819466666666676,0.3214773333333334,-0.0026973333333333354,16.5,False
1607123378.1729522,5.8385070841883335,-1.9469400486783328,6.832665053923334,-3.521291666666666,10.651958333333331,8.815333333333337,0.22013600000000008,0.3208613333333334,-0.0026273333333333357,16.5,False
1607123378.1987991,5.906044502073333,-1.9273388435466665,6.645566266791667,-1.9842083333333318,10.511083333333334,6.504750000000001,0.22248800000000007,0.32038533333333336,-0.0027580000000000026,16.5,False
1607123378.218503,5.921258865771666,-1.969372760553333,6.581179398663333,0.38995833333333507,12.804166666666667,3.4822083333333333,0.22480266666666676,0.31988133333333335,-0.0022306666666666677,16.5,False
1607123378.234505,5.964409433325,-1.8984255704633333,6.562654963701666,5.436666666666663,18.307624999999998,0.6483750000000001,0.22711733333333345,0.31937733333333335,-0.0022306666666666677,16.5,False
1607123378.249049,5.965486203495,-1.9188443233166663,6.593761657501667,10.621625000000003,27.432708333333334,-1.7088750000000006,0.22966533333333347,0.3206746666666667,-0.002048666666666668,16.5,False
1607123378.2630327,6.06736062569,-1.9051454139316664,6.576393753463332,16.604875000000003,37.0545,-2.781916666666667,0.23221333333333347,0.32197200000000004,-0.002048666666666668,16.5,False
1607123378.2775035,6.194499266503334,-2.0388443767066664,6.693203376719998,22.295875000000002,41.84045833333334,-2.149,0.23617066666666678,0.324128,-0.001862000000000001,16.5,False
1607123378.2915006,6.199364672456667,-2.190788611806666,6.714200395034998,23.146958333333327,42.00758333333333,-1.91975,0.2401280000000001,0.3262840000000001,-0.001862000000000001,16.5,False
1607123378.3051925,6.354439517125001,-2.367398859875,6.573881289733333,21.913208333333333,40.61370833333333,-2.904416666666667,0.2446453333333335,0.3293173333333334,-0.0015119999999999997,16.5,False
1607123378.3194535,6.427859290568334,-2.5139791843133334,6.4054265786933335,20.929708333333334,41.804291666666664,-3.7689166666666667,0.2491626666666668,0.33235066666666674,-0.0015119999999999997,16.5,False
1607123378.3332975,6.537689847908335,-2.4630120629333327,6.330092547169999,19.4355,43.13604166666667,-4.7352083333333335,0.25369866666666685,0.335356,-0.0014606666666666668,16.5,False
1607123378.3475013,6.668617124505,-2.425823611691666,6.215296882934999,17.891416666666665,44.62558333333333,-4.482333333333333,0.25818800000000014,0.338268,-0.0011153333333333332,16.5,False
1607123378.3625422,6.734838489960001,-2.432184531769999,6.083312776356666,15.73541666666667,45.80479166666667,-4.2592083333333335,0.2626773333333335,0.34118,-0.0011153333333333332,16.5,False
1607123378.37715,6.803771721028334,-2.4981865551533327,6.034798298141666,11.551458333333333,45.58633333333333,-4.453458333333335,0.26730666666666675,0.343224,-0.000933333333333333,16.5,False
1607123378.390764,6.853382909601667,-2.5023939348916655,5.9083775041083335,6.0138750000000005,44.284625000000005,-4.24725,0.2719360000000001,0.34526799999999996,-0.000933333333333333,16.5,False
1607123378.405465,6.89886647919,-2.50995126627,5.729653596076668,3.3929583333333344,44.130333333333354,-3.9876666666666676,0.27645333333333344,0.34636,-0.0008959999999999998,16.5,False
1607123378.4194999,6.953701997106666,-2.5530420132583336,5.592943664863335,4.597833333333336,45.13658333333334,-3.033333333333333,0.2809706666666668,0.347452,-0.0008959999999999998,16.5,False
1607123378.4332428,6.989574395918335,-2.5407987376216665,5.4889157023283355,8.144208333333335,47.02950000000001,-3.322375,0.2851520000000001,0.34836666666666666,-0.0005926666666666666,16.5,False
1607123378.4471285,7.078866559275,-2.450350043341667,5.414678381163335,11.802875000000002,49.73237500000002,-5.110874999999999,0.28933333333333344,0.3492813333333334,-0.0005926666666666666,16.5,False
1607123378.4621255,7.181020144106667,-2.4211775478100006,5.306662380961668,14.665291666666668,52.44166666666669,-8.09025,0.29369200000000006,0.3507653333333334,3.266666666666678e-05,16.5,False
1607123378.4760644,7.327919511558333,-2.3964317740883336,5.167599507525001,15.853541666666668,53.63166666666668,-11.635458333333334,0.29797600000000013,0.35297733333333337,0.0005040000000000002,16.5,False
1607123378.4906754,7.399345266168335,-2.4627727806733337,5.020221575553333,17.266958333333335,53.674250000000015,-13.816833333333335,0.30226000000000014,0.35518933333333336,0.0005040000000000002,16.5,False
1607123378.5054424,7.459524754558333,-2.5588844884400004,4.905864595461667,19.262833333333337,53.73754166666667,-15.084125000000002,0.30634800000000006,0.3577653333333334,0.000392,16.5,False
1607123378.5192182,7.514978418313333,-2.610310234151667,4.803611309688333,19.87125,54.06275000000001,-14.870916666666668,0.31043600000000005,0.3603413333333334,0.000392,16.5,False
1607123378.5331492,7.628458030118333,-2.6464817357883335,4.6992044835749995,18.385208333333335,55.26470833333334,-13.612375000000002,0.314664,0.36291733333333337,0.0008166666666666667,16.5,False
1607123378.546895,7.69723173968,-2.6805395774616665,4.534139604551666,16.467208333333335,57.577333333333335,-12.050208333333334,0.3187146666666667,0.3656146666666667,0.0008166666666666667,16.5,False
1607123378.560729,7.792087215581668,-2.755833728608333,4.321836419366666,15.890291666666668,59.828416666666676,-10.857000000000001,0.32322266666666677,0.367108,0.0003966666666666666,16.5,False
1607123378.574605,7.826264698385001,-2.9370501601816668,4.123252083755,18.535708333333332,61.526208333333344,-10.363208333333336,0.32790800000000003,0.368788,0.0003966666666666666,16.5,False
1607123378.5893588,7.889674497285,-3.072643440848333,4.067758539623333,17.255583333333334,59.88733333333334,-11.603666666666667,0.3326586666666667,0.37058933333333327,0.0007653333333333334,16.5,False
1607123378.6030898,7.938109214746668,-3.10313198881,3.8662629365149996,16.534000000000002,59.670625,-12.987041666666668,0.3369613333333333,0.37247466666666657,0.0007653333333333334,16.5,False
1607123378.6176836,7.9984282844550005,-3.1862227535949996,3.735295779541666,15.09229166666667,59.23429166666667,-14.562041666666666,0.34103066666666665,0.3743599999999999,0.0006533333333333336,16.5,False
1607123378.6315997,8.094958736176666,-3.27015100629,3.5354751522533334,12.295500000000004,58.02241666666667,-15.671833333333332,0.3448386666666667,0.37605866666666654,0.0008353333333333333,16.5,False
1607123378.6457477,8.128298731069998,-3.3135807364799996,3.3188449462,11.767000000000001,56.889,-15.694291666666667,0.3482173333333333,0.37768266666666656,0.0008353333333333333,16.5,False
1607123378.6603913,8.167102337566666,-3.4229327293000003,3.1802805774716663,11.696124999999999,54.87766666666667,-15.473500000000001,0.3515866666666667,0.3793066666666665,0.0009473333333333333,16.5,False
1607123378.6751986,8.195277823681666,-3.4954153138916673,3.0668209058549993,11.249875000000001,52.38216666666666,-15.169875000000001,0.354928,0.3805106666666665,0.0009473333333333333,16.5,False
1607123378.6898563,8.204091386924999,-3.5846675968716664,2.9874788964766665,9.341208333333334,49.85633333333333,-15.906333333333333,0.35808266666666666,0.3817239999999998,0.0005273333333333334,16.5,False
1607123378.7038753,8.209754400411665,-3.6619956472283337,2.8719653854616665,6.4350416666666685,47.369,-17.634166666666665,0.360948,0.38294666666666644,0.0005273333333333334,16.5,False
1607123378.7185822,8.21491890919,-3.717868054938334,2.7328426914599997,4.516750000000002,45.7205,-19.934541666666668,0.363692,0.3841226666666665,0.00042933333333333343,16.5,False
1607123378.7355142,8.231728487955,-3.757190106331667,2.621157696604999,3.18325,44.877291666666665,-22.0465,0.36576400000000003,0.3850466666666666,0.00036399999999999996,16.5,False
1607123378.7494059,8.237291800499998,-3.826761423426667,2.500080873045,2.5585000000000035,44.361041666666665,-24.060166666666667,0.3678360000000001,0.3859706666666665,0.00036399999999999996,16.5,False
1607123378.763162,8.307580964375,-3.939503248263333,2.4125235060733337,1.779166666666671,43.03891666666666,-25.756500000000006,0.3694506666666667,0.38687599999999994,3.266666666666678e-05,16.5,False
1607123378.778214,8.348897034601665,-4.054358733063333,2.3126630428999997,-0.47804166666666476,40.22870833333332,-27.489875,0.3710000000000001,0.38766933333333325,3.266666666666678e-05,16.5,False
1607123378.7926266,8.34576642503333,-4.156970942226667,2.211506467485,-3.650208333333333,36.92499999999998,-29.175125,0.3721946666666668,0.3884253333333333,-0.00013999999999999993,16.5,False
1607123378.8063908,8.28199770274333,-4.18361103384,2.0849460921333334,-5.489750000000002,34.40033333333334,-30.424625000000002,0.3728666666666667,0.38920933333333335,-0.00013999999999999993,16.5,False
1607123378.8202386,8.359963839126664,-4.238865295711666,2.021875276435,-6.002500000000001,32.21954166666668,-31.610833333333336,0.3736413333333334,0.3900026666666667,0.00014933333333333335,16.5,False
1607123378.8350956,8.371010703463332,-4.324867327993333,1.9625532161433332,-5.380375000000002,29.304916666666678,-32.36654166666667,0.3741546666666667,0.3908146666666667,0.00014933333333333335,16.5,False
1607123378.8496714,8.429575036598331,-4.380679915138334,1.9478373571533332,-6.420458333333334,25.42166666666668,-32.89154166666667,0.37432266666666675,0.3918413333333334,0.00028933333333333334,16.5,False
1607123378.8634365,8.392546106863332,-4.527519462024999,1.9204794187600003,-9.802625000000003,20.364458333333346,-32.624375,0.37352,0.39265333333333335,-0.00031733333333333326,16.5,False
1607123378.8773305,8.340462334936666,-4.669194500133333,1.9000407257183332,-13.305250000000003,14.940041666666678,-30.979666666666667,0.3727173333333334,0.39346533333333333,-0.00031733333333333326,16.5,False
1607123378.8911881,8.255736474708332,-4.735854549731667,1.8854843882349996,-16.716583333333336,10.03333333333334,-28.615999999999996,0.3716533333333334,0.39384800000000003,-0.0006066666666666667,16.5,False
1607123378.905039,8.150731442944998,-4.839344127181666,1.8967904750200002,-17.631250000000005,7.4447916666666725,-27.061416666666666,0.37072000000000005,0.3933346666666668,-0.0006066666666666667,16.5,False
1607123378.919606,8.099804201941664,-4.912883541754999,1.8819549749,-18.14954166666667,6.670125000000005,-27.337916666666665,0.36945066666666665,0.39310133333333336,-0.0008866666666666664,16.5,False
1607123378.933375,8.110691544771663,-4.989094941565,1.8530417018166667,-18.71945833333334,5.834208333333336,-27.411999999999995,0.36796666666666666,0.3925973333333334,-0.0008866666666666664,16.5,False
1607123378.947801,8.130432331221664,-4.9887360181750005,1.7895322019750002,-18.879000000000005,4.900000000000003,-27.674791666666668,0.3663053333333333,0.3923920000000001,-0.00023333333333333339,16.5,False
1607123378.9622328,8.107680576333332,-5.017888573518333,1.7422540154366666,-16.53195833333334,3.4559583333333395,-28.214375,0.3645133333333333,0.3922520000000001,-0.00023333333333333339,16.5,False
1607123378.9764886,8.091529023783332,-5.080879628463333,1.742293895813333,-13.244875000000004,0.972416666666668,-29.017041666666664,0.363076,0.3918786666666668,-0.00031733333333333326,16.5,False
1607123378.990393,8.015457205291666,-5.148456926725,1.82045943408,-10.96579166666667,-1.8821250000000016,-29.833999999999993,0.36111599999999994,0.39295200000000013,-0.00019599999999999972,16.5,False
1607123379.0044007,8.00135949214,-5.15306311023,1.8941184897833332,-11.74016666666667,-5.000916666666667,-30.549458333333327,0.3591559999999999,0.39402533333333345,-0.00019599999999999972,16.5,False
1607123379.0183306,7.973642630356666,-5.138107968979999,1.83254318821,-10.153208333333337,-6.011833333333333,-30.033208333333327,0.356916,0.3949586666666668,-0.00011666666666666675,16.5,False
1607123379.0322115,7.9657463157766655,-5.158586542398333,1.8342181640300004,-8.290333333333336,-7.375375,-29.302583333333324,0.35467600000000005,0.39589200000000013,-0.00011666666666666675,16.5,False
1607123379.0469556,7.936035435159999,-5.232963444881666,1.82584328493,-6.419875000000003,-8.664541666666667,-28.610458333333327,0.3523706666666667,0.3970213333333335,-7.466666666666661e-05,16.5,False
1607123379.0616794,7.868298615391666,-5.3029335657433325,1.8495721090466672,-5.289375000000002,-9.868249999999998,-27.681791666666655,0.3499160000000001,0.3981973333333334,-7.466666666666661e-05,16.5,False
1607123379.0756323,7.818288623051666,-5.374837884873332,1.9215561889300004,-4.857125000000002,-10.452458333333334,-26.862208333333328,0.34746133333333346,0.3997466666666668,-0.00010266666666666662,16.5,False
1607123379.0894282,7.805566782894999,-5.430949574843334,1.9814365744950002,-4.670749999999999,-10.3425,-26.257874999999995,0.34501600000000016,0.40129600000000015,-0.00010266666666666662,16.5,False
1607123379.103488,7.797251724359999,-5.470191865483333,1.9718852242833336,-3.9170833333333337,-10.635041666666666,-25.363916666666665,0.34257066666666686,0.4026493333333335,0.00017733333333333324,16.5,False
1607123379.1172822,7.828438178913333,-5.496034349563333,1.923330865691667,-2.0857083333333324,-12.11875,-22.546416666666666,0.34031200000000017,0.4039933333333335,0.00017733333333333324,16.5,False
1607123379.131343,7.809634581315,-5.5394640797533325,1.9315262830966669,-0.5882916666666671,-13.768125,-18.155083333333327,0.3381093333333335,0.4052813333333335,0.0002053333333333333,16.5,False
1607123379.1450298,7.7817382578366665,-5.570909756754999,1.969392700741667,0.21029166666666865,-14.575166666666666,-13.23991666666666,0.3360840000000001,0.4064853333333334,-0.00016333333333333323,16.5,False
1607123379.1589956,7.717012406506667,-5.6212786724849995,2.022473482085,0.5098333333333336,-14.238291666666665,-8.709458333333329,0.3344693333333334,0.40750266666666674,-0.00016333333333333323,16.5,False
1607123379.1729336,7.68227659843,-5.648656551066666,2.055893237731667,0.24937500000000032,-12.873291666666663,-4.508875000000001,0.3331906666666667,0.4080813333333334,-0.00019133333333333326,16.5,False
1607123379.1868865,7.629135996521667,-5.673801128555,2.0999610539483333,0.09741666666666642,-11.60308333333333,-0.31704166666666583,0.33200533333333326,0.408436,-0.00019133333333333326,16.5,False
1607123379.2007396,7.590212748895,-5.665266727948333,2.1562123252366665,-0.024791666666666146,-10.242166666666664,4.043375,0.3313519999999999,0.40857600000000005,-0.0002613333333333332,16.5,False
1607123379.2150705,7.585646445766667,-5.5954361884049995,2.148834455553333,0.38587500000000075,-9.069374999999999,8.598916666666668,0.33105333333333326,0.4087533333333334,-0.0002613333333333332,16.5,False
1607123379.2416844,7.633183854753333,-5.562794100103332,2.150609132315,0.7673750000000014,-8.394166666666663,12.076750000000002,0.33115599999999995,0.40861333333333344,2.8000000000000074e-05,16.5,False
1607123379.2558722,7.590152928329999,-5.536393290749999,2.2125234170899994,0.8038333333333365,-6.4152083333333305,14.724500000000003,0.33144533333333326,0.4083706666666667,-0.00043400000000000003,16.5,False
1607123379.2814362,7.584948539175,-5.473402235804999,2.244128615598333,0.9336250000000033,-3.9666666666666646,15.99091666666667,0.33222933333333327,0.407764,8.400000000000002e-05,16.5,False
1607123379.299944,7.5917282032083335,-5.430790053336664,2.2642283254383333,1.7249166666666689,-1.6700833333333327,16.032625000000003,0.33360133333333325,0.40656933333333334,-0.00017266666666666664,16.5,False
1607123379.3316057,7.645925635098334,-5.357250638763332,2.2362123608299997,2.504250000000002,0.4652083333333337,15.372000000000005,0.33572933333333327,0.4054400000000001,-0.00017266666666666664,16.5,False
1607123379.3458169,7.664170907423335,-5.343192805988331,2.1934007764783328,4.519083333333335,2.349083333333334,13.831416666666671,0.33766133333333326,0.40501066666666674,0.000466666666666667,16.5,False
1607123379.3733017,7.724569737885002,-5.294399165136666,2.193201374594999,7.0609583333333354,3.922916666666669,11.380833333333333,0.33915466666666655,0.40492666666666677,0.0005553333333333335,16.5,False
1607123379.3984046,7.769275640128334,-5.237290465749999,2.1838693664549993,9.570458333333336,4.600458333333334,9.139083333333337,0.3404333333333333,0.4053093333333334,0.000714,16.5,False
1607123379.4114313,7.766942638093335,-5.123651332438333,2.2336201363466657,11.044250000000002,4.700500000000002,6.881,0.3414506666666666,0.40602800000000006,0.0013813333333333338,16.5,False
1607123379.4263875,7.752446121175,-4.945665211375,2.268774688378332,12.403416666666669,5.579291666666667,3.5428749999999978,0.342468,0.40674666666666665,0.0013813333333333338,16.5,False
1607123379.4401233,7.797750229068332,-4.795136729646667,2.300559348581666,14.77991666666667,6.801083333333336,-1.1205833333333373,0.3430933333333333,0.40799733333333327,0.0017500000000000007,16.5,False
1607123379.4543712,7.981778227196667,-4.5729232708600005,2.3376082185049993,17.70883333333334,8.13429166666667,-7.216125000000003,0.34313066666666664,0.4097333333333333,0.0022866666666666664,16.5,False
1607123379.468267,8.335736510301667,-4.295515370766666,2.4156142352649996,20.790875000000007,9.95341666666667,-14.309750000000005,0.34281333333333336,0.41170266666666666,0.0022866666666666664,16.5,False
1607123379.4853182,8.761938095738333,-4.0306299089466675,2.473241379548333,24.517208333333336,11.67891666666667,-22.525125000000006,0.3413573333333334,0.41407333333333335,0.002935333333333331,16.5,False
1607123379.4991171,9.170891418266667,-3.8427135740933336,2.4258435518799994,28.44975,13.037500000000001,-30.441833333333342,0.3399013333333334,0.416444,0.002935333333333331,16.5,False
1607123379.513046,9.571190699058333,-3.6436905543383338,2.3196022284399995,30.71366666666667,14.284083333333335,-37.56812500000001,0.3373066666666667,0.419608,0.003625999999999998,16.5,False
1607123379.527037,9.98034342347,-3.3085757492083334,2.249771688896667,30.494041666666668,15.188250000000004,-43.50820833333334,0.334712,0.422772,0.003625999999999998,16.5,False
1607123379.540943,10.381061448216666,-2.784308317548333,2.295993045453334,26.328458333333337,16.723,-50.36558333333334,0.3313146666666667,0.42592666666666656,0.003793999999999998,16.5,False
1607123379.5554256,10.624291865506667,-2.2767108833350003,2.4584856401816664,20.404416666666673,18.771083333333333,-59.907458333333345,0.3279173333333334,0.42908133333333326,0.003793999999999998,16.5,False
1607123379.5691755,10.37683412829,-1.8897715287266668,2.7164319164616666,16.696458333333336,19.456500000000002,-69.96091666666668,0.322896,0.43173199999999995,0.0029399999999999977,16.5,False
1607123379.5838494,9.575457899361664,-1.6744972554800002,2.967478887578333,18.726166666666668,19.635875000000006,-79.67633333333336,0.3159240000000001,0.43455999999999995,0.003084666666666665,16.5,False
1607123379.5977044,8.656594080773333,-1.6986647637400003,3.0667411451016666,24.34804166666667,22.794625000000003,-89.60554166666671,0.30895200000000006,0.437584,0.003084666666666665,16.5,False
1607123379.6124775,7.730312512124999,-2.0493329157700004,2.8056443190650002,26.500249999999998,31.205708333333334,-100.64191666666669,0.30030933333333343,0.4405426666666666,0.0036399999999999983,16.5,False
1607123379.6267262,6.836633151401666,-2.5037299275100002,2.23657128422,26.77179166666667,39.403,-110.40429166666671,0.29161066666666674,0.44355733333333325,0.0036399999999999983,16.5,False
1607123379.6413512,5.9543994587816655,-2.9718657290116672,1.5739787660916666,29.93054166666667,42.195708333333336,-115.39500000000004,0.28171733333333343,0.44616133333333324,0.0026599999999999987,16.5,False
1607123379.655179,5.093422006924999,-3.4360733134116668,0.8391230054433334,34.717083333333335,40.47720833333333,-115.89287500000003,0.271824,0.44876533333333324,0.0026599999999999987,16.5,False
1607123379.66946,4.206322908351666,-3.732504153175,0.29044878326333357,38.56912500000001,34.972875,-113.68875000000004,0.26194000000000006,0.45192933333333324,0.003742666666666665,16.5,False
1607123379.6833768,3.509712428926666,-3.80375044609,-0.0637687222899998,41.026125000000015,28.899499999999996,-111.37379166666668,0.252056,0.45509333333333324,0.003742666666666665,16.5,False
1607123379.6980717,2.9138796613383326,-3.843052557295,-0.28203402378666664,42.61162500000002,23.89041666666667,-109.05620833333337,0.24198533333333336,0.45903199999999994,0.004769333333333335,16.5,False
1607123379.711876,2.472922336534999,-3.8720854715083335,-0.43128633346166695,44.24058333333335,19.260791666666666,-106.81825000000002,0.23245600000000002,0.4631573333333333,0.0049000000000000024,16.5,False
1607123379.7257767,2.1471395395449995,-3.871088462091666,-0.5658227841466668,46.51733333333335,14.829791666666669,-104.59750000000005,0.22252533333333335,0.46759999999999996,0.0049000000000000024,16.5,False
1607123379.7397177,1.8683158860799998,-3.9433517046116666,-0.7215157746533334,48.11187500000001,9.854833333333335,-102.21750000000003,0.21289333333333335,0.47256533333333334,0.004965333333333336,16.5,False
1607123379.7537556,1.6011173624133328,-4.0797226526233334,-0.8710871273416666,47.65541666666668,5.987041666666668,-98.94033333333337,0.2027666666666667,0.4778946666666667,0.004965333333333336,16.5,False
1607123379.7682266,1.3996217593049998,-4.1744584873949995,-1.0009176935799995,44.82070833333334,3.374583333333331,-95.03929166666671,0.19290133333333334,0.4834946666666667,0.0051426666666666695,16.5,False
1607123379.7822735,1.318544953541666,-4.348376810038332,-1.0775877177216668,42.08370833333335,0.7087499999999982,-90.95129166666669,0.18303600000000003,0.4890946666666667,0.0051426666666666695,16.5,False
1607123379.7961802,1.307896892971667,-4.4797427707783335,-1.1294920279533334,38.85904166666668,-1.804833333333335,-85.92616666666667,0.173656,0.4941626666666667,0.004970000000000003,16.5,False
1607123379.8110235,1.292802170403333,-4.67270397328,-1.1966505822599998,34.291250000000005,-3.4886250000000034,-79.620625,0.16460266666666667,0.4988946666666667,0.004970000000000003,16.5,False
1607123379.824943,1.2137991442266662,-4.911088924805,-1.2537194012700001,27.809541666666657,-3.8920000000000003,-72.15920833333335,0.15637999999999994,0.5029546666666667,0.004820666666666668,16.5,False
1607123379.8388102,1.1714860645833334,-5.154578564543333,-1.3336994966750004,21.538708333333325,-4.368875000000002,-63.28758333333335,0.14875466666666665,0.5063986666666666,0.004820666666666668,16.5,False
1607123379.852968,1.1481959246099998,-5.354239670325,-1.415095345451667,16.17233333333333,-6.134041666666666,-53.65558333333335,0.14203466666666667,0.5098239999999999,0.004461333333333335,16.5,False
1607123379.867538,1.1461819655883334,-5.480500942851666,-1.4639488068683335,11.365083333333333,-8.537666666666668,-44.33187500000003,0.13650933333333332,0.5123066666666667,0.003527999999999998,16.5,False
1607123379.8813777,1.04709916976,-5.715157079158334,-1.516790305951667,6.432125,-10.190250000000002,-35.51362500000003,0.131572,0.5143040000000001,0.003527999999999998,16.5,False
1607123379.896525,0.7963513014683336,-6.013701578885,-1.59350021047,2.012500000000003,-12.2535,-25.817458333333352,0.12730666666666668,0.5162546666666666,0.0029913333333333315,16.5,False
1607123379.9101758,0.5083950417466666,-6.2910297182249995,-1.6420146886850004,-2.5526666666666684,-14.689500000000002,-15.077124999999993,0.12424533333333336,0.5175613333333334,0.0029913333333333315,16.5,False
1607123379.9241824,0.20761724092666653,-6.465466485764998,-1.5592429669133339,-7.4789166666666675,-16.736416666666667,-5.291416666666661,0.12171600000000002,0.5184386666666667,0.003047333333333332,16.5,False
1607123379.9378564,-0.1580459327300005,-6.709075766633332,-1.404606806388334,-10.400833333333336,-18.715374999999998,3.035083333333342,0.12033466666666669,0.5186160000000001,0.003047333333333332,16.5,False
1607123379.9518027,-0.5595815051983337,-7.075755889895,-1.282413332281667,-10.284458333333339,-20.461583333333333,10.36408333333335,0.11907466666666668,0.5189893333333333,0.003303999999999999,16.5,False
1607123379.9655614,-0.943470010991668,-7.594639470704997,-1.273619709226667,-6.541500000000001,-22.725500000000004,18.390458333333346,0.118776,0.5191760000000001,0.003303999999999999,16.5,False
1607123379.9800415,-1.1336595273150007,-8.092685554706664,-1.364546968026667,-1.3381666666666674,-25.18133333333333,28.196583333333347,0.11858,0.5192413333333333,0.003579333333333332,16.5,False
1607123379.9938443,-0.7908677496766685,-8.451888107343331,-1.5590834454066664,1.6467499999999964,-26.22375,37.715125000000015,0.12000800000000002,0.5194373333333333,0.003579333333333332,16.5,False
1607123380.0086713,0.07992027483999925,-8.603872222819998,-1.721476339193333,-0.4637499999999974,-26.88175,46.63429166666668,0.12335866666666667,0.5194186666666666,0.0036399999999999983,16.5,False
1607123380.0227551,1.0894521297799993,-8.485467384496664,-1.6276178727083328,-6.292416666666666,-29.577624999999998,54.810000000000024,0.12656000000000003,0.5194373333333333,0.0031406666666666653,16.5,False
1607123380.036632,2.1512870987183326,-8.024928794749998,-1.1166106662900002,-8.652583333333336,-35.57079166666667,61.429375000000014,0.13143200000000002,0.5195213333333333,0.0031406666666666653,16.5,False
1607123380.0505059,3.301556802914999,-7.451668320354997,-0.34723843963666745,-8.347208333333338,-40.749625000000016,65.10525000000001,0.135828,0.5195586666666666,0.003406666666666666,16.5,False
1607123380.064605,4.562474612173332,-6.882635165886664,0.4995814785033325,-10.532958333333337,-41.05033333333334,63.65187499999999,0.1413626666666667,0.5201373333333333,0.003406666666666666,16.5,False
1607123380.0791256,5.869115273279999,-6.317649869649997,1.3693724936033334,-14.168000000000003,-37.54595833333334,57.498000000000005,0.14667333333333332,0.5211173333333333,0.0032339999999999986,16.5,False
1607123380.0933917,7.175755934386667,-5.956154195354997,2.07266293612,-16.914916666666667,-30.828875000000007,48.710375000000006,0.15163866666666667,0.521976,0.0032339999999999986,16.5,False
1607123380.1071606,8.269275862586666,-5.832525027688331,2.518705008948333,-19.547791666666665,-22.69079166666667,38.91329166666669,0.15589466666666665,0.5227226666666666,0.002953999999999998,16.5,False
1607123380.1211927,9.263174609873333,-5.791807163111666,2.774816787901666,-21.980583333333335,-15.937250000000002,28.491458333333338,0.15980533333333333,0.5229093333333332,0.002953999999999998,16.5,False
1607123380.1350164,10.111091238371666,-5.660002518228333,3.0524240898783335,-24.794291666666666,-9.88079166666666,17.959666666666674,0.16250266666666663,0.522452,0.003014666666666665,16.5,False
1607123380.1489694,10.814281979946665,-5.3537810459933315,3.432843002901667,-29.383375,-2.620333333333329,6.905791666666658,0.16519999999999999,0.5219946666666667,0.003014666666666665,16.5,False
1607123380.1659474,11.25500002249,-4.8107498971116645,3.8901114017616667,-34.06958333333334,5.995791666666668,-5.902166666666681,0.16631999999999994,0.5209866666666667,0.0027579999999999987,16.5,False
1607123380.1798592,10.940343850589999,-4.009333787806665,4.360779607181667,-35.305375000000005,13.21279166666667,-18.919249999999995,0.16628266666666663,0.5189706666666667,0.002016,16.5,False
1607123380.193694,10.20349407110833,-3.3968310227716656,4.715774780079999,-24.002416666666665,14.395499999999998,-31.812374999999996,0.16574133333333332,0.5170573333333334,0.002016,16.5,False
1607123380.2079992,9.353563483588333,-3.0012775068033335,4.451328002403333,-12.802416666666671,18.563708333333334,-44.390791666666665,0.16236266666666666,0.5150973333333334,0.003709999999999998,16.5,False
1607123380.222691,8.45009349039333,-3.2025936482166673,3.782434384761667,-2.2586666666666644,30.49725,-57.22441666666666,0.15869466666666662,0.5129693333333334,0.003709999999999998,16.5,False
1607123380.237064,7.535616513238332,-3.5326436455100003,3.1015567139316667,-9.745166666666668,41.459250000000004,-57.46241666666666,0.153496,0.5103840000000001,0.00448466666666667,16.5,False
1607123380.2510238,6.686264191179997,-3.445325560798333,2.418166579371667,-12.228416666666666,39.817458333333335,-52.04354166666666,0.14768133333333333,0.5080040000000001,0.00448466666666667,16.5,False
1607123380.2654476,6.112146288686663,-2.8903103587283328,2.051705798181666,-5.399041666666666,30.236791666666665,-51.10554166666667,0.14312666666666668,0.5059226666666667,0.0031033333333333316,16.5,False
1607123380.2800596,5.559563789593331,-2.6311078505833336,1.998006871,-0.3450416666666624,22.33816666666667,-53.13058333333335,0.1375546666666667,0.5045973333333333,0.004494000000000003,16.5,False
1607123380.2938354,4.88353158452833,-2.6131816212716665,2.067657948848333,0.1785000000000006,16.9015,-53.742500000000014,0.1313573333333333,0.503384,0.004494000000000003,16.5,False
1607123380.3075466,4.203451521231664,-2.5186850687599995,2.2735603335783328,-0.9773750000000002,12.452416666666666,-52.04500000000001,0.12568266666666664,0.5024040000000001,0.004578000000000002,16.5,False
1607123380.3215086,3.6329029124499996,-2.398485613486666,2.5019353105599995,-2.273249999999997,9.766750000000002,-50.49800000000001,0.11933599999999996,0.5014706666666667,0.004578000000000002,16.5,False
1607123380.3352714,3.190131030508333,-2.324407813828333,2.6186452328749996,-2.7317499999999977,7.674916666666667,-49.516833333333366,0.11350266666666663,0.5009946666666668,0.004540666666666669,16.5,False
1607123380.3491695,2.8995027855499997,-2.3280967486699997,2.6153949821766664,-1.7905416666666658,5.462041666666666,-48.24050000000002,0.10713733333333329,0.5009480000000001,0.004540666666666669,16.5,False
1607123380.3629842,2.658366088035,-2.372683009783333,2.5275783927566664,-1.2171249999999965,4.30266666666667,-47.07704166666667,0.10087466666666663,0.5009013333333335,0.004802000000000002,16.5,False
1607123380.37683,2.373640138823334,-2.519502616481667,2.3669801159199997,-2.10525,4.14954166666667,-45.53908333333335,0.09449066666666663,0.5006586666666669,0.004802000000000002,16.5,False
1607123380.3906062,2.080678891830001,-2.6810779625466665,2.1970498309433335,-3.031874999999998,3.5078750000000003,-43.02754166666667,0.08859199999999996,0.5006306666666669,0.0049466666666666695,16.5,False
1607123380.418816,1.8245471726883347,-2.81084870822,2.022912166228333,-1.2244166666666656,1.3442916666666695,-40.81758333333333,0.08298266666666662,0.5011160000000002,0.004895333333333336,16.5,False
1607123380.4382837,1.6903497052050012,-2.9786055126683326,1.8002999036749996,-0.18579166666666388,0.35000000000000236,-38.57845833333335,0.07774666666666663,0.5015733333333335,0.005329333333333336,16.5,False
1607123380.4616218,1.5162319806783346,-3.2435906754299997,1.5012369590516659,-0.6544999999999969,-0.7819583333333362,-35.27183333333333,0.07253866666666668,0.5020680000000003,0.005329333333333336,16.5,False
1607123380.4795098,1.3850853620099997,-3.5111481224866665,1.2480563877833324,-1.7896666666666632,-3.2127083333333313,-30.555875000000015,0.06779733333333335,0.5025720000000002,0.005231333333333336,16.5,False
1607123380.5033443,1.2622737420650003,-3.806881055658333,1.0214959679399993,-1.8497499999999967,-7.011958333333329,-24.977458333333345,0.06353200000000002,0.5031693333333335,0.005124000000000002,16.5,False
1607123380.5210454,1.0593424453966662,-4.130071628165,0.8447660787416662,-2.0903749999999968,-10.320916666666669,-18.516749999999995,0.06029333333333335,0.5039253333333336,0.00580066666666667,16.5,False
1607123380.5416772,0.6822934242016657,-4.449014940556666,0.6577271121749997,-4.549999999999999,-12.372499999999999,-11.049791666666694,0.057680000000000016,0.5045786666666668,0.005441333333333336,16.5,False
1607123380.558664,0.23623141118500005,-4.71960329624,0.5076771949666664,-7.261333333333334,-14.73675,-2.991624999999999,0.055290666666666675,0.5048306666666668,0.005441333333333336,16.5,False
1607123380.5831652,-0.17202400475166632,-4.942694123313333,0.3641676595316662,-6.237291666666667,-18.644791666666663,4.223333333333339,0.05328400000000001,0.5050080000000001,0.004792666666666668,16.5,False
1607123380.596832,-0.5967500162516669,-5.067559582656666,0.22374885328833322,-2.4456249999999984,-23.933,11.319875,0.05265866666666667,0.5054000000000002,0.004895333333333336,16.5,False
1607123380.610674,-1.058146034096666,-5.201378186561667,0.0823529778166668,1.3507083333333336,-28.277666666666665,18.578875,0.052033333333333334,0.5057920000000001,0.004895333333333336,16.5,False
1607123380.624647,-1.5588042827699995,-5.480062258708334,-0.12853445399666655,4.147500000000003,-31.824333333333335,25.94083333333333,0.052201333333333336,0.506772,0.005236000000000003,16.5,False
1607123380.6385307,-2.094038818013333,-5.94508739083,-0.47722852738166655,7.296333333333334,-36.04329166666666,34.86087499999999,0.052369333333333344,0.507752,0.005236000000000003,16.5,False
1607123380.6532798,-2.3889542034633338,-6.548956054316668,-0.9156933286433335,11.536000000000007,-42.32783333333334,46.45433333333334,0.053629333333333334,0.50876,0.00497466666666667,16.5,False
1607123380.6678746,-1.9367306722516664,-7.313103951626668,-1.3611770761983328,13.678583333333336,-47.90683333333333,57.74066666666668,0.05668133333333334,0.5107013333333335,0.005819333333333337,16.5,False
1607123380.6816645,-1.1285548391016667,-7.886125143761668,-1.6970695486733325,4.751541666666666,-47.942125000000004,68.76508333333332,0.05973333333333333,0.5126426666666667,0.005819333333333337,16.5,False
1607123380.6955006,-0.32297123043499976,-8.170571930336667,-1.4578072288616655,-4.323375000000004,-50.428,79.63783333333336,0.0658,0.5148546666666667,0.005978000000000002,16.5,False
1607123380.7093363,0.49874399059333313,-7.852306584348335,-0.8329814274366669,-13.11975,-60.52666666666667,90.54150000000001,0.07186666666666668,0.5170666666666667,0.005978000000000002,16.5,False
1607123380.7232642,1.3186446544833335,-7.370691215533333,-0.2128615104583334,-2.4829583333333374,-70.29195833333333,88.60045833333335,0.079688,0.5196893333333333,0.0056513333333333355,16.5,False
1607123380.738085,2.1488942761183334,-7.255317285836666,0.38997026323499995,4.530166666666667,-68.38854166666667,80.4950416666667,0.08750933333333334,0.522312,0.0056513333333333355,16.5,False
1607123380.7520962,2.6951956158866675,-7.622336392299999,0.6756134611099996,2.499291666666667,-58.58941666666668,75.69012500000001,0.09454666666666665,0.5243559999999999,0.006071333333333336,16.5,False
1607123380.7660952,3.1678179597633336,-7.783074250455,0.6417949016966666,1.5922083333333281,-49.970375,73.37633333333333,0.101696,0.5256626666666666,0.006071333333333336,16.5,False
1607123380.78076,3.6790445082533343,-7.807600682105001,0.4612364963383329,4.921874999999999,-43.594541666666665,70.49845833333333,0.10888266666666666,0.5273986666666667,0.006650000000000002,16.5,False
1607123380.79475,4.167000856958334,-7.872505995129999,0.12414761256333316,9.856291666666667,-38.724875,66.64875,0.11564933333333331,0.5286773333333333,0.006869333333333337,16.5,False
1607123380.8095558,4.576931248715,-7.971309628321666,-0.24819552418500007,14.196000000000002,-35.24791666666667,63.05279166666667,0.12241599999999998,0.529956,0.006869333333333337,16.5,False
1607123380.8233488,4.866004158983333,-8.045806171935,-0.5279763066900001,16.314666666666668,-31.760458333333336,59.98562500000001,0.12907999999999997,0.5305813333333333,0.007308000000000003,16.5,False
1607123380.8374007,5.013302330201667,-8.105367514486668,-0.7067400950983332,15.95941666666667,-28.214375000000004,57.66366666666668,0.13574399999999998,0.5312066666666666,0.007308000000000003,16.5,False
1607123380.8512256,5.158327319950001,-8.11300460661833,-0.7894519963050001,14.875583333333335,-25.76291666666667,56.378583333333346,0.14254799999999998,0.532084,0.007415333333333335,16.5,False
1607123380.8717544,5.381278565705,-8.018647635425,-0.7924430245549999,14.439541666666667,-24.254125000000002,55.211333333333336,0.14914666666666665,0.532616,0.0068880000000000035,16.5,False
1607123380.8854616,5.568536874343334,-7.925586776473333,-0.7903094244033332,14.9065,-22.78091666666667,52.838333333333345,0.15526,0.5329333333333334,0.0068880000000000035,16.5,False
1607123380.8998914,5.692345503705001,-7.911608704451665,-0.8244071464533332,14.256666666666666,-20.923583333333333,50.929958333333346,0.161504,0.5330453333333334,0.006785333333333336,16.5,False
1607123380.9167993,5.654259743988335,-7.882476089296666,-0.8609375714799998,14.924583333333334,-21.0245,49.613375000000005,0.1673746666666667,0.5331853333333333,0.006785333333333336,16.5,False
1607123380.930573,5.621418253803335,-7.788956606013333,-0.8884949117566665,16.644250000000003,-21.328416666666673,48.081833333333336,0.1731426666666667,0.5334,0.007168000000000003,16.5,False
1607123380.9443812,5.540082225591667,-7.774380328341666,-0.9989037345583333,18.015083333333337,-21.13212500000001,46.084791666666675,0.17859333333333335,0.533568,0.007168000000000003,16.5,False
1607123380.958214,5.3733024903716675,-7.729694366286666,-1.1743773918916667,17.423000000000002,-20.981916666666677,45.04762500000002,0.183904,0.5334653333333335,0.006990666666666669,16.5,False
1607123380.972203,5.171467904061667,-7.675796037221667,-1.3482957145349996,16.584458333333338,-22.355375000000013,45.094875,0.18866400000000003,0.5332506666666668,0.006990666666666669,16.5,False
1607123380.9868588,5.058746019413334,-7.5495945852599995,-1.5077374604483331,16.872625000000003,-25.34379166666668,45.128708333333336,0.19296666666666665,0.5333346666666667,0.00685066666666667,16.5,False
1607123381.0010557,4.989114881753334,-7.415636400036667,-1.6579070187866662,16.433958333333337,-28.079041666666676,45.14941666666666,0.19750266666666666,0.5330173333333335,0.00652866666666667,16.5,False
1607123381.0157838,4.898287323895001,-7.280581504455,-1.769093508933333,11.68241666666667,-29.39212500000001,45.93283333333333,0.201656,0.5327746666666667,0.00652866666666667,16.5,False
1607123381.0303438,4.847399963268335,-7.200302306225,-1.7932211368166664,4.731708333333334,-29.45133333333334,47.255541666666666,0.205884,0.5322333333333334,0.005856666666666669,16.5,False
1607123381.0451157,4.8725445407566665,-7.040860560311668,-1.7266807283483332,-1.748541666666667,-29.5365,48.44145833333334,0.210112,0.531692,0.005856666666666669,16.5,False
1607123381.0587704,4.971687157150001,-6.845446714645001,-1.6019747905116661,-7.0253749999999995,-29.1725,49.15429166666668,0.2147506666666667,0.5306280000000001,0.005287333333333336,16.5,False
1607123381.0735064,5.139085038208334,-6.626702848628332,-1.4444273624899997,-10.852624999999998,-28.02625,49.256958333333344,0.21938933333333335,0.5295640000000001,0.005287333333333336,16.5,False
1607123381.0874703,5.336173859695,-6.4161942803933325,-1.281137160228333,-14.366624999999999,-25.75825,48.36825000000001,0.22433600000000004,0.5283600000000002,0.004442666666666669,16.5,False
1607123381.1013951,5.58113907337,-6.222834274125001,-1.0990633005566663,-17.533541666666668,-22.870458333333335,46.63925000000001,0.22864800000000005,0.5272306666666667,0.004442666666666669,16.5,False
1607123381.11525,5.910052479928335,-6.018008659565,-0.9020542398233329,-20.522250000000003,-19.071500000000004,43.74183333333334,0.23318400000000003,0.525896,0.0037333333333333316,16.5,False
1607123381.1291173,6.293123437999999,-5.815077362896667,-0.702732117243333,-23.253416666666674,-14.496125000000003,39.659666666666666,0.2375426666666667,0.5241600000000001,0.003756666666666665,16.5,False
