time,aX,aY,aZ,gX,gY,gZ,faX,faY,faZ,fgX,fgY,fgZ,temp,punchReg,punchCount,20,14,-150
0.08625149726867676,-2.4442682858999993,-10.0055877019,0.7561319416,19.880000000000003,20.160000000000004,13.510000000000002,-2.087318974545,-9.705109003904997,0.5761318615149998,83.23000000000002,85.40000000000002,13.986,15.5,False,0
0.09634041786193848,-2.4251257050999997,-9.5007021333,0.9367900479,28.28,13.72,20.930000000000003,-2.105265144045,-9.722576608884998,0.5845665611799999,21.815500000000004,51.71250000000002,7.034999999999999,15.5,False,0
0.10647010803222656,-2.1846470337999997,-9.2614198733,1.0767701699999999,31.220000000000002,10.080000000000002,28.000000000000004,-2.120579208685,-9.723174814534996,0.60705909362,11.3645,45.88850000000001,8.0465,15.5,False,0
0.11648106575012207,-1.8675980392999998,-8.5938223679,1.1126625089999997,30.03,8.190000000000001,30.310000000000002,-2.12327113411,-9.690991350564996,0.63038911397,11.791500000000001,43.49100000000001,9.2015,15.5,False,0
0.12646889686584473,-1.4943177136999997,-8.146364541699999,1.0277173067,24.570000000000004,9.170000000000002,27.860000000000003,-2.1114864828049997,-9.631350247259997,0.6540780577099999,12.190500000000002,41.069,10.3145,15.5,False,0
0.1365656852722168,-1.3698909385,-8.027919823,1.1629117836,18.060000000000002,12.040000000000001,22.610000000000003,-2.0831913555599995,-9.557890593439996,0.6756732816749998,12.078500000000002,38.65050000000001,11.133500000000002,15.5,False,0
0.1465456485748291,-1.4225330357,-8.219345631,0.9415756931,8.33,13.440000000000001,17.57,-2.05639174244,-9.486943403349997,0.6942774773899999,11.4135,36.33700000000001,11.655000000000001,15.5,False,0
0.15661144256591797,-1.6594224731,-8.725427610899999,0.9810572659999999,-9.030000000000001,9.66,12.39,-2.0362322120349994,-9.432387048069998,0.7048058968300001,10.283000000000001,34.04450000000001,11.970000000000002,15.5,False,0
0.18459296226501465,-1.7335999736999999,-8.9635134596,1.1186445655,-1.54,2.5900000000000003,10.99,-2.0263019982449992,-9.398109864324999,0.721017269945,8.7885,31.475500000000004,12.120500000000002,15.5,False,0
0.19854354858398438,-1.7108681589999999,-9.1597249128,1.0588240004999998,8.260000000000002,-2.45,13.090000000000002,-2.0189440687499998,-9.374660202845,0.7391429011399999,8.0955,28.640500000000003,12.334000000000001,15.5,False,0
0.2166433334350586,-1.6654045295999997,-9.245866526399999,0.9523433947999999,16.380000000000003,-8.96,15.400000000000002,-2.00506569767,-9.353723005095,0.757986379115,8.4245,25.427500000000002,12.8275,15.5,False,0
0.23462700843811035,-1.7814564256999998,-9.4301138666,0.8027919822999998,12.740000000000002,-10.500000000000002,13.930000000000001,-1.9880766572100002,-9.335537553335,0.775453984095,9.184000000000001,22.1725,13.356000000000003,15.5,False,0
0.2518727779388428,-1.8652052167,-9.6885387074,0.7585247641999999,-5.11,-8.75,12.530000000000001,-1.9772491349450003,-9.32219756734,0.788255585005,9.8,19.0085,13.828500000000002,15.5,False,0
0.26669740676879883,-1.8245272325,-9.517451891499999,0.8219345630999999,-16.450000000000003,-11.410000000000002,12.530000000000001,-1.9660626892900002,-9.315976228579999,0.80099736535,9.383500000000002,15.967000000000002,14.248500000000002,15.5,False,0
0.2814013957977295,-1.5852449725,-9.3667040677,0.9499505721999999,-11.830000000000002,-16.87,12.250000000000002,-1.9416558987699997,-9.30006395829,0.83066836559,8.925,12.876499999999998,14.651,15.5,False,0
0.30396175384521484,-1.3758729949999997,-9.4181497536,0.8446663778,-3.3600000000000003,-21.28,10.22,-1.90839566463,-9.273922371384998,0.8586643900100001,9.0125,9.572500000000002,15.008000000000001,15.5,False,0
0.31395959854125977,-1.5266208188,-9.5617191096,0.7286144817,-3.7100000000000004,-21.700000000000003,8.260000000000002,-1.8695122973799996,-9.25292535307,0.8754141482100002,9.019499999999999,6.376999999999998,15.2215,15.5,False,0
0.3239154815673828,-1.6630117069999997,-9.769894675799998,0.5778666578999999,-4.69,-22.610000000000003,6.23,-1.832842291035,-9.241080881200002,0.8860622087800001,8.816500000000001,3.3074999999999983,15.2985,15.5,False,0
0.33416032791137695,-1.8448662245999998,-10.0929257268,0.5192425042,-9.66,-22.12,5.11,-1.798983851245,-9.240363034420003,0.891146956805,8.239,0.4305000000000003,15.260000000000002,15.5,False,0
0.3440694808959961,-1.8735800958,-10.301101293,0.5814558918,-15.820000000000002,-23.310000000000002,3.0100000000000002,-1.785703685815,-9.247900425610002,0.8922835475400002,7.220500000000001,-2.1945,15.074499999999997,15.5,False,0
0.354046106338501,-2.0913269523999998,-10.4159567778,0.5742774239999999,-24.290000000000003,-22.680000000000003,2.45,-1.7693726715699998,-9.264351080985001,0.8874380817749999,5.621,-4.6375,14.741999999999996,15.5,False,0
0.3640468120574951,-2.2025932032999997,-10.4781701654,0.5958128274,-27.44,-24.570000000000004,2.31,-1.7548362742749997,-9.286963254555001,0.8723034788300001,3.0730000000000004,-6.643000000000001,14.0315,15.5,False,0
0.37403178215026855,-2.2803599377999997,-10.462616818499999,0.7262216591,-28.42,-25.970000000000002,2.87,-1.7514863226349995,-9.33129029322,0.8559724645849999,0.1505000000000006,-8.4875,12.918500000000003,15.5,False,0
0.38402652740478516,-2.3054845751,-10.394421374399998,0.8135596839999999,-24.570000000000004,-28.070000000000004,4.48,-1.7646468469349998,-9.406125820035,0.8410771439,-2.7894999999999994,-10.2865,11.602500000000003,15.5,False,0
0.3940114974975586,-2.2289142518999996,-10.2867443574,0.7477570625,-18.76,-29.470000000000002,6.300000000000001,-1.793480359265,-9.506205625279998,0.8241479240049998,-5.292000000000001,-12.113500000000002,10.3425,15.5,False,0
0.40404534339904785,-2.1643080417,-10.1862458082,0.5694917787999999,-13.72,-30.380000000000003,6.580000000000001,-1.8370297305849994,-9.614600489059999,0.8043473169899998,-7.206500000000001,-14.098000000000003,9.3975,15.5,False,0
0.4141550064086914,-2.1523439287,-10.033105161799998,0.5036891573,-11.270000000000001,-31.290000000000003,7.07,-1.8751952510549994,-9.716714193514997,0.7799405264699998,-8.547,-16.303,8.732500000000002,15.5,False,0
0.42418694496154785,-2.129612114,-9.925428144799998,0.3493520996,-11.200000000000001,-31.710000000000004,6.510000000000001,-1.9086349468899997,-9.796395186094998,0.7576274557249998,-9.2925,-18.5885,8.2775,15.5,False,0
0.4342355728149414,-2.1140587671,-9.859625523299998,0.34815568830000004,-14.490000000000002,-31.220000000000002,6.580000000000001,-1.9302301708549998,-9.85208813211,0.7233502719799999,-9.485000000000001,-20.5555,8.036000000000001,15.5,False,0
0.4442863464355469,-2.0829520732999995,-9.705288465599999,0.4701896408999999,-20.23,-30.17,5.8100000000000005,-1.946621005665,-9.889775088059997,0.6887141648449999,-10.426500000000003,-22.161999999999995,7.780500000000001,15.5,False,0
0.4543602466583252,-2.0386848552,-9.432506689199998,0.5539384318999999,-26.46,-30.17,5.460000000000001,-1.9643278929049999,-9.910473003549997,0.66113688438,-12.292000000000003,-23.288999999999994,7.294,15.5,False,0
0.4643571376800537,-1.9178473138999999,-9.206384953499999,0.7824529901999999,-27.300000000000004,-30.590000000000003,4.760000000000001,-1.980359804325,-9.912806005584999,0.6460022814349999,-14.49,-24.3285,6.790000000000002,15.5,False,0
0.47434020042419434,-1.8687944505999998,-9.156135678899998,0.9020941201999999,-23.17,-31.360000000000003,3.8500000000000005,-1.9842481410500004,-9.897133017555,0.6501897209849999,-16.229499999999998,-25.371499999999994,6.317500000000001,15.5,False,0
0.4843568801879883,-1.7335999736999999,-9.1190469286,0.9918249676999998,-16.380000000000003,-31.080000000000002,3.7100000000000004,-1.98065890715,-9.868538787485,0.6602993964699999,-16.555,-26.445999999999998,5.890500000000001,15.5,False,0
0.4943547248840332,-1.6390834809999997,-9.1238325738,1.0265208954,-9.870000000000001,-30.660000000000004,4.550000000000001,-1.9759929030799999,-9.85113100307,0.66364934811,-16.464000000000006,-27.3,5.453000000000001,15.5,False,0
0.5043544769287109,-1.5086746492999996,-9.203992130899998,0.8805587167999999,-3.7100000000000004,-30.310000000000002,5.32,-1.9802401631950002,-9.84120078928,0.6639484509349999,-16.614500000000003,-27.761999999999993,5.1274999999999995,15.5,False,0
0.5149064064025879,-1.5565311012999998,-9.223134711699998,0.7214360139,-0.21000000000000002,-30.310000000000002,5.040000000000001,-1.97922321359,-9.827202777070003,0.6595217291249998,-16.565500000000004,-28.1995,4.945499999999999,15.5,False,0
0.5249340534210205,-1.5457633995999998,-9.4085784632,0.5563312544999999,-1.8200000000000003,-28.35,3.3600000000000003,-1.9706090522300002,-9.798847829260001,0.6589235234749998,-16.3835,-28.566999999999997,4.7844999999999995,15.5,False,0
0.534965991973877,-1.6223337227999999,-9.6418786667,0.7884350467,-8.82,-26.950000000000003,1.8200000000000003,-1.9641484312100002,-9.774381218175,0.6639484509349998,-16.275,-28.822499999999998,4.662,15.5,False,0
0.5449888706207275,-1.8029918290999998,-9.8153583052,1.1246266219999999,-17.290000000000003,-24.64,2.1,-1.947817416965,-9.757212716020002,0.6874579329799999,-16.365999999999996,-29.0185,4.543,15.5,False,0
0.5550377368927002,-1.9573288867999998,-9.848857821599998,1.5541382787,-21.560000000000002,-21.42,2.7300000000000004,-1.94189518103,-9.733105028325001,0.7262216590999998,-16.404499999999995,-29.036,4.4975,15.5,False,0
0.5651195049285889,-1.9441683625,-9.828518829499998,1.7766707805,-20.37,-17.92,3.5000000000000004,-1.93160604385,-9.70504918334,0.7828717341549999,-16.1875,-28.878500000000003,4.5185,15.5,False,0
0.5751292705535889,-1.8520446923999998,-9.812965482600001,1.7503497318999997,-16.94,-16.450000000000003,5.53,-1.9162321586449997,-9.672207693154999,0.84071822051,-15.778000000000002,-28.46550000000001,4.6235,15.5,False,0
0.5851752758026123,-1.7443676754,-9.6622176588,1.6223337227999999,-12.040000000000001,-15.540000000000001,7.140000000000001,-1.8931414205549995,-9.63553768681,0.884805976915,-15.130500000000001,-27.902000000000005,4.7495,15.5,False,0
0.5950891971588135,-1.5984054967999999,-9.513862657599999,1.567298803,-5.250000000000001,-15.96,8.260000000000002,-1.86018028924,-9.596115934474998,0.9278767837149999,-14.465500000000002,-27.258,4.9,15.5,False,0
0.6051180362701416,-1.5146567058,-9.402596406699999,1.4572289634,-0.42000000000000004,-16.17,7.7700000000000005,-1.8288941337450002,-9.556155797055,0.967119074355,-13.772499999999999,-26.575499999999998,4.998000000000001,15.5,False,0
0.615135669708252,-1.4979069475999998,-9.3116691479,1.3220344865,1.9600000000000002,-15.610000000000001,7.5600000000000005,-1.79736869599,-9.51960543184,1.010907727935,-13.0935,-25.830000000000002,5.036500000000001,15.5,False,0
0.6250085830688477,-1.4201402130999998,-9.2745803976,1.0731809361,1.1900000000000002,-14.700000000000001,6.090000000000001,-1.763091512245,-9.486883582785001,1.062951619485,-12.4215,-25.0145,5.043500000000001,15.5,False,0
0.6349172592163086,-1.6426727148999998,-9.475577496,0.9379864591999999,0.56,-14.420000000000002,3.2900000000000005,-1.72594294138,-9.457092941414999,1.09698952097,-11.788,-24.128999999999998,4.9595,15.5,False,0
0.644768238067627,-1.5158531170999998,-9.5425765288,0.9296115801,-2.5200000000000005,-12.88,1.61,-1.70033973956,-9.441419953384997,1.1264212389500001,-11.028500000000001,-23.3275,4.774000000000001,15.5,False,0
0.6547050476074219,-1.5864413838,-9.6981099978,0.873380249,-2.45,-8.05,0.8400000000000001,-1.6754543845199996,-9.445966316324999,1.145384358055,-10.0205,-22.319499999999998,4.557,15.5,False,0
0.6647188663482666,-1.5493526335,-9.8189475391,0.7214360139,-1.12,-7.700000000000001,-0.42000000000000004,-1.6573885738899996,-9.464032126954999,1.15393869885,-8.7885,-21.189,4.301500000000001,15.5,False,0
0.6745965480804443,-1.3950155758,-10.067801089499998,0.6400800454999999,3.6400000000000006,-9.030000000000001,1.1900000000000002,-1.6345969386249997,-9.495796846969998,1.14640130766,-7.493500000000002,-20.034000000000002,4.102,15.5,False,0
0.6869504451751709,-1.2047861791,-9.7806623775,0.5024927459999999,11.200000000000001,-11.200000000000001,-0.42000000000000004,-1.6068401964649996,-9.531270442014998,1.124447160305,-6.170500000000002,-18.966500000000003,3.9200000000000004,15.5,False,0
0.6968812942504883,-1.0971091621,-9.7363951594,0.39361931769999997,16.94,-13.72,-0.28,-1.5796816599549997,-9.559505748694999,1.097168982665,-4.802000000000001,-18.060000000000002,3.7344999999999997,15.5,False,0
0.7067661285400391,-1.0612168230999999,-9.690931529999999,0.31824540579999994,21.560000000000002,-15.190000000000001,-0.9100000000000001,-1.5533007907899996,-9.585946438425,1.06492569813,-3.500000000000001,-17.251500000000007,3.4474999999999993,15.5,False,0
0.716681957244873,-1.1676974288,-9.836893708599998,0.28115665549999996,21.630000000000003,-15.190000000000001,-1.4700000000000002,-1.5347564156399998,-9.614181745104998,1.0422537039949997,-2.278500000000002,-16.506000000000004,3.0974999999999997,15.5,False,0
0.7265667915344238,-1.3674981158999997,-10.0905329042,0.37686955949999995,16.1,-13.020000000000001,-2.5900000000000003,-1.5410973955299998,-9.654620447045,1.0239486111049998,-1.2670000000000017,-15.7745,2.8035000000000005,15.5,False,0
0.7364954948425293,-1.4883356572,-10.342975688500001,0.3493520996,6.510000000000001,-9.450000000000001,-3.2900000000000005,-1.5349956978999997,-9.691410094519998,1.008155981945,-0.40600000000000136,-14.969500000000002,2.5060000000000002,15.5,False,0
0.7464256286621094,-1.6223337227999999,-10.500901980099998,0.43190447930000003,-5.040000000000001,-6.370000000000001,-5.040000000000001,-1.5270395627549997,-9.724610508095,0.97974121357,0.3114999999999992,-14.063000000000006,2.184,15.5,False,0
0.7563972473144531,-1.5373885205000002,-10.532008673899998,0.5970092387,-11.55,-3.5700000000000003,-4.83,-1.512084421505,-9.761101052745,0.938764126545,0.8504999999999991,-13.128499999999999,1.8235000000000003,15.5,False,0
0.7663602828979492,-1.4093725114,-10.485348633200001,0.7597211755,-11.97,-1.54,-3.9200000000000004,-1.4893526068049998,-9.795438057054998,0.8883353902500002,1.2845000000000002,-12.264000000000003,1.4525000000000003,15.5,False,0
0.7763190269470215,-1.3040883169999997,-10.4470634716,0.8482556117,-7.07,-1.54,-1.8900000000000001,-1.46105747956,-9.826484930289999,0.8357531136149999,1.7745000000000004,-11.490500000000003,1.0640000000000005,15.5,False,0
0.7863168716430664,-1.2119646469,-10.3034941156,0.8506484342999999,0.21000000000000002,-1.4700000000000002,-0.8400000000000001,-1.42995078576,-9.856395212789998,0.7920242806,2.2784999999999997,-10.783500000000004,0.693,15.5,False,0
0.7963287830352783,-1.1988041226,-10.208977622899999,0.7800601676,5.95,-1.1900000000000002,2.1700000000000004,-1.4082957412299997,-9.889236702974998,0.7514659375299999,2.849,-10.066000000000003,0.329,15.5,False,0
0.8063175678253174,-1.2753744458,-10.139585767500002,0.38045879339999994,9.8,-0.07,3.22,-1.39070849512,-9.925846888754998,0.7132405964949998,3.3985000000000007,-9.296000000000003,0.06650000000000045,15.5,False,0
0.8162803649902344,-1.4464612617,-10.181460162999999,0.44626141489999993,10.780000000000001,1.2600000000000002,4.2700000000000005,-1.381555948675,-9.948219780065,0.66951176348,3.9025000000000007,-8.459500000000002,-0.11550000000000002,15.5,False,0
0.8262221813201904,-1.5397813431,-10.2735838331,0.19262221929999998,6.790000000000001,2.87,4.48,-1.38269253941,-9.995777129239999,0.6105286863899999,4.242,-7.595000000000004,-0.2484999999999999,15.5,False,0
0.8363540172576904,-1.7312071510999998,-10.4350993586,0.16151552549999998,-1.6800000000000002,6.16,3.08,-1.39453701128,-10.048060303049997,0.5633900811699999,4.375000000000002,-6.681500000000004,-0.32549999999999973,15.5,False,0
0.8463099002838135,-1.6151552549999997,-10.1958170986,0.3337987527,-6.16,8.82,3.5000000000000004,-1.403569916595,-10.097591730869999,0.5258227663499999,4.270000000000001,-5.5405,-0.3044999999999998,15.5,False,0
0.856299877166748,-1.8939190878999999,-10.687542142899998,0.2703889538,-6.86,9.940000000000001,3.6400000000000006,-1.42217411231,-10.152028445019997,0.4951946370699999,4.004000000000002,-4.578,-0.2099999999999997,15.5,False,0
0.8662886619567871,-1.7132609816,-10.6516498039,0.36490544649999995,-3.2900000000000005,9.73,6.580000000000001,-1.43234360836,-10.19928669137,0.46881376790499996,3.839500000000001,-3.6714999999999995,0.017500000000000293,15.5,False,0
0.8762545585632324,-1.5996019081,-10.510473270499999,0.33858439789999994,3.1500000000000004,8.47,10.780000000000001,-1.4464612617000001,-10.239904855005,0.45008993106000006,3.829000000000002,-2.813999999999999,0.41300000000000026,15.5,False,0
0.8868091106414795,-1.5182459396999997,-10.4111711326,0.37447673689999994,7.700000000000001,8.190000000000001,14.910000000000002,-1.45914322148,-10.270891907674999,0.44344984834500006,3.8115000000000023,-1.9179999999999993,1.0535000000000003,15.5,False,0
0.8967950344085693,-1.5314064639999998,-10.4195460117,0.3780659708,9.170000000000002,9.73,17.85,-1.47864472567,-10.30528873255,0.4369294067599999,3.549000000000001,-0.8504999999999991,1.8760000000000006,15.5,False,0
0.9067938327789307,-1.5900306176999999,-10.3274223416,0.31704899449999996,8.120000000000001,11.200000000000001,22.330000000000002,-1.5013167198049997,-10.341958738894999,0.43657048337,3.0415,0.38500000000000084,2.877000000000001,15.5,False,0
0.9167594909667969,-1.3447663011999997,-10.079765202499999,0.11964112999999998,4.0600000000000005,13.3,21.98,-1.52004055665,-10.363553962859998,0.43070806799999994,2.2225000000000006,1.750000000000001,4.0565000000000015,15.5,False,0
0.9266936779022217,-1.3399806559999998,-10.006784113199998,-0.0251246373,-1.05,13.72,19.53,-1.5134602945,-10.365647682634997,0.41575292675000003,1.3720000000000003,3.1849999999999996,5.211500000000001,15.5,False,0
0.9366915225982666,-1.1916256548,-9.9110712092,0.07537391189999999,-7.07,14.070000000000002,16.310000000000002,-1.5068202117849998,-10.355298724889996,0.39750765442499997,0.5775000000000001,4.445,6.272000000000001,15.5,False,0
0.9466321468353271,-1.0289137179999999,-9.8632147572,0.31226334929999994,-10.360000000000001,14.070000000000002,14.420000000000002,-1.47972149584,-10.327242879904997,0.38757744063499994,0.06999999999999966,5.551,7.280000000000001,15.5,False,0
0.9566121101379395,-0.9942177902999998,-9.930213789999998,0.6532405697999999,-9.450000000000001,13.930000000000001,12.950000000000001,-1.45064870125,-10.291769284859999,0.38673995272499995,0.006999999999999851,6.478500000000001,8.211000000000002,15.5,False,0
0.9665937423706055,-0.9894321450999999,-10.0845508477,0.8027919822999998,-6.0200000000000005,14.63,13.440000000000001,-1.425105319995,-10.264610748349998,0.39146577736,0.25199999999999995,7.311500000000002,9.114000000000003,15.5,False,0
0.9765028953552246,-1.0384850084,-10.159924759599997,1.2059825903999999,-0.49000000000000005,15.820000000000002,13.930000000000001,-1.4073386121899998,-10.24833955467,0.39559339634499996,0.6020000000000002,8.141000000000002,9.975000000000001,15.5,False,0
0.9865274429321289,-1.1401799688999998,-10.3836536727,0.8793623054999999,2.9400000000000004,17.150000000000002,15.120000000000001,-1.3993226564799999,-10.243254806645,0.40295132584,0.8925000000000001,9.012500000000001,10.769500000000003,15.5,False,0
0.9964344501495361,-1.3399806559999998,-10.671988796,0.8997012976000001,5.11,18.970000000000002,17.080000000000002,-1.3994422976099998,-10.25551802247,0.40606199521999997,0.9904999999999999,9.947000000000001,11.5395,15.5,False,0
1.0063650608062744,-1.3064811395999998,-10.782058635599999,0.6664010940999998,3.1500000000000004,21.28,19.810000000000002,-1.408235920665,-10.282975661804999,0.40821553556,0.805,10.983,12.313000000000002,15.5,False,0
1.0162618160247803,-1.3842478741,-10.754541175699998,0.39960137419999997,-1.7500000000000002,21.910000000000004,21.07,-1.4112269489149998,-10.33137049889,0.409591408555,0.3254999999999999,12.054,13.139000000000001,15.5,False,0
1.0262117385864258,-1.2957134379,-10.648060569999998,0.3158525832,-8.190000000000001,22.12,21.000000000000004,-1.4028520698149998,-10.37025386614,0.41114674324499995,-0.34650000000000014,13.062000000000001,13.979,15.5,False,0
1.03619384765625,-1.1676974288,-10.549954843399998,0.41156548719999997,-13.790000000000001,21.490000000000002,19.53,-1.3852050031399998,-10.382098338009998,0.42652062844999994,-1.078,13.944000000000003,14.833000000000002,15.5,False,0
1.046278476715088,-1.0636096457,-10.3800644388,0.7597211755,-14.770000000000001,20.720000000000002,16.8,-1.3594223396249998,-10.377492154505,0.44183469308999995,-1.6345000000000003,14.616,15.596,15.5,False,0
1.0563082695007324,-1.160518961,-10.2975120591,1.0540383553,-14.490000000000002,20.37,16.03,-1.31653099452,-10.358708497094998,0.47258246349999994,-2.0125000000000006,15.190000000000001,16.2575,15.5,False,0
1.066326379776001,-1.0923235168999998,-10.159924759599997,1.2993026717999998,-10.430000000000001,20.720000000000002,15.540000000000001,-1.280698476085,-10.336515067479997,0.517746990075,-2.394000000000001,15.701000000000002,16.828000000000003,15.5,False,0
1.0896658897399902,-1.0372885971,-9.954142015999999,1.5098710605999999,-0.9800000000000001,24.360000000000003,16.8,-1.2481560887249998,-10.312586841479998,0.57415778287,-2.5445,16.404500000000002,17.244500000000002,15.5,False,0
1.099778652191162,-0.9906285563999999,-9.8560362894,1.4177473905,0.07,25.69,17.220000000000002,-1.2234501953799999,-10.285248843275,0.6288935998449999,-2.7860000000000005,17.265500000000003,17.440499999999997,15.5,False,0
1.1098425388336182,-0.9272187574999999,-9.7208418125,1.2909277927,0.21000000000000002,26.320000000000004,16.450000000000003,-1.1950354270049999,-10.254321611169999,0.680219644615,-3.1990000000000007,18.1685,17.486,15.5,False,0
1.119969367980957,-0.8745766602999999,-9.646664311899999,1.1940184774,-0.35000000000000003,25.410000000000004,15.540000000000001,-1.16255286021,-10.21807034878,0.726640403055,-3.6435000000000004,18.959500000000006,17.335500000000003,15.5,False,0
1.1300740242004395,-0.8650053699,-9.610771972899999,1.1186445655,0.42000000000000004,24.570000000000004,14.63,-1.1353943237000002,-10.190493068315,0.7740182905349998,-3.9549999999999996,19.628000000000007,16.964499999999994,15.5,False,0
1.1401889324188232,-0.8518448456000001,-9.615557618099999,1.040877831,1.2600000000000002,23.380000000000003,13.790000000000001,-1.1095518396200001,-10.171649590339998,0.8268996699949998,-4.074,20.142500000000002,16.618000000000002,15.5,False,0
1.1502716541290283,-0.8530412569,-9.5928258034,1.0588240004999998,2.7300000000000004,21.700000000000003,13.510000000000002,-1.0886744624350002,-10.151968624454998,0.8801997934099999,-3.85,20.587,16.3975,15.5,False,0
1.1603405475616455,-0.7908278692999998,-9.6442714893,1.1066804524999998,6.16,20.860000000000003,13.440000000000001,-1.080179942205,-10.138568817895,0.926321449025,-3.255,20.9405,16.2785,15.5,False,0
1.170466661453247,-0.7357929495,-9.646664311899999,1.0839486377999998,9.73,21.21,14.070000000000002,-1.0673783412949998,-10.129057348059998,0.9557531670049999,-2.38,21.294000000000004,16.285500000000003,15.5,False,0
1.1805102825164795,-0.6364908115999999,-9.560522698299998,1.0289137179999999,12.180000000000001,21.000000000000004,14.490000000000002,-1.0512267887449998,-10.110692434604998,0.97088776995,-1.4385,21.658000000000005,16.327500000000004,15.5,False,0
1.190601110458374,-0.5407779076,-9.4169533423,0.9200402897,14.840000000000002,21.42,14.770000000000001,-1.0283155123499998,-10.079047355719998,0.9777671349249999,-0.5949999999999998,21.973000000000003,16.376500000000004,15.5,False,0
1.2006618976593018,-0.5395814963,-9.4133641084,0.8458627891,14.420000000000002,22.12,13.790000000000001,-1.0010971552749999,-10.037232780784999,0.9738787982,0.045500000000000006,22.2495,16.376500000000007,15.5,False,0
1.2105717658996582,-0.5300102058999999,-9.432506689199998,0.5826523030999999,13.23,23.17,12.670000000000002,-0.9675976388749999,-9.982915707764999,0.9671190743549998,0.5145000000000002,22.526,16.250500000000006,15.5,False,0
1.2208826541900635,-0.47258246349999994,-9.419346164899999,0.4677968183,11.340000000000002,23.17,10.850000000000001,-0.9202795719599999,-9.916754162874998,0.9550951407899999,0.8995000000000004,22.6835,15.914500000000004,15.5,False,0
1.2308685779571533,-0.5479563754,-9.5736832226,0.34097722049999996,8.33,21.560000000000002,8.96,-0.8774480474199999,-9.85148992646,0.9433703100499999,1.3370000000000002,22.7045,15.400000000000002,15.5,False,0
1.2409083843231201,-0.6293123437999999,-9.728020280299999,0.40558343069999997,4.760000000000001,20.020000000000003,7.98,-0.8408976822049998,-9.78257663558,0.9412167697099999,1.8585000000000005,22.648500000000002,14.773500000000002,15.5,False,0
1.2508442401885986,-0.7082754896000001,-9.8010013696,0.5120640364,2.87,17.990000000000002,7.140000000000001,-0.8097311678399997,-9.7447700385,0.9427721043999998,2.5900000000000007,22.512000000000004,14.122500000000002,15.5,False,0
1.2613880634307861,-0.7920242806,-9.8189475391,0.6951149652999999,4.130000000000001,17.85,6.930000000000001,-0.7843672482799999,-9.715876705605002,0.9481559552499998,3.475500000000001,22.358000000000004,13.576500000000001,15.5,False,0
1.2714288234710693,-0.8841479507,-9.984052298499998,0.7226324252,5.390000000000001,18.340000000000003,7.000000000000001,-0.7727620586699999,-9.688837810225,0.9410373080150001,4.469500000000001,22.2215,13.09,15.5,False,0
1.281341791152954,-0.9224331122999999,-10.0319087505,0.7657032319999999,6.86,19.6,8.89,-0.7624729214899999,-9.67860849361,0.921416162695,5.439000000000002,22.148000000000003,12.6735,15.5,False,0
1.2912545204162598,-0.8709874264,-9.9565348386,0.6807580296999999,6.23,20.650000000000002,10.22,-0.75266234883,-9.672446975414998,0.8836095656149998,5.876500000000002,21.98,12.32,15.5,False,0
1.3143632411956787,-0.8063812161999999,-9.919446088299999,0.48335016519999996,7.420000000000001,18.270000000000003,8.75,-0.7429714172999999,-9.671669308069998,0.8413164261599999,6.167000000000002,21.752500000000005,11.9875,15.5,False,0
1.3351197242736816,-0.6113661743,-9.750752095,0.6987041992,6.930000000000001,14.21,7.98,-0.731904612775,-9.677531723439998,0.7984250810549998,6.5310000000000015,21.287000000000003,11.571000000000002,15.5,False,0
1.3563861846923828,-0.5000999234,-9.7818587888,0.7776673449999999,6.23,13.650000000000002,5.390000000000001,-0.718145882825,-9.681120957339996,0.7719245707599998,6.8740000000000006,20.667500000000004,11.129999999999999,15.5,False,0
1.3745908737182617,-0.6305087550999998,-10.408778309999999,0.6711867392999998,3.2900000000000005,14.560000000000002,5.390000000000001,-0.699362225415,-9.692486864689998,0.7554739153849999,7.164500000000001,20.1075,10.626000000000001,15.5,False,0
1.3887457847595215,-0.6436692794,-10.132407299699999,0.5407779076,0.8400000000000001,14.000000000000002,6.23,-0.6879364975,-9.719944504024998,0.7345367176349998,7.262500000000001,19.631500000000003,10.160499999999999,15.5,False,0
1.40675950050354,-0.7118647235,-10.078568791199999,0.5096712138,-0.49000000000000005,10.290000000000001,7.420000000000001,-0.6776473603200001,-9.745906629234998,0.7094719008999999,7.178500000000001,19.085500000000003,9.834999999999999,15.5,False,0
1.420558214187622,-0.6999006105,-10.040283629599998,0.5659025448999999,-0.9100000000000001,4.970000000000001,7.420000000000001,-0.6713063804299999,-9.76654472416,0.6818347998699998,6.961500000000003,18.487000000000002,9.5305,15.5,False,0
1.4393310546875,-0.6675975054,-10.114461130199999,0.8709874264,-2.1700000000000004,3.3600000000000003,7.07,-0.6680760699199999,-9.78891761547,0.6680162493549999,6.510000000000001,17.657500000000002,9.219000000000001,15.5,False,0
1.449314832687378,-0.6687939166999999,-10.241280727999998,0.9990034354999999,-2.5200000000000005,2.1700000000000004,6.580000000000001,-0.6674180437049999,-9.815477946329999,0.6611967049449999,5.876500000000002,16.737,8.848,15.5,False,0
1.4592745304107666,-0.6867400861999999,-10.3274223416,1.0899306942999998,-2.0300000000000002,2.24,6.580000000000001,-0.6725626122949999,-9.855378263184999,0.6642475537599999,5.096000000000002,15.760499999999999,8.417500000000002,15.5,False,0
1.469996452331543,-0.7310073042999999,-10.394421374399998,1.2215359372999999,-1.54,3.3600000000000003,8.120000000000001,-0.68303121117,-9.902875791795,0.678425027665,4.294500000000001,14.8225,8.039500000000004,15.5,False,0
1.4801130294799805,-0.7429714172999999,-10.3298151642,1.0971091621,-2.1700000000000004,4.9,9.590000000000002,-0.6925426810049999,-9.951330449444999,0.7016354068849999,3.535000000000001,13.877500000000001,7.801500000000002,15.5,False,0
1.4902491569519043,-0.6197410534,-10.230513026299999,1.0121639597999998,-2.3800000000000003,5.670000000000001,9.590000000000002,-0.702712177055,-9.996016411500001,0.729511790175,2.8280000000000007,12.988499999999998,7.700000000000001,15.5,False,0
1.5003488063812256,-0.5371886737,-10.145567823999999,0.8051848048999999,-4.0600000000000005,6.0200000000000005,8.82,-0.7048058968300001,-10.032207853325,0.7578069174200001,2.1840000000000006,12.1695,7.658000000000001,15.5,False,0
1.5104267597198486,-0.47377887479999997,-10.16949605,0.6999006105,-7.3500000000000005,4.2700000000000005,7.630000000000001,-0.699362225415,-10.056435182149999,0.77898339743,1.6135000000000006,11.385500000000002,7.616000000000001,15.5,False,0
1.5206356048583984,-0.5623133109999999,-10.341779277199999,0.7334001269,-11.410000000000002,3.7800000000000002,6.510000000000001,-0.69116680801,-10.077312559334999,0.792562665685,0.9940000000000004,10.619000000000002,7.584500000000001,15.5,False,0
1.5306644439697266,-0.7118647235,-10.5032948027,0.7597211755,-14.000000000000002,3.6400000000000006,6.790000000000001,-0.6858427777250001,-10.107641585789999,0.799382210095,0.25200000000000006,9.884000000000002,7.570500000000001,15.5,False,0
1.5406982898712158,-0.8075776274999998,-10.5619189564,0.7633104094,-18.830000000000002,3.8500000000000005,7.840000000000001,-0.68123659422,-10.142158051794999,0.8020741355199998,-0.749,9.163000000000002,7.598500000000001,15.5,False,0
1.5540690422058105,-0.9332008139999999,-10.4458670603,0.8063812161999999,-23.520000000000003,4.2,8.4,-0.679142874445,-10.165368431014999,0.8000402363099999,-2.0930000000000004,8.428,7.633500000000002,15.5,False,0
1.564154863357544,-0.9403792817999999,-10.3525469789,0.8315058534999998,-27.37,3.6400000000000006,8.190000000000001,-0.6815955176100001,-10.184869935204999,0.8005188008299999,-3.6785000000000005,7.640500000000001,7.567000000000002,15.5,False,0
1.5742816925048828,-1.0241280728,-10.313065405999998,0.9511469834999998,-28.000000000000004,2.5900000000000003,7.840000000000001,-0.68841506202,-10.207302647079999,0.8124230932649998,-5.397,6.7655,7.455000000000001,15.5,False,0
1.584378719329834,-1.0504491214,-10.3166546399,1.1282158559,-24.570000000000004,0.9100000000000001,8.82,-0.7016952274499999,-10.22716307466,0.8411967850299998,-7.1155,6.006000000000001,7.4235000000000015,15.5,False,0
1.5943233966827393,-1.0301101293,-10.295119236499998,1.2406785180999997,-0.56,-0.77,10.290000000000001,-0.72418775989,-10.2544412523,0.8647660876399998,-8.547,5.348000000000001,7.514500000000001,15.5,False,0
1.6043591499328613,-0.9702895642999998,-10.2664053653,1.1892328321999999,-14.000000000000002,-2.66,11.97,-0.7472784979799999,-10.276096296830001,0.88713897895,-9.618000000000002,4.585,7.840000000000001,15.5,False,0
1.6143312454223633,-0.9308079913999999,-10.137192944899999,1.1042876299,-13.160000000000002,-5.32,12.600000000000001,-0.747218677415,-10.277651631519998,0.9105886404299998,-10.402000000000001,3.664500000000001,8.211000000000002,15.5,False,0
1.6243300437927246,-0.9810572659999999,-10.132407299699999,1.1018948073,-16.8,-6.720000000000001,11.690000000000001,-0.7602595605850001,-10.277591810954997,0.9394221527599997,-11.105500000000003,2.7615000000000003,8.480500000000001,15.5,False,0
1.634293794631958,-1.1102696864,-10.2436735506,1.2622139215000001,-24.290000000000003,-4.83,10.64,-0.7772486010449999,-10.284052431974999,0.9710074110799999,-12.008500000000002,2.016000000000001,8.680000000000001,15.5,False,0
1.6441905498504639,-1.1485548479999999,-10.211370445499998,1.4907284798,-32.27,-1.61,10.920000000000002,-0.8012366476099999,-10.291948746554997,0.9982855887200002,-13.342000000000002,1.6310000000000007,8.8445,15.5,False,0
1.6541965007781982,-1.0217352502,-10.073783145999998,1.6749758199999998,-39.620000000000005,1.2600000000000002,11.06,-0.8222934864899999,-10.292008567119998,1.0273583833100002,-15.008000000000001,1.4700000000000002,9.0335,15.5,False,0
1.6641781330108643,-0.8829515394,-9.8045906035,1.7826528369999999,-44.52,1.33,10.99,-0.83677006322,-10.275677552874999,1.0615757464900002,-17.038,1.4630000000000003,9.2575,15.5,False,0
1.6742510795593262,-0.7022934331,-9.5724868113,1.9597217093999997,-44.17,0.28,10.500000000000002,-0.840778041075,-10.241639651389999,1.096092212495,-19.201,1.365,9.4535,15.5,False,0
1.6842098236083984,-0.6484549245999999,-9.521041125399998,2.0805592507,-39.410000000000004,-1.12,9.31,-0.836590601525,-10.19952597363,1.13563360596,-21.301000000000002,1.1690000000000003,9.5305,15.5,False,0
1.6946568489074707,-0.5946164160999999,-9.611968384199999,2.141576227,-31.220000000000002,-3.8500000000000005,9.450000000000001,-0.83401831723,-10.164172019715,1.1870792918599997,-23.03,0.8085000000000004,9.491999999999999,15.5,False,0
1.7047176361083984,-0.6352944002999998,-9.655039190999998,2.1236300575,-23.94,-5.74,9.31,-0.8353941902249999,-10.135936713034997,1.248395370985,-24.2865,0.26949999999999974,9.491999999999999,15.5,False,0
1.71463942527771,-0.6245266985999999,-9.7938229018,2.1870398563999998,-17.080000000000002,-5.390000000000001,7.98,-0.84634135362,-10.116495029409998,1.322333589325,-25.0915,-0.30450000000000016,9.5585,15.5,False,0
1.7246010303497314,-1.2227323486,-10.0187482262,2.1822542112,-14.350000000000001,-5.74,9.030000000000001,-0.86081793035,-10.0989077833,1.3967503721849999,-25.4065,-0.7805000000000002,9.6355,15.5,False,0
1.734557867050171,-0.9176474671,-10.363314680599997,2.2109680824,-14.560000000000002,-1.8900000000000001,11.13,-0.8767302006400002,-10.081141075495,1.4735001570799997,-25.529000000000003,-1.1235000000000002,9.754500000000002,15.5,False,0
1.7445368766784668,-0.7369893607999999,-10.372885970999999,2.2528424779,-19.180000000000003,-1.12,15.610000000000001,-0.885164900305,-10.07234745244,1.54648124638,-25.571,-1.3719999999999999,10.062500000000002,15.5,False,0
1.7545347213745117,-0.5994020613,-10.217352501999999,2.3138594542,-26.740000000000002,0.07,17.360000000000003,-0.8757730716,-10.065946651985,1.6257434950049998,-25.648000000000003,-1.6344999999999998,10.486,15.5,False,0
1.764589548110962,-0.33260234139999995,-10.042676452199998,2.4263221163999997,-31.500000000000004,1.6800000000000002,16.240000000000002,-0.8561519262799999,-10.056375361585001,1.71062887674,-25.781,-1.7990000000000002,10.937500000000002,15.5,False,0
1.7746782302856445,-0.20458633229999998,-9.992427177599998,2.5471596577,-34.650000000000006,2.7300000000000004,13.72,-0.8229515127050002,-10.040403270730001,1.7911473572299996,-26.040000000000003,-1.8480000000000003,11.3085,15.5,False,0
1.7847120761871338,-0.20937197749999997,-9.926624556099998,2.7529424012999995,-33.32,1.4700000000000002,12.46,-0.7793423208199999,-10.01838930281,1.868614988905,-26.46,-1.841,11.55,15.5,False,0
1.7946932315826416,-0.2548356069,-9.985248709799999,2.9994031290999996,-26.110000000000003,0.77,11.760000000000002,-0.73603223176,-9.997870849015,1.9477575964,-26.8765,-1.8059999999999998,11.672500000000001,15.5,False,0
1.8047277927398682,-0.35892339,-10.2077812116,3.1106693799999996,-14.770000000000001,-0.07,13.860000000000001,-0.69762742903,-9.98393265737,2.0350956213,-27.1005,-1.722,11.732000000000001,15.5,False,0
1.8147108554840088,-0.1734796385,-10.2616197201,3.1106693799999996,-4.48,0.6300000000000001,18.060000000000002,-0.6814160559149999,-9.982915707764999,2.1320647571649993,-27.009500000000003,-1.5330000000000001,11.886,15.5,False,0
1.8247454166412354,-0.1447657673,-10.2640125427,2.9144579268,0.49000000000000005,2.45,21.770000000000003,-0.6422934064049999,-9.986564762229998,2.2258035825199993,-26.400500000000005,-1.1515000000000002,12.2675,15.5,False,0
1.8348603248596191,-0.0634097989,-10.3082797608,2.6273192147999995,2.66,4.9,23.94,-0.5956931862699999,-9.993264665509997,2.30452744606,-25.354000000000003,-0.7105000000000001,12.866,15.5,False,0
1.8448281288146973,-0.0681954441,-10.563115367699998,2.5004996169999996,-0.6300000000000001,7.280000000000001,24.500000000000004,-0.5405984459049998,-9.996195873194996,2.36626226914,-23.838500000000003,-0.2345000000000002,13.524000000000001,15.5,False,0
1.8549129962921143,0.041874395499999995,-10.996216258299997,2.5471596577,-9.450000000000001,8.120000000000001,26.390000000000004,-0.48622155231999986,-10.022935665749998,2.416391902609999,-22.309,0.1609999999999999,14.258999999999997,15.5,False,0
1.8649277687072754,0.18544375149999998,-10.6612210943,2.572284295,-19.6,9.100000000000001,28.560000000000002,-0.4345964047249999,-10.062357418084996,2.4557538343799994,-20.846,0.5075,15.088500000000002,15.5,False,0
1.875004768371582,0.37328032559999996,-10.4315101247,2.8031916758999995,-25.900000000000002,10.500000000000002,30.03,-0.38129628130999993,-10.110154049519997,2.5003799758699996,-19.719,0.9659999999999999,15.998499999999998,15.5,False,0
1.8849694728851318,0.5096712138,-10.139585767500002,2.9671000239999996,-26.46,10.780000000000001,29.540000000000003,-0.32333015382499997,-10.14748208208,2.54225437137,-18.921,1.4945,16.9925,15.5,False,0
1.8950223922729492,0.6664010940999998,-10.1479606466,3.0771698636,-16.450000000000003,9.38,28.770000000000003,-0.258843584755,-10.179127160964999,2.5881367447249994,-18.203500000000002,2.1174999999999997,18.003999999999998,15.5,False,0
1.905055284500122,0.6640082714999999,-10.3920285518,3.0197421211999997,-0.42000000000000004,8.82,27.860000000000003,-0.19740786449999997,-10.208798161205,2.6356940938999998,-17.248,2.807,18.976999999999997,15.5,False,0
1.915032148361206,0.40917266459999996,-10.831111498899999,2.9060830476999997,14.63,8.190000000000001,29.470000000000002,-0.13381860390499994,-10.251151121224998,2.6764318986649998,-15.848000000000004,3.563,19.9185,15.5,False,0
1.9250288009643555,0.21296121140000002,-11.4053889229,2.7254249414,18.55,8.120000000000001,34.02,-0.07866404297500001,-10.314979664079997,2.7062823606,-14.199500000000004,4.245500000000001,21.049,15.5,False,0
1.9381396770477295,0.12562318649999998,-11.745169732099999,2.3042881638,10.64,14.000000000000002,41.300000000000004,-0.024945175605000022,-10.391191063889996,2.71645185665,-12.666500000000005,4.9735000000000005,22.477,15.5,False,0
1.948148488998413,0.3505485109,-11.5513511015,1.7874384822,-1.1900000000000002,16.17,45.64000000000001,0.03188436114500002,-10.456933864824999,2.7067011045549996,-11.5395,5.785500000000001,23.989,16.5,False,0
1.9581732749938965,0.49651068949999994,-11.246266219999999,1.6845471104,-16.59,16.17,47.39000000000001,0.0861416136,-10.510951835019998,2.6732614087199997,-10.885,6.6325,25.4765,16.5,False,0
1.9681870937347412,0.7429714172999999,-10.889735652599999,1.8053846516999998,-26.67,16.520000000000003,46.900000000000006,0.14243276526499998,-10.553005692214997,2.6361128378549994,-10.549,7.399000000000001,26.992000000000008,15.5,False,0
1.9782049655914307,0.8961120637,-10.535597907799998,2.0171494518,-28.910000000000004,15.05,46.410000000000004,0.19944176370999997,-10.585308797314998,2.6072195049599993,-10.335499999999998,8.099,28.553000000000008,15.5,False,0
1.9882466793060303,0.9296115801,-10.4674024637,2.2875384055999994,-24.01,14.420000000000002,47.88,0.25184457865,-10.61683423507,2.5853251781699997,-9.960999999999999,8.722,30.22950000000001,15.5,False,0
1.9982225894927979,1.0612168230999999,-10.271191010499999,2.4143580034,-15.820000000000002,14.490000000000002,51.45,0.31142586138999995,-10.64016425542,2.560499643694999,-9.471,9.379999999999999,32.07750000000001,15.5,False,0
2.008333444595337,1.0719845248,-10.241280727999998,2.3521446158,-8.82,15.750000000000002,55.790000000000006,0.375732968765,-10.65105159825,2.5314268491049994,-9.047500000000001,10.090499999999999,34.104,15.5,False,0
2.0183451175689697,1.1461620253999998,-10.0474620974,2.2085752598,-6.86,17.78,60.620000000000005,0.44590249150999994,-10.649316801865,2.4961925363199997,-8.8305,10.9095,36.253,15.5,False,0
2.0283241271972656,1.2777672683999999,-9.513862657599999,1.9214365477999997,-10.71,21.42,61.53000000000001,0.513080986005,-10.639865152595,2.451865497655,-9.110499999999998,11.802,38.30050000000001,15.5,False,0
2.0383780002593994,1.4488540842999997,-9.6801638283,1.6630117069999997,-21.07,24.85,59.290000000000006,0.5892923858149999,-10.614740515295,2.40801702351,-9.940000000000001,12.817000000000002,40.1625,15.5,False,0
2.048393726348877,1.5385849318,-9.4719882621,1.5852449725,-31.780000000000005,24.570000000000004,55.580000000000005,0.6678367876599999,-10.582437410195,2.34281260766,-11.333,13.769,41.874,15.5,False,0
2.0584375858306885,1.6654045295999997,-9.397810761499999,1.8209379985999998,-37.730000000000004,22.05,51.38,0.7539784012599998,-10.52339451254,2.3017757000699994,-12.887,14.5705,43.2915,15.5,False,0
2.068495273590088,1.3591232368,-9.5904329808,2.2911276395,-33.53,18.830000000000002,50.75000000000001,0.8258228998249999,-10.458728481775,2.2750359075149995,-14.0805,15.155000000000001,44.429,15.5,False,0
2.0791451930999756,1.411765334,-9.6418786667,2.5686950610999992,-24.01,17.990000000000002,57.120000000000005,0.8785248175899998,-10.411350594295,2.2602602279599995,-14.465500000000002,15.564499999999999,45.654,15.5,False,0
2.089116096496582,1.7347963849999999,-9.121439751199999,2.5531417142,-15.260000000000002,18.970000000000002,62.86000000000001,0.9311669147899998,-10.368519069755,2.2476380887449996,-14.115500000000003,15.939000000000002,47.152,15.5,False,0
2.099087953567505,2.1379869930999997,-8.571090553199998,2.2767707038999996,-7.490000000000001,19.39,61.25000000000001,0.9970891774199998,-10.298349547009998,2.212284134829999,-13.615,16.401000000000003,48.8355,15.5,False,0
2.1090667247772217,2.3712871966,-8.434699665,2.2396819535999994,-3.08,17.5,55.650000000000006,1.0780264018649999,-10.200782205494999,2.1675383522099994,-13.4295,16.884,50.33,15.5,False,0
2.1190147399902344,2.3234307446,-9.098707936499999,2.2935204621,0.9100000000000001,17.92,51.24,1.156750265405,-10.088738287249999,2.1035303476599996,-13.7095,17.335500000000003,51.6075,15.5,False,0
2.1289725303649902,1.9022939669999996,-9.223134711699998,2.0566310246999997,0.42000000000000004,17.360000000000003,52.290000000000006,1.24390882861,-9.982018399289998,2.0763718111499996,-14.556500000000003,17.794,52.6365,15.5,False,0
2.139045476913452,1.9441683625,-9.455238503899999,1.8364913454999998,-8.05,18.200000000000003,51.730000000000004,1.332862008765,-9.881878773479999,2.061715772724999,-15.487500000000006,18.1825,53.319,15.5,False,0
2.1490230560302734,1.9022939669999996,-9.716056167299998,1.9381863059999997,-19.67,17.92,53.13,1.4118251545649998,-9.774381218174996,2.0502302242449995,-16.422000000000004,18.3155,53.74950000000001,15.5,False,0
2.1590027809143066,2.0865413072,-9.661021247499999,2.3306092123999997,-29.050000000000004,20.860000000000003,56.35000000000001,1.4805589837500002,-9.671609487504996,2.0535203553199994,-17.097500000000004,18.487000000000002,54.13800000000001,15.5,False,0
2.169067859649658,2.3042881638,-9.223134711699998,2.6129622791999996,-36.330000000000005,24.570000000000004,60.690000000000005,1.5529418674,-9.587023208594998,2.0910876701399994,-17.615500000000004,18.794999999999995,54.69100000000001,15.5,False,0
2.179105520248413,2.7146572396999997,-8.6787675702,2.8187450228,-36.89,27.44,62.650000000000006,1.63238357772,-9.491968330809998,2.1313469103849996,-17.982999999999997,19.291999999999994,55.461,15.5,False,0
2.189124345779419,2.9419753867,-8.482556117,2.9216363945999997,-31.220000000000002,26.880000000000003,63.28000000000001,1.724567068385,-9.397691120369998,2.1669999671249998,-18.3155,19.921999999999997,56.301,15.5,False,0
2.1991703510284424,3.0963124444,-8.288737486399999,2.4538395763,-23.380000000000003,25.900000000000002,61.18000000000001,1.83242354708,-9.302097857499998,2.18847554996,-18.7285,20.517,56.99400000000001,15.5,False,0
2.209179162979126,3.4767712377999995,-8.347361640099999,2.6488546182,-19.950000000000003,22.05,56.63,1.9600208122250002,-9.214101806384999,2.205165487595,-19.2815,20.993000000000002,57.312500000000014,15.5,False,0
2.219183921813965,3.4540394230999993,-8.5746797871,2.7098715944999996,-16.73,19.67,52.080000000000005,2.08259314991,-9.128558398435,2.22281255427,-19.852,21.189,57.116499999999995,15.5,False,0
2.2291667461395264,3.1860432918999995,-9.1896351953,2.8965117572999994,-14.14,17.57,47.39000000000001,2.185783624535,-9.057790670040001,2.25056929643,-20.184500000000007,21.192500000000003,56.528499999999994,15.5,False,0
2.2391915321350098,2.8402804261999997,-9.6969135865,3.1669007110999994,-11.9,17.92,49.910000000000004,2.26229412717,-9.036195446075,2.308535423915,-20.114500000000003,20.888000000000005,55.8845,15.5,False,0
2.249103307723999,2.8498517165999995,-9.773483909699998,3.2135607518,-11.13,21.910000000000004,52.220000000000006,2.3260030288949998,-9.03828916585,2.404726892435,-19.4005,20.60450000000001,55.55550000000001,15.5,False,0
2.259066343307495,3.0687949844999998,-9.5330052384,2.8809584104000003,-15.47,21.490000000000002,52.150000000000006,2.3934806262149997,-9.040562347320002,2.470050949415,-18.256000000000004,20.51,55.49950000000001,15.5,False,0
2.269071102142334,3.3667013982,-9.2554378168,2.9096722816000002,-21.630000000000003,18.900000000000002,52.43000000000001,2.473640183315,-9.038827550935,2.51389942356,-17.321500000000004,20.506500000000006,55.60450000000001,15.5,False,0
2.2790117263793945,3.5736805530999995,-8.916853418899999,3.0711878070999994,-21.000000000000004,18.62,53.480000000000004,2.5786252748900003,-9.007720857135,2.5407588572449997,-16.919,20.527500000000003,55.573000000000015,15.5,False,0
2.2889506816864014,3.5461630931999997,-9.0747797105,3.3080772444999993,-16.73,17.5,52.43000000000001,2.6773890277050003,-8.980981064579998,2.5671397264099998,-16.912,20.517000000000003,55.24050000000001,15.5,False,0
2.298790693283081,3.5928231338999996,-9.1728854371,3.0484559924,-14.14,14.980000000000002,54.95,2.7647868731700003,-8.986364915429997,2.608176634,-17.101000000000003,20.321000000000005,54.76100000000001,15.5,False,0
2.3087422847747803,3.5796626096,-9.0364945489,3.0747770410000004,-14.490000000000002,14.070000000000002,57.050000000000004,2.8396223999849997,-9.019146585049999,2.65100815854,-17.538500000000003,20.0935,54.645500000000006,15.5,False,0
2.321162223815918,3.1680971224,-9.8560362894,3.2458638569,-17.150000000000002,20.090000000000003,58.800000000000004,2.9048866363999997,-9.063712905974997,2.7194428849,-18.368000000000002,19.932499999999997,54.8275,15.5,False,0
2.331162214279175,3.2279176873999997,-9.812965482600001,2.8881368781999996,-20.090000000000003,26.950000000000003,66.64,2.9612974291949996,-9.104390890174999,2.7615565626599996,-19.3165,20.2125,55.335,15.5,False,0
2.3410658836364746,3.5832518435,-9.4935236655,2.5244278430000002,-26.53,32.690000000000005,75.88000000000001,3.027937538605,-9.102117708704998,2.7855446092249996,-20.3105,20.744500000000002,56.35699999999999,15.5,False,0
2.350947856903076,3.9900316855,-8.836693861799999,1.9908284031999999,-31.430000000000003,31.290000000000003,78.82000000000001,3.119821926445,-9.068498551175,2.8024140085549996,-21.0875,21.4935,57.638,15.5,False,0
2.3608155250549316,4.4925244315,-8.1080793801,1.8771693296999998,-31.290000000000003,26.810000000000002,80.15,3.2358140019799997,-9.015138607195,2.8114469138699993,-21.549500000000002,22.001,58.87349999999999,15.5,False,0
2.370788335800171,4.857429878,-7.268198647499999,1.7802600144,-28.210000000000004,22.610000000000003,80.71000000000001,3.371666505094999,-8.9324067658,2.7809982462849994,-21.441000000000006,22.106,59.976,15.5,False,0
2.380711078643799,5.2390850827,-6.6245293681,1.6570296505,-24.990000000000002,18.130000000000003,76.23,3.501716413404999,-8.846683896155,2.7303900482949994,-20.982500000000005,21.857500000000005,60.81600000000001,15.5,False,0
2.3907389640808105,5.4819565766,-6.3445691239,1.7635102562,-22.610000000000003,14.770000000000001,68.04,3.6293734991149997,-8.74110059893,2.6733212292849995,-20.496000000000002,21.30100000000001,61.31300000000001,15.5,False,0
2.400692939758301,5.3982077855999995,-6.4426748505,2.1403798157,-18.200000000000003,15.750000000000002,60.34,3.7347175140799997,-8.625048702829998,2.63509588825,-20.170500000000004,20.741000000000003,61.393499999999996,15.5,False,0
2.4106616973876953,5.0297131052,-6.8434726359999996,2.4466611085,-15.540000000000001,17.990000000000002,56.980000000000004,3.815056532875,-8.530711671825,2.616790795359999,-19.915000000000003,20.363000000000003,61.33400000000002,15.5,False,0
2.420680522918701,4.9304109673,-7.077969250799999,2.5698914723999993,-13.160000000000002,21.770000000000003,59.290000000000006,3.88510641449,-8.462037663204999,2.6084159162599994,-19.691000000000003,20.3735,61.488,15.5,False,0
2.430636167526245,5.0679982668,-6.6412791263,2.3078773977,-19.32,20.37,66.22000000000001,3.9684962821,-8.38169864441,2.611706047334999,-19.5895,20.562500000000004,62.069,15.5,False,0
2.4629876613616943,5.4161539550999995,-6.101697629999999,2.883351233,-40.18000000000001,29.960000000000004,70.21000000000001,4.08347140803,-8.2444702683,2.588854591504999,-20.1285,20.713000000000005,62.996500000000005,15.5,False,0
2.4856793880462646,5.696114199299999,-5.461617584499999,2.9599215562,-75.39,35.07,68.32000000000001,4.21148741713,-8.054898897815,2.5720450127399994,-21.987000000000002,21.381500000000006,63.938,15.5,False,0
2.504606246948242,5.3587262127,-5.6051869404999985,3.8847474911,-80.78,43.89000000000001,64.12,4.341477504875,-7.84929561591,2.58101809749,-25.315500000000004,22.1655,64.5855,15.5,False,0
2.518486976623535,5.362315446599999,-5.3012984703,3.8009987000999996,-62.02,44.870000000000005,66.71000000000001,4.453820525945,-7.6555966264399995,2.6330021684749996,-28.1855,23.401000000000003,65.2365,15.5,False,0
2.5367095470428467,6.2548382764,-4.768895441799999,2.979064137,-30.520000000000003,37.17,59.78000000000001,4.570590268825,-7.458786967590001,2.6608187312,-29.088500000000003,24.5455,65.765,15.5,False,0
2.5514583587646484,6.399604043699999,-4.789234433899999,2.6596223199,-16.310000000000002,26.180000000000003,45.36000000000001,4.70835703002,-7.24917570783,2.641616329835,-29.319500000000005,25.312,65.92949999999999,15.5,False,0
2.5688860416412354,6.0167524277,-5.273781010399999,2.8905297008,-21.42,25.900000000000002,41.720000000000006,4.82560533742,-7.05715169418,2.621396978865,-29.396500000000003,25.791500000000003,65.45,15.5,False,0
2.578864812850952,5.8253266197,-5.8217373858000006,3.1166514364999998,-33.040000000000006,31.360000000000003,40.040000000000006,4.93053060843,-6.8827747472050005,2.6198416441749997,-29.984500000000008,26.463500000000003,64.6765,15.5,False,0
2.5888607501983643,5.855236902199999,-6.2560346877,3.1453653077,-52.92,40.53,38.78,5.046941427919999,-6.723173479785001,2.625225495025,-31.216500000000003,27.559000000000005,63.777,15.5,False,0
2.599062442779541,6.1052868639,-6.569494448299999,2.9575287336,-69.23,43.330000000000005,40.88,5.17603420719,-6.5565732062599995,2.6256442389799997,-33.3515,28.553000000000004,62.685,15.5,False,0
2.608997344970703,6.58026215,-6.317051663999999,2.5854448192999997,-70.07000000000001,41.09,42.7,5.33108911167,-6.406244126414999,2.6319253983049995,-35.822500000000005,29.2565,61.18000000000001,15.5,False,0
2.618908166885376,7.1820570339,-6.238088518199999,2.6512474407999997,-59.36000000000001,28.35,43.260000000000005,5.49583494768,-6.2763736798,2.6493930032849997,-37.810500000000005,29.428000000000004,59.423000000000016,15.5,False,0
2.6288821697235107,7.4991060284,-5.8193445632000005,2.8259234905999997,-42.63,19.180000000000003,42.63,5.6568719086599994,-6.1637315559050005,2.6910879370899994,-38.81500000000001,29.1305,57.65200000000002,15.5,False,0
2.6388099193573,7.604390222799999,-5.737988594799999,3.0496524037,-22.400000000000002,13.790000000000001,40.95,5.802893907824999,-6.0670017023,2.7504897581349996,-39.01800000000001,28.749000000000002,55.70600000000002,15.5,False,0
2.64871883392334,7.6390861505,-5.875575894299999,3.2015966387999995,-10.360000000000001,10.010000000000002,38.71,5.935157177039999,-5.997191102945,2.8203601780549996,-38.479000000000006,28.297500000000003,53.760000000000026,15.5,False,0
2.6586716175079346,7.603193811499999,-6.1088760978,3.4301111970999996,-8.05,9.170000000000002,38.50000000000001,6.052584946134998,-5.972425389034999,2.901596505325,-37.67750000000001,27.954500000000003,52.04850000000001,15.5,False,0
2.668661594390869,7.9262248625,-6.352944002999999,3.5174492219999998,-15.120000000000001,12.740000000000002,38.85,6.173721590259999,-5.985346631075001,2.98301229429,-37.002,27.7235,50.792000000000016,15.5,False,0
2.678603172302246,7.758727280499999,-6.5252272302,3.6059836581999996,-30.730000000000004,15.96,38.57,6.296832313029999,-5.984389502035,3.0461828109299995,-37.1245,27.639500000000005,49.826000000000015,15.5,False,0
2.6887030601501465,7.8257263133,-6.759723844999999,3.7698920062999997,-45.080000000000005,15.540000000000001,38.43000000000001,6.440940054114999,-5.962614816375,3.104148938415,-38.30750000000001,27.433000000000003,48.860000000000014,15.5,False,0
2.698669910430908,7.8963145799999985,-6.7226350947,4.1766718483,-53.690000000000005,9.520000000000001,41.160000000000004,6.586004924239999,-5.951069447330001,3.1634311183299997,-40.229000000000006,26.960500000000003,47.81350000000001,15.5,False,0
2.708660840988159,7.995616717899999,-6.4247286809999995,4.4697926167999995,-51.52,2.9400000000000004,45.43000000000001,6.721139580574999,-5.94927483038,3.248555782325,-41.74100000000001,26.27450000000001,46.676,15.5,False,0
2.718712568283081,7.891528934799999,-6.3003019058,4.9328037898999995,-45.85,-0.56,49.42,6.853043926399998,-5.970630772084999,3.335833986659999,-41.7655,24.696000000000005,45.49300000000001,15.5,False,0
2.728795289993286,7.6139615132,-6.138786380299999,5.3180482284999995,-37.59,-0.49000000000000005,52.92,6.955456733679999,-6.008018625210001,3.433640610434999,-39.92100000000001,22.774500000000003,44.772000000000006,15.5,False,0
2.7388482093811035,7.661817965199999,-5.6674003281,5.282155889499999,-32.900000000000006,3.6400000000000006,56.56,7.0641507002849995,-6.02895582296,3.5074591876449994,-37.88750000000001,20.562500000000004,44.2085,15.5,False,0
2.7489142417907715,7.7826555065,-5.517848915599999,5.039284395599999,-32.760000000000005,8.05,57.400000000000006,7.1630340942299995,-6.05037158523,3.590430311299999,-37.49550000000001,18.767000000000003,43.918000000000006,15.5,False,0
2.7589309215545654,7.7276205867,-5.395814963,4.881358103999999,-37.870000000000005,11.410000000000002,58.52,7.238108903304999,-6.089195131915,3.700679612594999,-37.992500000000014,17.605000000000004,43.977500000000006,15.5,False,0
2.7688815593719482,7.9226356286,-5.075176734599999,4.673182537799999,-41.300000000000004,10.430000000000001,61.11000000000001,7.3256263899,-6.096194138020001,3.801537085184999,-39.10900000000001,16.898,44.75450000000001,15.5,False,0
2.7813963890075684,7.959724378899998,-4.9172504429999995,4.7772703209,-42.35,2.9400000000000004,63.00000000000001,7.4248687072349995,-6.06999273055,3.8801413075949993,-39.91050000000001,15.8165,45.81850000000001,15.5,False,0
2.791405200958252,7.9633136127999995,-4.669593303899999,4.8442693537,-34.440000000000005,-0.7000000000000001,65.45,7.529614516550001,-6.00742041956,3.9600615824349994,-39.921000000000014,14.027999999999997,47.0855,15.5,False,0
2.8013601303100586,8.0183485326,-4.3968115275,4.833501652,-23.730000000000004,-2.5200000000000005,64.82000000000001,7.644888745305001,-5.909494154655001,4.044767502474999,-38.36350000000001,11.812499999999998,48.370000000000005,15.5,False,0
2.8113160133361816,7.665407199099999,-4.455435681199999,4.7760739096,-14.000000000000002,-2.9400000000000004,63.7,7.721339427375002,-5.803851036865001,4.141975920599999,-35.731500000000004,9.5025,49.48650000000001,15.5,False,0
2.8213188648223877,7.1497539288,-4.571487577299999,4.5858445129,-9.8,-0.21000000000000002,65.10000000000001,7.749215810665001,-5.7157353446200005,4.255634994099999,-32.956,7.595000000000001,50.557500000000005,15.5,False,0
2.831282615661621,7.4428746973,-4.204189308199999,4.170689791799999,-10.430000000000001,1.9600000000000002,66.64,7.7597442301049995,-5.631029424579999,4.34046055527,-30.824499999999993,6.471500000000001,51.69500000000001,15.5,False,0
2.84128737449646,7.319644333399999,-4.0510486617999995,3.9206398300999994,-16.1,4.83,65.73,7.74939527236,-5.54500745211,4.3884366484,-29.743000000000002,5.7645,52.9375,15.5,False,0
2.8512122631073,6.9690958225,-3.9038900719,3.8991044266999997,-21.910000000000004,8.680000000000001,64.47000000000001,7.722775120935,-5.462754175235,4.431268172939999,-29.855,5.474,54.19050000000002,15.5,False,0
2.8611700534820557,6.845865458599999,-3.6251262389999996,3.6969109170000003,-25.200000000000003,12.46,65.17,7.685566729505,-5.351966488855,4.453760705380001,-30.604000000000003,5.537000000000001,55.482000000000006,15.5,False,0
2.8711910247802734,6.6723858201,-3.3284162366,3.5988051904000002,-25.340000000000003,14.21,66.43,7.635796019424999,-5.217848782125,4.45507675781,-31.4475,5.6770000000000005,56.81550000000001,15.5,False,0
2.881213903427124,6.5036918268,-2.901297402499999,3.4480573665999996,-21.700000000000003,15.400000000000002,66.43,7.577291506854998,-5.04706106905,4.450111650915,-31.619000000000007,5.691000000000001,58.19100000000001,15.5,False,0
2.8917856216430664,6.8518475150999985,-2.1954147355,3.0412775245999994,-15.750000000000002,14.14,62.790000000000006,7.520521790669998,-4.84367114805,4.430011941075,-30.684500000000007,5.642000000000001,59.5245,15.5,False,0
2.901869535446167,6.787241304899999,-1.7958133612999998,2.9216363945999997,-8.82,13.790000000000001,53.830000000000005,7.471110003979999,-4.605704940479999,4.384368849979999,-28.815500000000004,5.6455,60.452,15.5,False,0
2.9119162559509277,6.790830538799999,-1.6019947307,2.8797619990999994,-2.31,15.96,46.410000000000004,7.41990360034,-4.3645682429649995,4.31725017605,-26.404000000000003,6.027000000000001,60.8125,15.5,False,0
2.921977996826172,6.4426748505,-1.3447663011999997,1.9070796122,3.5000000000000004,19.810000000000002,40.18000000000001,7.352844746975,-4.125106521269999,4.229792510019999,-23.978500000000004,6.821500000000002,60.6375,15.5,False,0
2.9318950176239014,6.4331035601,-1.7515461432000001,2.8845476443,5.880000000000001,21.700000000000003,37.45,7.2909304622,-3.8981472976599987,4.117569130079999,-21.6055,7.9415000000000004,59.979499999999994,15.5,False,0
2.9421310424804688,6.715456626899998,-1.722832272,2.3988046565,6.090000000000001,21.560000000000002,31.290000000000003,7.237391056525,-3.6820155963149994,3.98093895962,-19.537,9.026500000000002,59.06600000000001,15.5,False,0
2.9521095752716064,6.8614188055,-1.8939190878999999,2.2384855423,4.83,18.130000000000003,24.78,7.187799808139999,-3.4998619758899983,3.8382070915299997,-17.636499999999998,9.803500000000003,57.606500000000004,15.5,False,0
2.9619855880737305,6.809973119599999,-2.0518453795,2.6428725617,6.790000000000001,13.510000000000002,18.970000000000002,7.13910586823,-3.318426202244999,3.7072000541800008,-15.616999999999996,10.097500000000002,55.84250000000001,15.5,False,0
2.9720304012298584,7.061219492599999,-2.1631116304,3.0687949844999998,8.610000000000001,14.63,14.840000000000002,7.091847621879998,-3.162713271549999,3.609034507015,-13.243999999999996,10.181500000000003,53.7355,15.5,False,0
2.9820332527160645,7.1509503401,-1.9334006607999998,3.1764720014999996,8.33,15.680000000000001,11.48,7.055177615535001,-3.0187849921599996,3.537967675795,-10.7695,10.640000000000004,51.345000000000006,15.5,False,0
2.9920530319213867,7.087540541199999,-2.0279171535,3.5174492219999998,11.48,16.8,5.670000000000001,7.023771818909999,-2.8769504325449997,3.4585857860399996,-8.312500000000002,11.399500000000003,48.58,15.5,False,0
3.0021138191223145,6.8255264664999995,-2.4777678023,3.7663027724,20.160000000000004,20.860000000000003,1.4700000000000002,6.969873489845,-2.7664020284249995,3.4010384025100002,-6.09,12.376000000000003,45.464999999999996,15.5,False,0
3.012105703353882,6.6305114246,-2.9024938137999996,3.6466616424,30.240000000000002,26.880000000000003,-1.05,6.914838570045001,-2.6813371849949994,3.351447154124999,-3.941,13.695500000000004,42.2975,15.5,False,0
3.0223894119262695,6.8697936846,-3.1058837348,3.190828937099999,45.71,28.490000000000002,-0.8400000000000001,6.872844533415,-2.60757842835,3.2885159197449996,-1.5084999999999993,15.193500000000004,39.0355,15.5,False,0
3.0324063301086426,7.563712238599999,-2.9874390161,2.4011974791,56.42000000000001,29.750000000000004,-1.1900000000000002,6.85089038606,-2.548774812955,3.214697342534999,1.5260000000000002,16.600500000000004,35.67900000000001,15.5,False,0
3.042487382888794,8.529216157699999,-2.8055844984999996,1.6977076346999997,55.370000000000005,29.26,-6.44,6.874519509234998,-2.4934407903299993,3.1221549284799996,4.991000000000001,17.958500000000004,32.227999999999994,15.5,False,0
3.052659034729004,8.5914295453,-2.715853651,1.4763715442,49.63,24.220000000000002,-14.070000000000002,6.945586340454999,-2.4359532273649993,3.00634231464,8.5715,18.966500000000003,28.496999999999993,15.5,False,0
3.062736988067627,8.817551280999998,-2.4227328824999996,1.2969098491999997,47.88,19.67,-21.490000000000002,7.035317187954999,-2.3806790253049996,2.885923517295,12.123999999999999,19.575500000000005,24.3565,15.5,False,0
3.0727736949920654,8.7780697081,-1.7419748528,1.6929219895,50.190000000000005,16.66,-28.35,7.142934384389998,-2.310569323125,2.785903532615,15.823500000000001,19.824,19.887000000000008,15.5,False,0
3.0827786922454834,8.6823568041,-1.5086746492999996,2.1188444122999996,60.34,18.340000000000003,-33.11000000000001,7.263113899474999,-2.23142671563,2.696770890765,19.684000000000005,19.901000000000003,14.987000000000009,15.5,False,0
3.0928213596343994,9.1154576947,-0.41036907589999994,2.2384855423,67.62,21.490000000000002,-32.900000000000006,7.362356216809999,-2.16394911831,2.6459832310799998,23.838500000000003,20.131999999999998,10.09050000000001,15.5,False,0
3.1028552055358887,10.8167545633,1.6354942471,1.8209379985999998,66.43,25.69,-42.56,7.5098737301,-2.0557337162250002,2.6048266823599997,27.958000000000006,20.587,5.386500000000001,15.5,False,0
3.1128268241882324,12.567104295199998,2.7900311516,1.1449656141,55.580000000000005,28.630000000000003,-71.26,7.742037342864999,-1.8585651339850002,2.53914370199,31.4055,21.2415,0.10850000000000079,15.5,False,0
3.1228668689727783,14.394024350299999,3.8117664017999995,1.2693923892999999,36.400000000000006,25.060000000000002,-99.89000000000001,8.06895673059,-1.6202400030250004,2.442892412905,33.789,21.742,-6.174000000000001,15.5,False,0
3.1328585147857666,15.719648070699998,5.5334022625,0.9200402897,14.980000000000002,15.96,-125.16000000000001,8.485307862989998,-1.3005589036649998,2.353759771055,34.902,21.808500000000002,-13.643,15.5,False,0
3.1429073810577393,17.9617228469,8.1894353485,0.6125625856,-0.56,-5.040000000000001,-150.15,8.980681961754998,-0.89336031771,2.240339979815,34.972,21.094500000000004,-22.239000000000004,15.5,False,0
3.152925491333008,21.671794288199997,10.643274924799998,-0.2679961312,-17.92,-27.020000000000003,-173.60000000000002,9.616933491094999,-0.3355933696500001,2.1419949709550004,34.2545,19.3165,-31.626000000000005,15.5,False,0
3.162925958633423,25.399811898999996,12.835100426399999,-1.5086746492999996,-41.230000000000004,-58.24000000000001,-217.21,10.433065459389997,0.35922249282500013,1.98269280636,32.655,16.6075,-42.39900000000001,15.5,False,0
3.1756391525268555,28.461428415699995,13.021740589199998,-3.5629128513999997,-86.38000000000001,-102.27000000000001,-286.23,11.454082862809999,1.13371934788,1.7158930864600002,29.1935,11.966500000000002,-56.06300000000001,15.5,False,0
3.185741901397705,29.8193552412,11.417353035899998,-5.6183474648,-127.75000000000001,-145.25,-337.96000000000004,12.546944764794997,1.85934280133,1.3376476539649995,23.6495,5.288499999999998,-72.184,15.5,False,0
3.1957826614379883,29.407789753999996,9.8739824589,-7.369893607999999,-185.01000000000002,-190.12,-377.86,13.675340082389997,2.4902703003849997,0.8560322851500002,15.480500000000001,-3.7030000000000007,-90.46100000000001,15.5,False,0
3.2058794498443604,28.0905409127,9.072386887899999,-7.680960546,-245.21000000000004,-250.95000000000002,-408.24000000000007,14.763715441999997,3.0804001741099993,0.29449664149499966,4.231499999999997,-16.215500000000002,-110.44250000000002,15.5,False,0
3.215954065322876,29.3886471732,8.761319949899999,-7.680960546,-280.63000000000005,-310.45000000000005,-411.81000000000006,15.837434763184998,3.669213995405,-0.2866601474800003,-10.129000000000001,-31.192000000000007,-131.10999999999999,15.5,False,0
3.2260520458221436,31.9381996535,8.291130309,-6.661618118399999,-308.70000000000005,-340.06000000000006,-402.15000000000003,17.043836097539998,4.251268092855,-0.8241479240049999,-26.701500000000003,-48.947500000000005,-151.417,15.5,False,0
3.2361059188842773,31.880771911099995,6.6269221907,-5.900700531599998,-341.39000000000004,-323.82000000000005,-413.28000000000003,18.31131422876,4.79318259119,-1.279621705915,-45.283,-67.44850000000001,-171.56300000000002,15.5,False,0
3.246121644973755,27.113072880599997,4.5487557626,-7.517052197899999,-401.73,-289.38000000000005,-441.70000000000005,19.44276039517,5.2218567599800005,-1.7056637698449997,-66.16400000000002,-84.30100000000002,-192.70300000000003,15.5,False,0
3.2561588287353516,16.8514531605,3.4037901484999993,-7.080362073399999,-515.97,-263.06,-450.17,20.185731812469996,5.576173966474999,-2.1773489248699995,-91.03500000000001,-99.3965,-214.648,15.5,False,0
3.2740983963012695,-5.757131175599999,5.38385085,4.807180603399999,-583.59,-225.68000000000004,-320.11,19.779490355554994,5.85894577723,-2.1546171101700002,-123.93500000000002,-112.266,-232.26,15.5,False,0
3.2862660884857178,-16.1120709771,19.3316137854,2.9192435719999996,-384.86,-224.56000000000003,-251.44000000000003,18.86268037636499,6.522415663645001,-2.0002202319049998,-153.1565,-124.51950000000002,-245.2835,15.5,True,1
3.296550989151001,-26.859433685,23.519053335399995,-2.1678972755999997,-272.72,-197.68,-288.33000000000004,17.409399570254998,7.68443013877,-2.015534296545,-171.451,-136.2165,-256.8335,15.5,True,1
3.3064517974853516,-38.7936364025,22.1850547359,-7.144968283599999,-427.07000000000005,-158.20000000000002,-361.69000000000005,15.351512313689994,8.904650023639999,-2.369911323605,-190.18300000000005,-146.132,-271.12050000000005,15.5,True,1
3.316307783126831,-39.1992198332,20.673987263999997,-4.319044793,-682.6400000000001,-175.84,-422.59000000000003,12.902219100329996,9.97890772991,-2.82197533331,-220.955,-155.085,-289.884,15.5,True,1
3.3262434005737305,-39.1992198332,21.499511061,4.0821553556,-791.4200000000001,-225.68000000000004,-422.87000000000006,10.365707503199996,10.927901173070001,-2.9577081952950004,-262.50000000000006,-166.257,-308.47950000000003,15.5,True,1
3.3362231254577637,-39.1992198332,19.2837573334,17.8396888943,-682.4300000000001,-279.02000000000004,-387.1,7.746105141284997,11.812108944335,-2.5375883673000006,-303.26450000000006,-180.159,-324.8070000000001,15.5,True,1
3.3461461067199707,-39.1992198332,14.428720277999998,33.75195918429999,-498.33000000000004,-263.69,-332.92,5.045326272664997,12.455359479779998,-1.3587044928450003,-334.7505,-195.4365,-337.47700000000015,15.5,True,1
3.3562581539154053,-39.1992198332,6.8327049343,39.1992198332,-273.91,-182.98000000000002,-228.55,2.266242284459998,12.66485109841,0.5822335591449997,-355.86250000000007,-206.70299999999997,-345.1910000000001,15.5,True,1
3.3662476539611816,-37.0217512672,-0.48693939909999995,39.1992198332,29.540000000000003,-88.9,-106.89000000000001,-0.6672984025750047,12.433524973554999,2.5230519700049996,-363.0585,-213.234,-345.9610000000001,15.5,True,1
3.376288414001465,-27.336801793699998,-9.1740818484,25.479971456099996,363.65000000000003,49.07000000000001,4.0600000000000005,-3.4252657313350015,11.59490047282,4.439702872604999,-350.8190000000001,-212.40800000000004,-339.34950000000015,15.5,True,1
3.38629150390625,-17.0177543312,-8.287541075099998,-0.17587246110000002,413.14000000000004,145.46,118.37,-5.942694568229999,10.391490166714998,5.1875197556699995,-326.38550000000004,-203.52500000000003,-323.708,15.5,True,1
3.3962461948394775,-8.7349989013,-0.4450650036,-15.881163596199999,221.20000000000002,143.99,136.22,-8.041917835209999,9.512905528560001,4.994060048459999,-303.42550000000006,-189.784,-301.2695,15.5,True,1
3.4063031673431396,-4.4195433422,5.565705367599999,-12.300304575299998,-48.230000000000004,67.62,71.96000000000001,-9.854540775275,9.15864814263,4.4924646109349995,-290.682,-175.7455,-278.10299999999995,15.5,True,1
3.4163777828216553,-3.1214370817,5.895914886399999,0.1339980656,-118.23000000000002,29.540000000000003,32.550000000000004,-11.482019066664996,8.99737189939,4.525126639424999,-285.257,-161.973,-255.81849999999994,15.5,True,1
3.4263687133789062,-3.0675985731999997,6.860222394199999,7.178467799999999,-51.38,37.17,46.27,-13.030893135644998,8.839505428355,5.125007265245,-277.1965,-146.65699999999998,-233.44299999999998,15.5,True,1
3.436326742172241,-2.6703900216,8.7684984177,10.346564922399999,16.8,52.290000000000006,72.45,-14.72052499407,8.778009887535003,5.951069447330001,-263.18250000000006,-128.086,-210.17849999999999,15.5,True,1
3.446289300918579,-2.3988046565,11.121839444799999,10.742577062699999,31.360000000000003,65.10000000000001,74.69000000000001,-16.469139929585005,8.897710838100002,6.792744796879999,-245.68600000000006,-108.19200000000004,-186.14400000000003,15.5,True,1
3.4563302993774414,-2.7541388125999995,10.652846215199999,10.683952909,20.090000000000003,84.00000000000001,52.50000000000001,-18.119170573980004,9.194899405020001,7.654878779660002,-226.22600000000006,-89.22900000000004,-161.54950000000005,15.5,True,1
3.4662911891937256,-4.3680976563,7.334001268999999,9.5509514079,17.57,99.26,38.43000000000001,-19.471055522415,9.465826743905001,8.563134418055002,-203.31500000000005,-70.86450000000002,-136.92700000000002,15.5,True,1
3.4763190746307373,-5.804987627599999,3.5700913191999994,8.974281161299999,33.46,99.61000000000001,43.470000000000006,-19.729480363214996,9.583912539215001,8.944669981625001,-171.62600000000003,-54.033,-116.52550000000004,15.5,True,1
3.486433744430542,-7.4907311493,0.9032905314999999,9.2027957196,64.26,88.34,70.91000000000001,-19.586150289475004,9.156614243420002,9.159007066020003,-142.53400000000002,-37.863000000000014,-99.70450000000004,15.5,True,1
3.49642276763916,-8.6093757148,0.20458633229999998,10.555936899899999,108.85000000000001,79.66000000000001,108.08000000000001,-18.982381326930003,8.095935805404999,9.565727087455002,-122.83950000000004,-22.844500000000004,-82.23600000000003,15.5,True,1
3.5064573287963867,-9.5545406418,1.1234302106999998,11.6219393682,153.86,84.84,148.05,-17.799609115750002,6.978368010075,10.361161140260002,-100.85600000000005,-9.946999999999996,-59.80100000000003,15.5,True,1
3.5164172649383545,-9.9110712092,2.3174486881,12.452248810399999,205.52,93.80000000000001,173.25000000000003,-16.326766984885,5.982475243954999,11.307761760820004,-64.57499999999997,2.296000000000009,-31.22700000000001,15.5,True,1
3.5263872146606445,-9.617950440699998,3.0053851856,12.3038938092,260.26000000000005,110.74000000000001,185.08,-14.854941803624996,5.063751006684999,11.99091261312,-14.825999999999988,17.090500000000002,-0.8049999999999968,15.5,True,1
3.5365498065948486,-9.792626490499998,1.7970097725999998,10.8263258537,301.98,132.37,180.04000000000002,-13.374741743265,4.15166685213,12.117074184705002,37.611000000000004,35.6055,28.861,15.5,True,1
3.546525716781616,-10.640882102199999,0.09212367009999999,8.916853418899999,341.18,136.71,170.73000000000002,-11.913863725399999,3.3240493353549994,11.383733878370002,83.56950000000002,56.654500000000006,55.8495,15.5,True,1
3.556520700454712,-11.052447589400002,-2.6524438520999998,7.135396993199999,384.44000000000005,113.89000000000001,173.95000000000002,-10.504909957955,2.7248267357499993,9.81117086565,122.2585,73.99699999999999,78.84100000000002,15.5,True,1
3.5795822143554688,-4.9172504429999995,-2.8211378453999996,6.451049729599999,489.79,22.96,253.68000000000004,-9.029495542794999,2.3173290469699994,8.103413376029998,152.6175,85.1375,98.35350000000003,15.5,True,1
3.612992763519287,-0.2835494781,-3.4396824875,5.2079783889,524.1600000000001,29.820000000000004,272.86,-7.62496849716,2.482314165239999,6.503093621149999,166.7295,87.08,114.33800000000004,15.5,True,1
3.6329522132873535,1.3639088819999998,-1.7563317884,1.7359927962999997,484.61000000000007,38.92,267.33000000000004,-6.451109550165,2.8433312750149993,6.104688658249998,171.48250000000002,83.88799999999999,125.38400000000001,15.5,True,1
3.6468379497528076,2.356930261,-1.4536397294999999,0.12203395259999998,396.13000000000005,20.020000000000003,231.00000000000003,-5.72422986485,3.0305098228999996,6.560401722419999,176.68350000000004,77.833,131.23250000000002,15.5,True,1
3.6646218299865723,2.8307091357999994,-3.6047872469,3.5904303113,341.74,9.170000000000002,189.49,-5.266602542599999,2.76694041351,7.409853745419999,189.79100000000003,72.555,136.5455,15.5,True,1
3.6760497093200684,5.352744156199999,-6.3984076324,5.1577291142999995,363.02000000000004,17.85,191.31000000000003,-4.89392042265,2.2026530238649995,7.984071348854998,212.08950000000004,70.8295,143.346,15.5,True,1
3.696636199951172,9.700502820399999,-6.265605978099999,2.6536402634,375.90000000000003,33.25,214.27,-4.314797532885001,1.5628122606249997,7.957869941384999,236.13100000000003,70.938,152.16950000000003,15.5,True,1
3.7066211700439453,10.925627991599999,-4.9196432655999995,0.4211367776,345.1,31.990000000000002,203.84000000000003,-3.6563525739300005,0.9097511525199998,7.581179843579998,255.19900000000007,70.3745,159.8625,15.5,True,1
3.717150926589966,10.8299150876,-4.1778682596,-1.0025926694,269.57000000000005,24.78,174.58,-2.9820551652500003,0.1862812394099999,7.026882488289999,269.3285000000001,68.91499999999999,165.73200000000003,15.5,True,1
3.727402687072754,10.382457261399999,-4.4171505196,-0.6891329087999999,174.79000000000002,27.650000000000002,138.32000000000002,-2.3423938637049995,-0.6087340694399999,6.428377735464997,278.9920000000001,66.55600000000001,170.25400000000002,15.5,True,1
3.73751163482666,10.2508520184,-5.521438149499999,1.0923235168999998,105.63000000000001,35.14,101.29,-1.6419548681200002,-1.3357333958849997,5.912485182904999,285.44950000000006,63.50400000000002,174.02700000000002,15.5,True,1
3.747586250305176,9.9397850804,-7.095915420299999,3.3092736557999998,72.66000000000001,40.11000000000001,67.48,-0.9056235335349998,-1.9115063340099998,5.5497930973099985,288.64150000000006,60.25250000000001,176.48050000000003,15.5,True,1
3.757697343826294,9.802197780899998,-8.5746797871,5.134997299599999,70.21000000000001,42.07000000000001,49.63,-0.07226324252000058,-2.4255444490549998,5.304349319114998,289.66350000000006,57.51550000000001,176.74650000000003,15.5,True,1
3.7677161693573,9.9338030239,-8.5040915204,6.0981083961,102.27000000000001,41.790000000000006,47.32000000000001,0.8199006638900004,-2.876830791415,5.119025208744999,289.54100000000005,55.44000000000001,174.74450000000004,15.5,True,1
3.7778868675231934,10.687542142899998,-7.692924659,5.661418271599999,143.43,39.27,50.260000000000005,1.771705673605,-3.3198020752399997,4.865984218794998,289.1070000000001,53.50450000000002,170.709,15.5,True,1
3.7879836559295654,11.187642066299997,-6.6017975534,3.8548372086,179.13000000000002,35.0,47.74,2.80618270415,-3.7681572099149996,4.516691939759999,288.30550000000005,50.97400000000001,165.16500000000002,15.5,True,1
3.798037528991699,11.111071743099998,-6.0705909361999995,1.7371892076,199.85000000000002,29.540000000000003,31.92,3.85675146668,-4.203052717465,4.037469393545,286.482,47.60350000000001,158.17900000000003,15.5,True,1
3.8081374168395996,11.9306134836,-7.672585666899999,-0.7417750059999999,191.31000000000003,24.92,9.24,4.907858614295,-4.662175553839999,3.4672597679650003,282.562,43.081500000000005,150.06950000000003,15.5,True,1
3.8181920051574707,11.770294369399998,-9.619146851999998,-2.5208386090999992,124.39000000000001,13.650000000000002,-6.370000000000001,5.996832179554999,-5.1458248218649985,2.8875386725500003,274.932,37.17700000000001,141.40000000000003,15.5,True,1
3.828253984451294,11.090732751,-11.063215291099999,-2.5507488916,33.040000000000006,1.8200000000000003,-18.55,7.115596386184999,-5.607101198579999,2.3666211925300003,261.34850000000006,31.1255,132.209,15.5,True,1
3.838411808013916,10.395617785699999,-11.447263318400001,-1.4452648504,-31.150000000000002,-6.16,-13.580000000000002,8.14253602554,-5.997011641249999,2.0085352904400002,238.71050000000008,27.1565,120.50500000000002,15.5,True,1
3.8484396934509277,10.133603711,-11.0333050086,0.015553346899999999,-76.93,-13.510000000000002,-2.7300000000000004,8.847162460674998,-6.490471481934999,1.6944175036250002,210.79100000000008,25.826500000000003,107.10700000000001,15.5,True,1
3.8585045337677,10.1587283483,-9.8620183459,0.9212367009999999,-86.73,-20.930000000000003,6.300000000000001,9.334520603729999,-6.841199454529999,1.4950953810450003,180.38299999999998,23.299500000000002,93.352,15.5,True,1
3.8685173988342285,9.4971128994,-8.681160392799999,1.4380863825999999,-71.26,-26.110000000000003,9.38,9.762417105174999,-7.24259544568,1.5129817299800001,153.35250000000002,20.363000000000007,80.85,15.5,True,1
3.8784983158111572,8.8713897895,-8.3342011158,1.4560325521,-42.21,-28.840000000000003,5.11,10.099266706689999,-7.593562700535,1.5684952143,132.195,18.417000000000005,70.58449999999999,15.5,True,1
3.8885371685028076,7.9262248625,-8.1212399044,0.8685946038,-14.560000000000002,-35.910000000000004,2.87,10.341539994939998,-7.753283609085,1.399861041565,113.5365,16.439500000000006,61.537,15.5,True,1
3.898505926132202,7.099504654199999,-8.063812162,0.007178467799999999,5.670000000000001,-42.77,-1.4000000000000001,10.279326607339998,-7.811249736569998,1.2482159092899996,94.465,12.876500000000004,51.026500000000006,15.5,True,1
3.9084837436676025,6.3673009386,-8.0494552264,-0.047856451999999994,12.950000000000001,-45.64000000000001,-9.870000000000001,10.119785160484998,-7.92538737459,1.1647662211149996,76.62900000000002,8.988000000000008,40.23950000000001,15.5,True,1
3.9184377193450928,5.712863957499999,-8.171489179,0.17706887240000002,10.15,-44.03,-18.130000000000003,9.876794025454998,-8.109993638179999,1.1841480841749998,61.6875,5.327000000000005,29.82000000000001,15.5,True,1
3.928333282470703,4.925625322099999,-8.938388822299999,0.8159525066,3.2900000000000005,-36.75,-16.380000000000003,9.606105968829999,-8.31828884551,1.2602996634199999,50.98450000000002,2.005500000000004,20.964999999999996,15.5,True,1
3.938380241394043,4.2125641873,-9.320044027,0.873380249,-6.090000000000001,-32.480000000000004,16.73,9.327401956494999,-8.51270568176,1.2953545145099998,43.89000000000002,-1.2249999999999974,14.475999999999999,15.5,True,1
3.94838285446167,5.3228338737,-8.5124663995,2.0889341298,-8.96,-33.39,14.840000000000002,9.075437736715,-8.65471970307,1.2693325687349997,39.014500000000005,-4.711,10.4545,15.5,True,1
3.958369016647339,5.7332029496,-7.4021967130999995,2.6057838114,5.180000000000001,-32.620000000000005,25.62,8.848478513104999,-8.6632142233,1.1827123906149999,35.504000000000005,-8.449000000000002,8.630999999999998,15.5,True,1
3.968357563018799,5.827719442299999,-7.081558484699999,2.943171798,22.400000000000002,-30.1,26.53,8.651908136515,-8.593403623945001,1.029811026475,32.2035,-12.134500000000005,7.633500000000001,15.5,True,1
3.9782955646514893,5.5920264161999995,-7.0851477186,2.9515466770999996,31.360000000000003,-22.680000000000003,22.96,8.429495275845001,-8.54632483929,0.87649091838,27.551999999999992,-15.529499999999999,6.433000000000002,15.5,True,1
3.9884743690490723,5.473581697499999,-7.179664211299999,2.6656043763999993,35.63,-14.070000000000002,20.51,8.16096075956,-8.53890708923,0.764207717875,21.11200000000001,-18.350500000000004,5.029500000000001,15.5,True,1
3.9984591007232666,5.1314080657,-7.616354335799999,2.3796620756999998,36.400000000000006,-4.970000000000001,20.37,7.86472932168,-8.60985427932,0.742552673345,13.380499999999998,-20.496000000000002,3.9410000000000003,15.5,True,1
4.008581161499023,4.9328037898999995,-7.952545911099999,2.0327027987,35.77,2.24,24.71,7.544808940059999,-8.669375741495,0.8329415470599999,5.074999999999998,-22.001,3.8920000000000003,15.5,True,1
4.018574953079224,5.035695161699999,-7.971688491899999,1.7766707805,40.53,7.000000000000001,33.6,7.201319255829999,-8.642695769505,1.0072586734699998,-1.2845000000000009,-22.7115,5.222,15.5,True,1
4.031624794006348,5.6183474648,-7.471588568499999,1.3746765837,62.370000000000005,3.2900000000000005,43.75000000000001,6.898208452975,-8.505886137350002,1.2201002437399997,-3.2375000000000016,-22.837500000000002,7.861,15.5,True,1
4.041762590408325,5.9018969429,-7.1533431627,1.1353943237,77.49000000000001,1.8200000000000003,44.24,6.6467227977149985,-8.3042908333,1.3881960313899997,0.16099999999999995,-22.6625,11.042500000000002,15.5,True,1
4.0518364906311035,6.017948839,-7.196413969499999,0.8362914986999999,83.16000000000001,4.970000000000001,41.580000000000005,6.4354963827,-8.095995625970001,1.4781063405849995,7.111999999999997,-22.0255,13.636000000000001,15.5,True,1
4.06191611289978,5.894718475099999,-7.570890706399998,0.2883351233,77.98,8.89,37.1,6.225825302374998,-7.94153892714,1.4830714474799997,15.526000000000005,-20.888,15.491000000000003,15.5,True,1
4.071993112564087,5.876772305599999,-7.954938733699999,-0.31226334929999994,66.99000000000001,13.440000000000001,34.580000000000005,6.013940861144998,-7.857730315575,1.4275579631599997,23.254000000000005,-19.1415,16.8945,15.5,True,1
4.082059860229492,5.795416337199999,-8.159525065999999,-0.5635097223,45.78,15.96,34.300000000000004,5.836034500834999,-7.823632593525001,1.3167702767799998,29.291500000000003,-17.038,18.217500000000005,15.5,True,1
4.092730522155762,5.761916820800001,-8.003991596999999,-0.9774680320999999,21.840000000000003,17.990000000000002,34.510000000000005,5.69886594529,-7.81687286968,1.2175877800099997,31.675000000000004,-14.623,19.733000000000004,15.5,True,1
4.102733612060547,5.9641103305,-7.5625158272999995,-0.9272187574999999,3.22,16.73,32.13,5.614040384119999,-7.805566782894999,1.1348559386149997,32.43100000000001,-11.812499999999996,21.392000000000003,15.5,True,1
4.1127283573150635,5.893522063799999,-7.366304374099999,-0.4821537538999999,-7.700000000000001,14.21,27.860000000000003,5.563850930085,-7.779664478249998,1.0919047729449995,31.731000000000005,-8.764000000000003,23.086000000000002,15.5,True,1
4.122841119766235,5.854040490899999,-7.2227350181,-0.17706887240000002,-4.83,11.06,24.64,5.552365381604999,-7.737849903314998,1.0770692728249995,30.6915,-5.841500000000002,25.098500000000005,15.5,True,1
4.132807970046997,5.9198431124,-7.082754895999999,-0.14356935599999998,3.43,9.450000000000001,19.880000000000003,5.602255732814999,-7.6697741003449975,1.0502696597049996,30.282,-3.2550000000000003,27.223000000000006,15.5,True,1
4.142798900604248,6.128018678599999,-7.027719976199999,-0.37328032559999996,8.540000000000001,6.720000000000001,15.47,5.666981584145,-7.583512845614999,1.0024730282699994,30.562,-1.169000000000001,28.64050000000001,15.5,True,1
4.15273380279541,5.9282179914999995,-7.217949372899999,-0.5312066172,7.98,4.83,9.8,5.717470141005,-7.485766042404999,0.8924031886699997,31.514000000000003,0.7209999999999992,28.969500000000004,15.5,True,1
4.16271448135376,5.602794117899999,-7.6067830453999985,-0.9224331122999999,4.0600000000000005,4.970000000000001,4.760000000000001,5.72805838101,-7.45268526996,0.7413562620449996,32.0075,2.6075000000000004,28.276500000000006,15.5,True,1
4.172794342041016,5.5908300049,-7.847261716699999,-1.4488540842999997,-2.3800000000000003,1.8200000000000003,2.9400000000000004,5.7130434191949995,-7.484928554494999,0.5368895708749999,31.42300000000001,4.4205000000000005,27.128500000000003,15.5,True,1
4.182820081710815,5.3431728658,-8.0410803473,-1.6498511827,-10.360000000000001,0.21000000000000002,1.33,5.6977891751200005,-7.529255593159999,0.310049988395,29.774500000000007,5.8065000000000015,25.977000000000004,15.5,True,1
4.192867994308472,5.379065204799999,-8.446663778,-1.9992032822999997,-17.01,-2.45,0.6300000000000001,5.6796037233600005,-7.581000381885,0.08476574060499996,27.363,6.678,24.944500000000005,15.5,True,1
4.202837705612183,5.5716874241,-7.3746792532,-1.2035897677999998,-31.92,-7.3500000000000005,4.0600000000000005,5.688337525850001,-7.6162945152349995,-0.11694920457499994,24.608499999999992,7.0875,24.020500000000006,15.5,True,1
4.212773561477661,5.513063270399999,-7.7240313528,-0.7417750059999999,-30.380000000000003,0.0,3.6400000000000006,5.70748010665,-7.633941581910003,-0.27996024419999993,21.91,6.881,23.219000000000005,15.5,True,1
4.222736358642578,5.7367921834999995,-7.527819899599999,-0.7992027483999999,-22.05,0.21000000000000002,7.420000000000001,5.7397233911850005,-7.621498904390002,-0.4079164327349999,18.7635,6.699,22.039500000000007,15.5,True,1
4.232722520828247,5.6482577473,-6.7657059015,-1.4009976322999997,-10.850000000000001,-1.61,5.040000000000001,5.767001568825,-7.6036125554549985,-0.5318646434149998,15.469999999999999,6.366500000000001,20.489000000000008,15.5,True,1
4.242722034454346,5.8480584343999995,-7.255038123199999,-1.4620146085999999,-5.74,-3.5000000000000004,1.12,5.78070047821,-7.604509863929998,-0.647796898385,11.563999999999998,6.111000000000001,18.427500000000006,15.5,True,1
4.252786874771118,5.662614682899998,-7.7874411516999995,-1.2634103328,-2.24,-5.880000000000001,-0.28,5.776333576965,-7.620900698739999,-0.761575613015,7.353500000000004,5.764500000000001,16.271500000000007,15.5,True,1
4.262717962265015,5.8707902491,-8.0662049846,-1.3100703735,-13.23,-9.030000000000001,2.5200000000000005,5.752345530400001,-7.662655453109998,-0.8562117468450001,3.055500000000002,5.089000000000001,14.290500000000005,15.5,True,1
4.2726826667785645,5.4053862534,-8.257630792599999,-1.0540383553,-21.14,-3.99,1.9600000000000002,5.731468153215,-7.690472015834997,-0.9105288198650001,-1.5469999999999986,4.165000000000002,12.603500000000002,15.5,True,1
4.282644510269165,5.8683974265,-8.338986761,-0.6783652070999998,-38.64,-1.6800000000000002,5.6000000000000005,5.71609426801,-7.705247695389997,-0.9310472736600002,-5.894000000000001,3.2935000000000016,11.130000000000004,15.5,True,1
4.292656421661377,6.090929928299999,-8.111668614,-0.45822552789999993,-51.17,2.1700000000000004,5.6000000000000005,5.723990582589999,-7.712904727709997,-0.9241679086849999,-9.065000000000001,2.4010000000000007,9.684500000000003,15.5,False,1
4.302659034729004,6.319444486599999,-7.8006016759999985,-0.0729810893,-59.43000000000001,5.74,3.2900000000000005,5.7412787258749995,-7.719425169294998,-0.8878568257299998,-12.491500000000002,1.687,8.214500000000001,15.5,False,1
4.312709093093872,6.190232066199998,-7.858029418399998,0.2703889538,-51.52,8.190000000000001,4.69,5.760540947805,-7.737610621054998,-0.8449056600599999,-15.214500000000005,1.2600000000000005,6.894999999999999,15.5,False,1
4.3227269649505615,6.088537105699999,-7.802994498599999,0.4342973019,-36.260000000000005,6.720000000000001,7.490000000000001,5.775196986229999,-7.767461082989998,-0.8131409400449998,-17.125500000000002,0.9835000000000005,5.859,15.5,False,1
4.332899570465088,5.952146217499998,-7.663014376499999,0.31465617189999995,-17.78,4.48,8.89,5.787340560924999,-7.801020419954999,-0.7830511958499997,-18.508000000000003,0.791,5.151999999999999,15.5,False,1
4.342925548553467,5.849254845699999,-7.586444053299999,0.2979064137,-7.3500000000000005,3.43,10.080000000000002,5.782375454029999,-7.835776168219999,-0.7536792984349997,-19.456500000000002,0.5740000000000001,4.732000000000001,15.5,False,1
4.352927207946777,5.8480584343999995,-7.555337359499999,0.14356935599999998,-1.9600000000000002,3.7800000000000002,9.170000000000002,5.764130181705,-7.86269542247,-0.716111983615,-20.058500000000002,0.476,4.55,15.5,False,1
4.3629021644592285,5.913861055899999,-7.527819899599999,0.1363908882,-2.9400000000000004,6.510000000000001,9.8,5.7726845225000005,-7.872087251174999,-0.676271487325,-20.433,0.46550000000000014,4.6585,15.5,False,1
4.372936964035034,6.3984076324,-7.3627151402,0.0646062102,-5.180000000000001,9.73,10.64,5.792844052905001,-7.855756236929999,-0.607836760965,-20.709500000000002,0.6825000000000002,4.977,15.5,False,1
4.382944822311401,6.2715880346,-7.288537639599999,-0.0849452023,-7.98,14.280000000000001,8.4,5.828975674165001,-7.819265692279998,-0.53012984703,-20.821500000000007,1.2425000000000002,5.348000000000001,15.5,False,1
4.392999649047852,6.4582281973999995,-7.286144816999999,-0.06580262149999999,-9.31,16.520000000000003,7.07,5.885446287525,-7.7766136294349995,-0.45272203591999993,-20.482000000000006,2.1105000000000005,5.6385000000000005,15.5,False,1
4.402954578399658,6.484549246,-7.038487677899999,-0.1268195978,-6.44,18.41,4.0600000000000005,5.932584892745,-7.736653492015,-0.380757896225,-20.034000000000002,3.0905,5.859000000000001,15.5,False,1
4.412962198257446,6.7274207398999994,-6.593422674299999,-0.32662028489999995,2.5200000000000005,15.750000000000002,-0.14,5.995336665430001,-7.676713285884999,-0.3436691459250001,-19.271,4.256,5.670000000000002,15.5,False,1
4.425681114196777,6.9236321930999996,-6.081358637899999,-0.3613162126,6.370000000000001,14.910000000000002,-10.430000000000001,6.058088438115001,-7.604390222799999,-0.3239881800400001,-17.720500000000005,4.865,5.229000000000001,15.5,False,1
4.435887813568115,6.8327049343,-6.043073476299999,-0.5994020613,9.030000000000001,16.520000000000003,-22.19,6.11677241238,-7.535417111355,-0.3019742121200001,-16.471000000000004,5.67,4.081000000000001,15.5,False,1
4.445970773696899,6.6185473115999995,-6.293123438,-0.6436692794,8.4,14.910000000000002,-32.2,6.153083495334999,-7.476434034265,-0.27948167968,-15.582000000000004,6.639500000000001,2.565500000000001,15.5,False,1
4.4560706615448,6.278766502399999,-6.6472611827999994,-0.6699903279999999,3.22,10.850000000000001,-37.660000000000004,6.1823955721849995,-7.426902606445,-0.25010978226499997,-15.120000000000005,7.455,0.8155000000000012,15.5,False,1
4.4665915966033936,6.050251944099999,-7.3686971966999995,-0.5455635528,2.5900000000000003,9.030000000000001,-37.800000000000004,6.21619419141,-7.374619432635001,-0.21601206021499997,-14.875000000000005,8.281,-1.0744999999999987,15.5,False,1
4.476617097854614,5.994020612999999,-7.542176835199999,-0.32901310749999996,-1.1900000000000002,8.680000000000001,-33.88,6.246403576734999,-7.332745037135,-0.19178473139,-13.842500000000005,9.061499999999999,-3.006499999999999,15.5,False,1
4.486610174179077,6.113661743,-7.262216591,-0.1304088317,-12.88,14.14,-34.160000000000004,6.267879159569999,-7.284828764569999,-0.15625131577999998,-12.852000000000004,9.73,-4.927999999999999,15.5,False,1
4.496525049209595,6.011966782499999,-6.6843499331,-0.0538385085,-20.51,21.42,-41.230000000000004,6.279663810875,-7.222435915274998,-0.13022937000499998,-11.434500000000002,10.633,-7.055999999999999,15.5,False,1
4.506540775299072,5.971288798299999,-6.502495415499999,0.179461695,-22.680000000000003,27.020000000000003,-53.760000000000005,6.26752023618,-7.152266392529998,-0.11312068841499998,-9.719500000000002,11.6865,-9.5865,15.5,False,1
4.5165276527404785,5.5944192388,-6.7010996913,0.1268195978,-23.17,29.540000000000003,-65.10000000000001,6.239464391195001,-7.094539547304999,-0.10965109564499997,-7.945000000000002,12.743500000000001,-12.690999999999999,15.5,False,1
4.526529550552368,5.118247541399999,-7.2586273571,-0.16151552549999998,-23.240000000000002,28.490000000000002,-76.37,6.19286417106,-7.049255379600001,-0.12490533971999998,-6.835500000000001,13.818000000000001,-16.4745,15.5,False,1
4.536502361297607,4.832305240699999,-7.323233567299999,-0.5024927459999999,-21.770000000000003,25.060000000000002,-83.65,6.138427456910001,-7.021079893485,-0.16522440052999995,-6.541500000000001,14.854000000000003,-20.86,15.5,False,1
4.546466112136841,4.3441694303,-7.2263242519999995,-0.46301117309999995,-31.080000000000002,21.630000000000003,-94.43,6.077829224565001,-6.995536512229999,-0.19878373749499995,-7.196000000000001,15.792000000000002,-25.690000000000005,15.5,False,1
4.55645489692688,3.8045879339999993,-7.5900332872,-0.2608176634,-40.25000000000001,19.110000000000003,-103.74000000000001,6.0005410545850015,-6.987041991999999,-0.22965114903499995,-8.711500000000001,16.709000000000007,-31.195500000000003,15.5,False,1
4.566403865814209,3.0759734523,-8.4646099475,0.20937197749999997,-43.470000000000006,16.66,-104.37,5.88598467261,-7.003971211894999,-0.2384447720899999,-10.783500000000002,17.381000000000004,-36.914500000000004,15.5,False,1
4.576342582702637,2.6931218363,-8.6572321668,0.8279166196,-39.620000000000005,15.330000000000002,-93.10000000000001,5.73739038915,-7.06373195633,-0.22019949976499992,-12.638500000000002,17.752000000000002,-42.43050000000001,15.5,False,1
4.586300373077393,2.4000010678,-8.391628858199999,1.1712866627,-40.32000000000001,14.21,-86.38000000000001,5.55314304895,-7.127381037489999,-0.1701296868599999,-14.161000000000001,17.860500000000005,-47.344500000000004,15.5,False,1
4.596273183822632,2.4083759468999997,-7.6881390138,1.2861421475,-41.02,22.750000000000004,-91.7,5.358965494960001,-7.1590859369399995,-0.09326026083499991,-15.841,17.906000000000002,-52.076499999999996,15.5,False,1
4.606220006942749,2.1726829208,-8.829515394,1.4991033588999996,-49.35,30.800000000000004,-95.06,5.151926519495,-7.209933417189999,-0.03218346396999994,-17.535,18.361,-57.116499999999995,15.5,False,1
4.616255044937134,1.7060825138,-8.889335959,0.8650053699,-57.68000000000001,35.910000000000004,-91.42,4.92395034628,-7.322515720519999,0.05826523031000006,-20.069000000000003,19.1065,-61.866,15.5,False,1
4.626299619674683,1.8855442087999998,-9.1190469286,1.0205388389,-59.080000000000005,34.93000000000001,-85.82000000000001,4.684129701194999,-7.4733831854499995,0.133698962775,-23.037000000000003,20.216,-66.094,15.5,False,1
4.636286735534668,1.8652052167,-9.534201649699998,1.2634103328,-67.83000000000001,31.640000000000004,-78.26,4.423910243444999,-7.636812969029998,0.20901305411,-26.512500000000006,21.1295,-69.45399999999998,15.5,False,1
4.646250486373901,2.0925233637,-9.487541608999999,1.423729447,-72.17,30.240000000000002,-68.53,4.173620999484999,-7.8026953957749985,0.303469726245,-30.516500000000008,21.836500000000004,-71.862,15.5,False,1
4.656268358230591,2.6177479243999993,-8.5579300289,1.9010975556999998,-68.11,34.510000000000005,-64.4,3.966282921194999,-7.922874910859998,0.41802610821999997,-34.380500000000005,22.771000000000004,-73.34249999999999,15.5,False,1
4.66625714302063,2.9467610318999995,-8.099704500999998,1.9034903783,-60.410000000000004,41.720000000000006,-69.65,3.7953157464249996,-7.9809606794749985,0.546819784665,-37.6845,24.195500000000003,-74.75299999999999,15.5,False,1
4.6763598918914795,3.4815568829999997,-8.2636128491,1.4763715442,-44.870000000000005,45.57000000000001,-76.65,3.65431867472,-8.016254812824998,0.6609574226849999,-40.57900000000001,25.945500000000003,-76.5975,15.5,False,1
4.686342000961304,3.4911281733999995,-9.0137627342,1.0851450490999999,-28.28,42.77,-77.84,3.529114232175,-8.070153141889998,0.73507510272,-42.10850000000001,27.678000000000008,-78.84450000000001,15.5,False,1
4.709800481796265,3.190828937099999,-9.594022214699999,0.41515472109999996,22.330000000000002,27.930000000000003,-57.050000000000004,3.38692074917,-8.202057487714999,0.7716852885,-40.81000000000001,28.38150000000001,-80.059,15.5,False,1
4.730353832244873,3.553341561,-9.8057870148,-0.28713871199999996,40.88,20.650000000000002,-49.56,3.25411909487,-8.357291853889999,0.771266544545,-37.884,28.273000000000007,-80.318,15.5,False,1
4.749764680862427,3.6454652310999993,-10.248459195799999,-0.6807580296999999,56.00000000000001,15.680000000000001,-40.74,3.1534410839749993,-8.530113466174999,0.7365107962799998,-34.19500000000001,27.702500000000008,-79.63900000000004,15.5,False,1
4.766760349273682,3.6382867632999996,-10.6815600864,-1.1018948073,60.13,17.150000000000002,-31.570000000000004,3.060539746529999,-8.705148439364999,0.6934399894799997,-30.037,27.055,-77.92050000000003,15.5,False,1
4.783230304718018,3.8021951113999997,-10.5714902468,-1.3806586402,52.290000000000006,16.520000000000003,-19.810000000000002,2.9920451996049993,-8.876115614134998,0.6492924125099998,-26.127499999999998,26.53000000000001,-75.17300000000003,15.5,False,1
4.799211740493774,4.0785661217,-10.326225930299998,-1.3698909385,52.220000000000006,11.13,-12.110000000000001,2.952683267834999,-9.03422136743,0.5928217991499998,-22.281,26.099500000000006,-71.56450000000001,15.5,False,1
4.813316583633423,4.0354953148999995,-10.608578997099997,-1.3782658175999998,66.29,2.0300000000000002,-1.4000000000000001,2.948735110544999,-9.180123725465002,0.5415555749449997,-17.846500000000006,25.466,-67.02500000000002,15.5,False,1
4.831326484680176,4.2508493489,-10.182656574299997,-1.6067803759,66.36,-1.12,2.9400000000000004,2.978944495869999,-9.31310484146,0.46618166304499986,-12.3165,24.587500000000002,-61.750500000000024,15.5,False,1
4.841383218765259,4.415954108299999,-9.8201439504,-1.5780665047,58.940000000000005,-1.12,2.5200000000000005,3.0463622726249993,-9.379505668609998,0.36352957350499976,-7.069999999999991,23.723000000000006,-56.58450000000001,15.5,False,1
4.851398944854736,4.558327053,-9.5868437469,-1.7132609816,54.53000000000001,-2.1700000000000004,2.24,3.1413573298449995,-9.44243690299,0.23455643536499987,-2.29949999999999,22.967000000000002,-52.0345,15.5,False,1
4.8616907596588135,4.8179483051,-9.475577496,-1.7539389658,51.17,-6.300000000000001,2.31,3.2517262722699996,-9.527800849245,0.07842476071499985,2.3799999999999986,21.927500000000002,-47.5335,15.5,False,1
4.871789455413818,4.9758745967,-9.4097748745,-1.5948162628999998,50.330000000000005,-9.66,2.8000000000000003,3.379981563629999,-9.586305361814999,-0.06741777675500012,7.097999999999997,20.237000000000002,-42.637,15.5,False,1
4.8843994140625,4.8909293944,-9.725627457699998,-1.4093725114,53.970000000000006,-15.750000000000002,2.9400000000000004,3.518765274429999,-9.604909557529998,-0.2158924190850001,12.365499999999999,17.930500000000002,-37.834999999999994,15.5,False,1
4.894444227218628,4.640879432699999,-10.164710404799997,-1.2526426310999998,60.760000000000005,-19.32,6.090000000000001,3.661975707039999,-9.63314486421,-0.3448655572250001,17.9305,15.246000000000004,-33.201,15.5,False,1
4.904985189437866,4.1802610821999995,-10.542776375599999,-1.3256237203999999,74.13000000000001,-23.8,13.370000000000001,3.79956300654,-9.689675298134999,-0.45690947547,24.314500000000002,12.502,-28.549499999999995,15.5,False,1
4.91489577293396,4.030709669699999,-10.6612210943,-1.8329021115999997,84.42,-27.090000000000003,21.000000000000004,3.90831679371,-9.749615504265,-0.59832529113,31.843,9.7055,-23.981999999999996,15.5,False,1
4.924809694290161,4.0271204358,-10.0582297991,-2.2695922361,84.7,-30.310000000000002,21.700000000000003,3.999543155335,-9.821878746784998,-0.7804789115550002,39.697,6.741,-19.621000000000002,15.5,False,1
4.934658527374268,4.0331024923,-9.771091087099999,-2.5639094158999995,76.37,-28.35,0.14,4.06672164983,-9.899884763545,-0.99708917742,46.9945,3.367000000000002,-15.298500000000004,15.5,False,1
4.944511413574219,4.0761732991,-9.5545406418,-2.9479574431999995,62.230000000000004,-24.430000000000003,12.950000000000001,4.10955317437,-9.976096163354999,-1.2252448123300002,53.291,-0.13649999999999968,-10.85,15.5,False,1
4.954394340515137,3.7328032559999995,-9.674181771799999,-3.1046873234999994,48.650000000000006,-19.53,10.290000000000001,4.132225168505,-10.032806058975002,-1.43401858418,57.90400000000001,-3.5209999999999995,-6.338500000000001,15.5,False,1
4.964348077774048,3.3786655112,-9.991230766299998,-3.2733813167999997,42.77,-17.430000000000003,10.99,4.141916100034999,-10.038788115474999,-1.62257300506,59.692499999999995,-5.988500000000001,-2.7790000000000026,15.5,False,1
4.974358081817627,3.1202406704,-10.290333591299998,-3.5306097462999997,38.64,-19.67,12.39,4.13563494071,-10.063912752775,-1.790848254405,59.90599999999999,-8.0045,0.35699999999999976,15.5,False,1
4.984318733215332,2.901297402499999,-10.570293835499998,-3.717249909099999,32.06,-25.270000000000003,14.910000000000002,4.097708702499999,-10.083533898094998,-1.9450058504099996,59.220000000000006,-9.9435,3.2900000000000005,15.5,False,1
4.994330644607544,2.6285156261,-10.4374921812,-3.5461630931999997,24.150000000000002,-30.1,14.070000000000002,4.068336805085,-10.08861864612,-2.090549285055,57.673,-12.134500000000001,5.831000000000001,15.5,False,1
5.0042994022369385,2.4813570361999995,-9.9936235889,-3.2219356309,16.94,-33.11000000000001,11.690000000000001,4.010430498164999,-10.061579750739998,-2.1976280964049995,55.99300000000001,-14.542499999999999,7.703500000000001,15.5,False,1
5.01431941986084,2.1798613885999996,-9.7974121357,-3.0436703471999995,15.330000000000002,-34.300000000000004,9.870000000000001,3.9297325559800003,-10.041061296944997,-2.2808983228849997,54.21500000000001,-16.919,8.96,15.5,False,1
5.024378061294556,1.8472590472,-9.828518829499998,-2.6141586904999996,15.610000000000001,-34.160000000000004,12.250000000000002,3.8267813636149994,-10.013842939869999,-2.3561525936549996,52.223500000000016,-19.0855,9.975,15.5,False,1
5.034499883651733,1.6701901747999999,-9.8057870148,-2.4753749797,21.42,-31.220000000000002,18.130000000000003,3.7019956650249997,-9.976694369005,-2.4058634831699997,49.68950000000001,-20.755000000000003,10.696,15.5,False,1
5.044445037841797,1.6019947307,-9.576076045199999,-2.7613172804,25.62,-26.880000000000003,22.470000000000002,3.566741367559999,-9.961499945495,-2.454019037995,47.69450000000001,-22.151500000000002,11.557,15.5,False,1
5.054417610168457,1.5972090855,-9.378668180699998,-3.2733813167999997,24.500000000000004,-24.150000000000002,22.610000000000003,3.4253255518999994,-9.94732247159,-2.5227528671800004,46.12650000000001,-23.3345,12.593,15.5,False,1
5.064401388168335,1.8197415872999996,-9.142975154599998,-3.9637106368999997,19.6,-27.020000000000003,19.250000000000004,3.2745777280999997,-9.933444100510002,-2.6157140251900004,44.65650000000001,-24.374000000000002,13.5695,15.5,False,1
5.07444429397583,1.9322042495,-9.0436730167,-4.088137412099999,10.15,-31.640000000000004,12.670000000000002,3.1232316986499997,-9.91190869711,-2.7317061007250003,42.959,-25.427500000000002,14.234500000000002,15.5,False,1
5.084419012069702,1.7312071510999998,-9.108279226899999,-3.5341989802,0.56,-38.85,9.38,2.9714669252449992,-9.88869831789,-2.85415879728,40.656,-26.5055,14.644,15.5,False,1
5.094501972198486,1.4799607781,-9.049655073199999,-2.620140747,-5.53,-40.81,8.260000000000002,2.7986453129599993,-9.843055226795,-2.9486154694150004,37.737,-27.657000000000004,14.895999999999997,15.5,False,1
5.104491710662842,1.1054840412,-8.315058534999999,-2.1535403399999997,-0.9100000000000001,-38.150000000000006,6.44,2.6255844184149995,-9.770851804840003,-3.0025137984800003,34.4645,-28.560000000000002,14.728,15.5,False,1
5.114468574523926,1.0803594039,-8.5363946255,-1.4931213023999999,-1.7500000000000002,-29.820000000000004,0.9100000000000001,2.487039989875,-9.67143002581,-3.015375219955,30.302999999999997,-29.053500000000003,14.161000000000001,15.5,False,1
5.124497413635254,1.2717852119,-8.7146599092,-1.5996019081,-2.8000000000000003,-20.580000000000002,1.33,2.3462822004299992,-9.584869668255,-2.9905496854800004,25.857999999999997,-28.938000000000006,13.0725,15.5,False,1
5.1344873905181885,1.4261222696,-8.894121604199999,-1.6845471104,0.14,-14.840000000000002,1.8900000000000001,2.2075583101949996,-9.534740034784999,-2.9503502658,21.706999999999997,-28.325500000000005,12.1065,15.5,False,1
5.144521236419678,1.495514125,-8.8163548697,-1.9298114268999997,-1.7500000000000002,-12.530000000000001,1.2600000000000002,2.0732013212049996,-9.495258461884998,-2.8973492452100005,18.1265,-27.6815,11.473000000000003,15.5,False,1
5.154584169387817,1.5481562222,-8.907282128499999,-2.2277178405999996,-7.490000000000001,-11.48,-1.4700000000000002,1.9517057536899998,-9.457631326499998,-2.8501508194250005,15.231999999999996,-27.142500000000002,10.853500000000002,15.5,False,1
5.164600849151611,1.4620146085999999,-8.997012975999999,-2.1152551784,-16.1,-11.13,-7.490000000000001,1.84893402302,-9.419525626594998,-2.7996622625650005,12.424999999999999,-26.799500000000002,10.143,15.5,False,1
5.174638509750366,1.2825529135999998,-9.1824567275,-1.8376877567999998,-28.000000000000004,-9.73,-11.270000000000001,1.7584255081750002,-9.366046041484998,-2.7299114837750005,9.348500000000003,-26.442499999999995,9.107000000000001,15.5,False,1
5.18465256690979,1.0420742422999998,-9.553344230499999,-1.3543375915999998,-36.96,-6.23,-13.370000000000001,1.668455378415,-9.306584399874998,-2.6286950877950006,5.887000000000002,-25.7705,7.7875,15.5,False,1
5.194711208343506,0.8805587167999999,-9.678967416999999,-0.7764709337,-37.17,-2.45,-11.13,1.5781861458299997,-9.261539514430002,-2.4980469738350006,2.5445000000000015,-24.6085,6.425999999999999,15.5,False,1
5.2047131061553955,1.0360921857999998,-9.518648302799999,-0.3038884702,-37.52,0.7000000000000001,-10.22,1.496291792345,-9.234919363005002,-2.3587248779500003,-0.41649999999999887,-23.1,5.257000000000001,15.5,False,1
5.215024948120117,1.2035897677999998,-9.615557618099999,-0.0538385085,-38.36000000000001,6.930000000000001,-11.200000000000001,1.4296516829350001,-9.20901705836,-2.214377854605,-3.125500000000001,-21.273,4.200000000000003,15.5,False,1
5.225027799606323,1.4021940436,-9.8093762487,-0.3278166962,-35.49,10.64,-10.57,1.3868799789600001,-9.205667106720002,-2.0784057103599993,-5.663000000000001,-19.057499999999997,3.073000000000002,15.5,False,1
5.2349207401275635,1.5110674718999997,-10.106086251099997,-0.4295116567,-31.150000000000002,9.590000000000002,-9.450000000000001,1.370190041325,-9.21894727215,-1.9651055602499994,-8.232000000000003,-16.9015,1.8445000000000007,15.5,False,1
5.244815349578857,1.7826528369999999,-9.771091087099999,-0.3493520996,-31.290000000000003,7.280000000000001,-10.99,1.37072842641,-9.233663131140002,-1.8608383154549997,-10.944500000000001,-15.018499999999998,0.3395000000000003,15.5,False,1
5.254766225814819,1.6905291668999998,-9.865607579799999,-0.20219350969999997,-28.35,5.6000000000000005,-13.440000000000001,1.3752747893500001,-9.25842884505,-1.7278571994599996,-13.783000000000001,-13.488999999999999,-1.4349999999999998,15.5,False,1
5.264732122421265,1.7754743692000001,-9.9493563708,0.0394815729,-24.85,6.510000000000001,-14.910000000000002,1.3788640232499998,-9.289954282804999,-1.5538989964399996,-16.31,-12.004999999999999,-3.244500000000001,15.5,False,1
5.277853012084961,1.6426727148999998,-10.127621654499999,0.34337004309999997,-22.400000000000002,11.200000000000001,-12.950000000000001,1.371027529235,-9.346125793339999,-1.33579321645,-18.308500000000002,-10.146500000000001,-4.7705,15.5,False,1
5.287897825241089,1.7312071510999998,-10.1419785901,0.32542387359999997,-26.6,18.55,-10.290000000000001,1.3606785714899998,-9.394400989294999,-1.113679458605,-19.768,-7.6930000000000005,-5.88,15.5,False,1
5.297901630401611,1.8269200550999998,-10.125228831899998,0.19381863059999999,-33.040000000000006,25.970000000000002,-6.0200000000000005,1.377248867995,-9.448718062315,-0.9399007172799999,-21.1085,-4.585000000000001,-6.7655,15.5,False,1
5.3079633712768555,2.0099709839999997,-9.936195846499999,-0.0191425808,-39.900000000000006,34.300000000000004,-3.9200000000000004,1.41511528564,-9.49878787522,-0.8217551014050001,-22.9495,-1.1550000000000007,-7.342999999999999,15.5,False,1
5.317978382110596,2.2396819535999994,-9.753144917599998,-0.1483550012,-42.42,39.690000000000005,-2.3800000000000003,1.459083400915,-9.55896736361,-0.7332804857699999,-24.853500000000004,2.4604999999999992,-7.784000000000001,15.5,False,1
5.328061103820801,2.4598216327999998,-9.4935236655,-0.15912270289999997,-42.56,44.24,-1.8200000000000003,1.51154603642,-9.611848743069997,-0.66221365455,-26.851999999999997,5.841500000000001,-7.906499999999999,15.5,False,1
5.338353872299194,2.5280170769,-9.4564349152,-0.34337004309999997,-39.34,45.64000000000001,-2.1700000000000004,1.5712469602899999,-9.6394858441,-0.5944369544050001,-28.8645,8.9635,-8.074499999999999,15.5,False,1
5.348616600036621,2.853440950499999,-9.436095923099998,-0.6053841178,-33.74,42.84,-1.8200000000000003,1.634596938625,-9.670472896769999,-0.531146796635,-30.674000000000007,11.8755,-8.33,15.5,False,1
5.358860492706299,3.6789647475,-9.786644434,-0.9212367009999999,-27.650000000000002,42.42,-1.4700000000000002,1.7041084351550002,-9.701160846614998,-0.4634299170549999,-32.063500000000005,14.581,-8.4,15.5,False,1
5.369136333465576,3.1046873234999994,-9.2745803976,-0.8075776274999998,-19.040000000000003,39.550000000000004,-3.9200000000000004,1.7674584134900002,-9.729216691599998,-0.4069593036949999,-32.61300000000001,17.157000000000004,-8.347499999999998,15.5,False,1
5.379486322402954,3.2841490184999995,-9.3020978575,-1.1102696864,-15.190000000000001,38.92,-4.9,1.86173562393,-9.746803937709998,-0.356949311355,-32.522000000000006,19.649000000000004,-8.105999999999998,15.5,False,1
5.389862060546875,3.4121650276,-9.1956172518,-1.3363914221,-13.440000000000001,38.64,-4.130000000000001,1.97013048771,-9.750333351044999,-0.33571301078,-31.591,21.990500000000004,-7.713999999999997,15.5,False,1
5.400241851806641,3.5760733757,-9.3774717694,-1.4428720278,-15.400000000000002,38.080000000000005,-2.9400000000000004,2.097009906075,-9.738608520304998,-0.34821550886499997,-30.394000000000005,24.115000000000002,-7.311499999999998,15.5,False,1
5.410558700561523,3.8045879339999993,-9.188438783999999,-1.2263215824999998,-21.07,38.010000000000005,-1.6800000000000002,2.23920338908,-9.727481895214998,-0.386979234985,-29.449000000000012,26.075,-6.93,15.5,False,1
5.42077374458313,3.8691941441999997,-9.1142612834,-1.1736794852999999,-24.500000000000004,39.2,-1.2600000000000002,2.3813968720849994,-9.698468921189999,-0.432562505515,-28.65800000000001,27.884500000000003,-6.4575000000000005,15.5,False,1
5.431063175201416,4.3178483817,-9.019744790699999,-1.3842478741,-27.860000000000003,37.45,0.49000000000000005,2.523769816785,-9.664311378574999,-0.48586262892999993,-28.182000000000006,29.326500000000003,-5.897500000000001,15.5,False,1
5.441416263580322,4.7509492723,-8.8067835793,-1.387837108,-27.160000000000004,34.02,0.28,2.681696108385,-9.60682381561,-0.5432305507649999,-27.860000000000003,30.607500000000005,-5.379500000000001,15.5,False,1
5.4515321254730225,4.9543391933,-8.554340795,-1.3770694062999997,-19.740000000000002,29.750000000000004,1.54,2.8413571963699997,-9.542038143715,-0.5898307708999999,-27.587,31.8045,-4.830000000000001,15.5,False,1
5.462162971496582,5.2390850827,-8.2863446638,-1.5014961814999999,-12.950000000000001,24.080000000000002,0.35000000000000003,3.01387970583,-9.465707102774997,-0.64450676731,-26.883500000000005,32.8965,-4.147500000000001,15.5,False,1
5.472615718841553,5.464010407099999,-8.176274824199998,-1.4500504955999998,-7.98,19.740000000000002,-1.1900000000000002,3.1964520702099994,-9.378967283524998,-0.7119843646299999,-26.040000000000003,33.764500000000005,-3.4510000000000005,15.5,False,1
5.482807636260986,5.4819565766,-8.1344004287,-1.3328021881999996,-4.62,15.05,-1.61,3.3885957249899996,-9.277691066980001,-0.7965108229749999,-25.189500000000002,34.219500000000004,-2.8175000000000003,15.5,False,1
5.493046283721924,5.86241537,-8.213363574499999,-1.2526426310999998,-3.3600000000000003,11.620000000000001,-2.5900000000000003,3.5886356943499997,-9.1824567275,-0.8908478539799999,-24.262,34.146,-2.3310000000000004,15.5,False,1
5.503380298614502,6.692724812199999,-8.617750593899999,-1.1413763801999999,-3.1500000000000004,6.930000000000001,-2.5200000000000005,3.805365601345,-9.096016011075,-0.9648458928849998,-22.981,33.554500000000004,-2.0265,15.5,False,1
5.513660907745361,7.679764134699999,-8.9228354754,-1.1485548479999999,-3.08,0.7000000000000001,-0.28,4.06803770226,-9.03840880698,-1.0243673550599997,-21.322000000000003,32.350500000000004,-1.8760000000000001,15.5,False,1
5.524084806442261,8.8558364426,-9.102297170399998,-1.2059825903999999,0.77,-10.290000000000001,4.0600000000000005,4.378925178565,-9.004011982105,-1.0755139381349996,-19.397000000000002,30.387,-1.6344999999999998,15.5,False,1
5.534525632858276,10.281958712200002,-9.1585285015,-1.5613167465000002,10.99,-29.750000000000004,9.940000000000001,4.7303111773749995,-8.97918644763,-1.1309676018899997,-17.0975,27.468,-1.2355000000000003,15.5,False,1
5.544637441635132,12.415160060099998,-9.1537428563,-2.1870398563999998,27.860000000000003,-55.160000000000004,13.650000000000002,5.153721136444999,-8.961419739825,-1.2086146952599996,-14.0735,23.201500000000006,-0.5460000000000003,15.5,False,1
5.554715394973755,14.532808061099997,-9.1776710823,-1.8580267488999997,41.160000000000004,-89.46000000000001,16.87,5.695336531954999,-8.94257626185,-1.2947563088599998,-10.528000000000004,17.349500000000003,0.33949999999999997,15.5,False,1
5.564752101898193,17.192430380999998,-9.523433948,-0.7752745223999999,38.150000000000006,-112.98,21.14,6.316453458349999,-8.9312103545,-1.3380065773549996,-6.800500000000002,10.192000000000004,1.372,15.5,False,1
5.574981927871704,20.880966418899998,-10.0354979844,0.5730810126999999,0.42000000000000004,-114.80000000000001,21.490000000000002,7.1021367590599995,-8.934500485575,-1.2983455427599997,-4.455500000000003,2.327500000000003,2.646,15.5,False,1
5.585213661193848,25.473989399599997,-10.2975120591,1.7168502154999998,-77.98,-92.82000000000001,15.680000000000001,8.06919601285,-8.9754775726,-1.2055638464449998,-4.844000000000004,-4.962999999999999,3.8325000000000005,15.5,False,1
5.595535516738892,30.674789320699997,-11.295319083299999,1.722832272,-188.37,-77.98,10.780000000000001,9.276793758504999,-9.099605244974999,-1.0869396660499997,-11.046000000000003,-11.032000000000002,4.749499999999999,15.5,False,1
5.605807304382324,34.345379189099994,-9.006584266399999,2.7122644170999997,-297.85,-81.9,7.490000000000001,10.76590708305,-9.166245354385,-0.91860459614,-22.03600000000001,-16.817500000000003,5.418,15.5,False,1
5.616417169570923,35.486755569299994,-2.2612173569999996,4.2017964856,-394.1,-109.76,-0.49000000000000005,12.324711365819999,-8.998807592949998,-0.6806383885699999,-38.041500000000006,-23.369500000000002,5.845000000000001,15.5,False,1
5.6265552043914795,33.2733946643,5.8839507734,6.2488562199,-485.80000000000007,-124.88000000000001,-38.92,13.852229493094999,-8.467481334619997,-0.38057843452999995,-58.29600000000001,-32.375,5.281499999999999,15.5,False,1
5.636682987213135,27.0376989687,14.3581320113,5.423332422899999,-581.4200000000001,-60.410000000000004,-132.72,15.234802391374998,-7.533742135534998,0.0008973084749998694,-83.27900000000001,-39.58150000000001,1.8410000000000004,15.5,False,1
5.64763879776001,19.8664096365,20.416758834499998,1.7347963849999999,-763.35,39.06,-285.74,16.201562542339996,-6.2034524110649985,0.25292134881999984,-114.74050000000003,-42.09800000000001,-8.372000000000003,15.5,False,1
5.660348415374756,5.1373901221999985,20.642880570199996,-1.1521440819,-987.9100000000001,157.29000000000002,-438.48,16.697175923365,-4.675156616444999,0.3235096155199999,-155.54000000000002,-39.1895,-26.505500000000005,15.5,True,2
5.670840263366699,-12.192627558299998,18.6604270461,-2.6656043763999993,-1094.0300000000002,161.00000000000003,-419.37000000000006,16.35577995891,-3.261835947754998,0.3381058333799999,-207.2875,-32.57450000000001,-48.919500000000006,15.5,True,2
5.683924198150635,-27.4971209079,14.3198468497,-5.929414402799999,-1056.72,64.82000000000001,-348.88000000000005,15.172947927164998,-2.0221145586950007,0.18185451759999988,-261.4045,-26.785500000000013,-68.75399999999999,15.5,True,2
5.694398880004883,-39.1992198332,17.2977145754,-4.740181570599999,-883.6100000000001,-148.61,-270.27000000000004,13.242538294614997,-0.8855836442600019,-0.0532403028500001,-311.213,-28.175000000000004,-84.3185,15.5,True,2
5.7045347690582275,-39.1992198332,22.266410704299997,-1.2466605746,-734.09,-325.01000000000005,-306.39000000000004,11.000523338979997,0.5188835808099989,-0.18209379986000004,-351.029,-40.456500000000005,-97.503,15.5,True,2
5.714658498764038,-39.1992198332,17.468801391299998,12.5934253438,-788.48,-415.66,-396.55,8.735298004124996,2.000997899249998,0.0076570323199999235,-387.5655,-59.50700000000002,-114.9155,15.5,True,2
5.7247114181518555,-39.1992198332,8.8486579748,37.1401959859,-896.5600000000001,-443.59000000000003,-396.69000000000005,6.419883215234995,3.0817162265399984,1.17523481999,-429.5585000000001,-81.739,-135.53400000000002,15.5,True,2
5.734867095947266,-39.1992198332,4.0055850324,39.1992198332,-769.0200000000001,-337.61,-287.0,4.044229117389998,3.8882769044349983,3.1889146790200003,-473.5045,-102.45900000000003,-153.72700000000003,15.5,True,2
5.744981288909912,-39.1992198332,-1.1796615417999998,39.1992198332,-225.75000000000003,-176.54000000000002,-163.03000000000003,1.6157534606499955,4.40841671711,5.21108905828,-501.0285,-115.31800000000001,-165.5185,15.5,True,2
5.755203008651733,-32.6668141352,-10.682756497699998,39.1992198332,454.72,48.160000000000004,-10.780000000000001,-0.7975875931449992,4.597270240815,7.26054161518,-498.4,-116.32950000000001,-170.90500000000003,15.5,True,2
5.765535831451416,-19.4955221335,-9.6382894328,12.312268688299998,698.6,159.04000000000002,155.05,-2.9008786585450004,4.42935391486,8.886644033575,-469.32900000000006,-107.25049999999999,-167.72000000000003,15.5,True,2
5.775938510894775,-4.3286160834,1.5744772707999999,-15.395420608399998,433.30000000000007,178.36,196.49,-4.34799794646,4.661278245364999,8.763294028545001,-438.7215000000001,-93.5235,-158.66550000000004,15.5,True,2
5.786259412765503,6.283552147599999,9.5557370531,-24.422343866899997,-44.940000000000005,129.08,87.43,-5.2429135988599995,5.451328447319999,7.6337022996499995,-428.3545000000001,-79.247,-152.51600000000005,15.5,True,2
5.796537399291992,8.137989662599999,11.5429762224,-14.9563376613,-224.07000000000002,1.12,3.0100000000000002,-5.998806258199999,6.560999928069998,6.545805504559999,-435.29850000000016,-69.69200000000001,-151.32600000000002,15.5,True,2
5.806672096252441,6.149554082000001,13.008580064899999,-0.8590233134,-153.72000000000003,-108.92000000000002,-14.700000000000001,-6.9716082862299995,7.745626576765,5.995875050514998,-438.8300000000001,-68.2325,-152.32000000000002,15.5,True,2
5.816784858703613,0.8877371846000001,11.2402841635,12.709477239899996,-63.28000000000001,-126.00000000000001,-30.730000000000004,-8.474061596770001,8.91757126568,6.174977822124999,-432.425,-71.01150000000001,-153.81100000000006,15.5,True,2
5.826950550079346,-3.1154550251999997,7.172485743499999,19.9381943145,-63.28000000000001,-58.870000000000005,-49.77,-10.265687518520002,9.69308507034,6.8800828217799985,-418.4180000000001,-71.5645,-156.00550000000004,15.5,True,2
