window size: 30,acc threshold: 10
time,aX,aY,aZ,gX,gY,gZ,faX,faY,faZ,fgX,fgY,fgZ,temp
0.18915128707885742,3.7447673690000003,-8.685946038,4.0127635002,-57.68000000000001,56.393750000000004,136.8325,1.509173154008333,-10.875877221708333,4.050590037468333,-40.066250000000004,40.542833333333334,79.81400000000001,0.059966666666666654,0.4438653333333336,-0.07210466666666669,16.5,False
0.20160937309265137,4.10309255335,-8.782257147649998,3.5611182344499994,-61.90625000000001,48.956250000000004,138.20625,1.701436449918333,-10.860662858009999,4.182633964611665,-43.82437500000001,43.13341666666666,87.84358333333333,0.06362533333333333,0.44298800000000027,-0.07210466666666669,16.5,False
0.21416234970092773,4.36510662805,-9.08734202915,3.52642230675,-63.035000000000004,36.86375,141.81125,1.8306089899416664,-10.822437516974999,4.179064670899998,-42.73383333333334,43.358583333333335,91.73937499999998,0.06837599999999999,0.4416720000000003,-0.07227266666666668,16.5,False
0.22658300399780273,4.170689791799999,-8.975477572600001,4.025924024499999,-63.525000000000006,29.837500000000002,149.05625,1.9538194136533333,-10.774541184598336,4.183710734781665,-43.429166666666674,42.66208333333334,95.63020833333334,0.07312666666666665,0.4403840000000003,-0.07227266666666668,16.5,False
0.24187731742858887,4.06779842,-8.382655773449999,4.68454844515,-64.8375,33.6,151.76875,2.0706090967216664,-10.70321513093,4.209632979614999,-44.673708333333344,41.77687500000001,99.41925,0.07827866666666665,0.4388440000000003,-0.0725246666666667,16.5,False
0.25411415100097656,4.20718033645,-7.9411800037499995,4.7629133853,-67.58500000000001,40.188750000000006,149.85250000000002,2.1840687683383333,-10.595877097131666,4.257648953121665,-46.28750000000001,41.19529166666667,102.93645833333335,0.08343066666666665,0.4373040000000003,-0.0725246666666667,16.5,False
0.2664461135864258,4.2771703975,-7.506284496199999,4.4327038665,-63.80500000000001,45.517500000000005,151.17375,2.2978873633449997,-10.470433372326669,4.309872306366666,-48.08095833333334,41.04945833333334,106.23491666666668,0.08903066666666666,0.4351013333333337,-0.07245933333333336,16.5,False
0.2786600589752197,5.08534623065,-6.859025982899999,3.6646078118999994,-56.21875000000001,40.993750000000006,150.98125000000002,2.4172493307083327,-10.319486146643335,4.341876308641665,-49.437208333333345,41.289208333333335,109.43654166666667,0.09463066666666667,0.43289866666666704,-0.07245933333333336,16.5,False
0.29082536697387695,5.2713881877999995,-6.096313779149999,3.4049865597999993,-52.5525,33.5125,144.05125,2.5607389259549995,-10.147462141891669,4.347399740809999,-50.455708333333334,41.578250000000004,112.42554166666669,0.10066,0.4302386666666669,-0.07284200000000002,16.5,False
0.3029470443725586,5.540580730299999,-6.330810393949999,3.67836654185,-46.80375000000001,25.900000000000002,139.03750000000002,2.7104099795849996,-9.969137037626666,4.349393759643332,-51.16008333333334,41.70920833333334,115.05345833333335,0.10668933333333334,0.4275786666666669,-0.07284200000000002,16.5,False
0.31510424613952637,5.243272522249999,-6.263213155499999,4.0331024923,-44.54625000000001,25.523750000000003,135.84375,2.8557141319699997,-9.797272554381665,4.350630051319999,-51.61858333333334,41.71941666666669,117.439875,0.11328800000000003,0.4242746666666669,-0.07303333333333334,16.5,False
0.3272542953491211,5.2474599618,-6.2309100503999995,4.01216529455,-52.05375000000001,31.928750000000004,133.34125,2.995554672751666,-9.625408071136667,4.344986978021666,-51.962166666666675,41.74625000000002,119.61016666666667,0.1198866666666667,0.42097066666666694,-0.07303333333333334,16.5,False
0.3397083282470703,5.48135837095,-6.5359949318999995,3.5359935971499996,-71.54875000000001,39.690000000000005,132.055,3.1407192438183333,-9.467242497276665,4.323252172738333,-52.50525000000002,41.98250000000001,121.625,0.1268306666666667,0.4174146666666668,-0.07304266666666667,16.5,False
0.352020263671875,5.85224587395,-6.74596511505,3.290131075,-92.61000000000001,38.64,131.83625,3.2870403458083333,-9.311908430159999,4.278885253696667,-53.655,42.20795833333334,123.51500000000003,0.13377466666666668,0.4138586666666669,-0.07304266666666667,16.5,False
0.3643350601196289,6.412764567999999,-5.9820565,3.31106827275,-91.60375,32.12125,134.30375,3.45834650378,-9.152566385188331,4.224009855403334,-55.127625,42.13591666666669,125.391,0.14115733333333338,0.40934133333333345,-0.07270200000000002,16.5,False
0.376690149307251,6.8279192891,-5.256433046549999,3.6867414209499993,-72.73875000000001,25.94375,133.50750000000002,3.638605806313334,-8.964749751276663,4.180659885966667,-56.051041666666684,41.66458333333334,127.227625,0.14854000000000003,0.40482400000000013,-0.07270200000000002,16.5,False
0.38895726203918457,7.14197725535,-4.3968115275,4.16171670705,-56.87500000000001,26.556250000000002,129.00125,3.8277384926550004,-8.741319941001667,4.14771869484,-56.18608333333335,40.93804166666668,128.85425,0.15629600000000005,0.39997066666666675,-0.07320133333333335,16.5,False
0.4012463092803955,7.2442704215000004,-3.9098721283999995,4.1012979364,-42.971250000000005,29.548750000000002,122.52625000000002,4.01934376235,-8.491289919489999,4.127319882175,-55.686166666666686,40.21354166666667,130.0845,0.164052,0.3951173333333334,-0.07320133333333335,16.5,False
0.41364526748657227,7.3651079628,-3.8727833781,3.9397824108999995,-37.82625,30.406250000000004,115.22875,4.213740658411667,-8.23035261496,4.100859252256666,-54.850249999999996,39.51675000000001,130.88425,0.17223733333333335,0.38958266666666674,-0.07324333333333334,16.5,False
0.42595815658569336,7.173682154799999,-3.9547375521499997,3.70827682435,-38.325,31.26375,112.94500000000001,4.400340940834999,-7.976095273521665,4.077449471153333,-54.04350000000001,38.896375000000006,131.29520833333333,0.18042266666666668,0.3840480000000001,-0.07324333333333334,16.5,False
0.4384140968322754,7.00199713325,-3.784248941899999,3.6119657146999997,-41.8425,29.583750000000002,113.36500000000001,4.575575315908334,-7.732525873029998,4.0470008035683325,-53.56691666666667,38.328500000000005,131.537,0.188608,0.3785133333333334,-0.07296800000000002,16.5,False
0.45069313049316406,6.8626152168,-3.5012976694499995,3.3332018817999995,-45.19375,25.80375,113.17250000000001,4.7373301236683325,-7.489793960448333,4.016093511651666,-53.310833333333335,37.76208333333333,131.71433333333331,0.19675600000000001,0.3729133333333334,-0.07296800000000002,16.5,False
0.4631054401397705,6.640082715,-2.85762839005,3.1250263156,-48.39625,15.933750000000002,108.48250000000002,4.897350135043333,-7.2362744059783335,3.9762330751733326,-53.41087500000001,37.07754166666666,131.75895833333334,0.204904,0.3673133333333334,-0.07296800000000002,16.5,False
0.47536230087280273,6.417550213199999,-2.37667104745,3.26919387725,-44.24,12.932500000000001,102.69875,5.044448904378332,-6.9692752841950005,3.936053595681666,-53.71391666666667,36.204583333333325,131.52270833333333,0.21314533333333335,0.3607986666666667,-0.07337866666666668,16.5,False
0.48774218559265137,6.14656305375,-1.9441683625,3.14715992465,-34.151250000000005,10.561250000000001,95.24375,5.171467904061666,-6.688417731520001,3.9021752157033323,-53.884833333333354,35.23741666666667,130.9641666666667,0.22138666666666668,0.3542840000000001,-0.07337866666666668,16.5,False
0.5001614093780518,5.787639663749999,-1.60857499285,3.0113672421,-24.05375,11.68125,89.53000000000002,5.286642431874999,-6.403811423438333,3.870270914369999,-53.723833333333346,34.196749999999994,130.09383333333332,0.22939466666666672,0.3476200000000001,-0.07296333333333335,16.5,False
0.5125584602355957,5.283950506449999,-1.4291132978499999,2.931207685,-18.926250000000003,17.4825,75.13625,5.373083148299999,-6.118547089141668,3.8181672022549993,-53.27845833333334,33.19895833333334,128.87029166666667,0.23740266666666668,0.3409560000000001,-0.07296333333333335,16.5,False
0.5473282337188721,4.633700964899999,-0.7459624455499999,1.8861424144499999,-19.048750000000002,15.452500000000002,61.31125000000001,5.439144992248332,-5.825964705726666,3.7433715558166663,-52.58429166666667,32.28254166666667,126.99458333333335,0.24554133333333336,0.33348000000000005,-0.07292600000000002,16.5,False
0.5718774795532227,4.05643251265,-0.38763726119999997,1.85025007545,-27.475,10.666250000000002,46.95250000000001,5.491507926811666,-5.529374344456667,3.6526835792766668,-52.03420833333334,31.180333333333337,124.49441666666668,0.25411866666666666,0.3254346666666668,-0.07304733333333334,16.5,False
0.5929543972015381,3.3906296242,-0.011365907350000001,2.3760728418,-19.215000000000003,17.4125,33.73125,5.525446127354999,-5.2281977398700015,3.573640672723333,-51.33829166666667,29.915375,121.35579166666669,0.261772,0.31754800000000016,-0.07304733333333334,16.5,False
0.6110281944274902,3.3798619224999995,0.36251262389999994,2.31565407115,-4.576250000000001,21.017500000000002,12.486250000000002,5.519384310101666,-4.920680155393334,3.504388398641666,-50.11504166666668,28.78779166666667,117.71520833333336,0.2695,0.30945600000000006,-0.07295400000000002,16.5,False
0.6305623054504395,4.38783844275,0.17407784415000002,2.2582263287499997,-12.363750000000001,22.4525,-0.0175,5.512365363808332,-4.619324089111667,3.4515468995583327,-48.30087500000001,27.63891666666667,113.40933333333334,0.27717200000000003,0.3010000000000001,-0.07287000000000002,16.5,False
0.6527783870697021,9.451051064349999,1.6947166064499999,3.63170650115,-27.361250000000002,27.020000000000003,-3.4737500000000003,5.539763182578332,-4.312903214993332,3.4181470840999997,-47.07441666666668,26.989958333333334,108.68200000000002,0.28391066666666664,0.2930013333333334,-0.07268333333333336,16.5,False
0.6651034355163574,15.50967788755,3.1178478478,5.003392056599999,-27.930000000000003,30.730000000000004,-5.5912500000000005,5.772784223441666,-3.9343586796733327,3.4313076083999996,-45.89870833333335,26.83275,103.74029166666666,0.29064933333333337,0.2850026666666667,-0.07268333333333336,16.5,False
0.677499532699585,19.5996099166,3.69870553395,5.788836075050001,-10.211250000000001,40.03125000000001,-14.105000000000002,6.231468375673333,-3.5275987778616664,3.466621681938333,-44.59145833333334,26.944750000000003,98.44391666666667,0.29676266666666673,0.27720933333333336,-0.07291666666666669,16.5,False
0.6902923583984375,19.5996099166,1.39681019275,4.93699122945,11.20875,54.713750000000005,-22.5575,6.748896322735001,-3.153082160585,3.4935808165649997,-42.47775000000001,27.24866666666666,92.78529166666668,0.3028760000000001,0.269416,-0.07291666666666669,16.5,False
0.7057933807373047,19.5996099166,-0.8015955709999999,3.7501512198499998,38.8325,50.417500000000004,-21.28,7.26592546603,-2.822972342726666,3.498087299128333,-39.52637500000001,27.68558333333333,87.03858333333336,0.30895200000000006,0.2620333333333333,-0.07275333333333336,16.5,False
0.7182753086090088,19.5996099166,-6.479763600799999,4.0390845488,21.997500000000002,13.50125,-15.977500000000001,7.766962578281666,-2.6636701781316665,3.473201944088333,-36.192333333333345,27.55345833333333,81.25629166666668,0.31502800000000003,0.25465066666666664,-0.07275333333333336,16.5,False
0.7305073738098145,19.5996099166,-11.18345462675,6.75673281675,-14.918750000000001,-9.47625,35.096250000000005,8.24650416751,-2.7246472740549996,3.5264023665616664,-34.02175,26.345374999999997,76.12879166666669,0.320656,0.24796799999999994,-0.07216533333333336,16.5,False
0.7427632808685303,16.7689007808,-11.532806726349998,7.481159858899999,-65.07375,-10.360000000000001,94.40375,8.706344850665,-2.9002804528949993,3.6444084011183326,-33.56616666666666,24.962875000000004,73.33404166666669,0.3262840000000001,0.2412853333333333,-0.07216533333333336,16.5,False
0.7550375461578369,13.4895374075,-8.56809952495,6.430112531849999,-94.01,-10.377500000000001,135.69500000000002,9.034440709501666,-3.0403802161250004,3.7535609920549997,-34.66691666666666,23.79416666666667,72.60370833333333,0.33139866666666673,0.23523733333333327,-0.07258533333333335,16.5,False
0.7673294544219971,10.199406332499999,-5.539982524649998,5.0057848792,-92.1375,-12.713750000000001,146.30875,9.273742909689998,-3.0843882117766666,3.8095530408949996,-36.307541666666665,22.51520833333334,72.84258333333334,0.3365133333333334,0.22918933333333322,-0.07258533333333335,16.5,False
0.7796885967254639,5.81515712365,-2.7601208690999997,4.3082770913,-80.09750000000001,-7.481250000000001,140.70875,9.387940368274998,-3.018126965945,3.835176182903333,-37.39575,20.900250000000003,73.25004166666668,0.3406386666666667,0.22256266666666658,-0.07255733333333335,16.5,False
0.7920742034912109,1.8819549748999997,-0.30927232104999997,3.3116664784,-50.17250000000001,1.9512500000000002,130.29625000000001,9.347102862568331,-2.8637101474916666,3.854657746905,-37.076666666666675,19.399333333333335,73.46762500000001,0.344764,0.21593599999999993,-0.07255733333333335,16.5,False
0.8044734001159668,-2.15892419085,0.9571290399999999,2.05483640775,-9.957500000000001,16.75625,115.80625,9.14048263105833,-2.6396422511899997,3.8403406916816665,-35.02887499999999,18.438,73.20862500000001,0.34820799999999996,0.20919733333333326,-0.07241266666666668,16.5,False
0.8169233798980713,-5.3826544387,2.1726829208,0.30329026454999997,27.011250000000004,36.17250000000001,104.8075,8.794480483098333,-2.4006590940150003,3.7790246125566678,-31.88879166666667,18.2525,72.45233333333336,0.351652,0.2024586666666666,-0.07241266666666668,16.5,False
0.8291864395141602,-6.209374646999999,2.5106691130499996,-2.04167588345,23.8,43.321250000000006,80.31625000000001,8.368558060298334,-2.15497603356,3.626402411053334,-28.58595833333334,18.863541666666666,71.253,0.3544146666666667,0.19600933333333323,-0.07250133333333335,16.5,False
0.8415682315826416,-6.75673281675,2.07158616595,-2.93539512455,-11.436250000000001,28.472500000000004,51.5375,7.9182687273550005,-1.9341982683333334,3.393501011320001,-26.446875000000013,19.259916666666665,69.30379166666667,0.3571773333333334,0.18955999999999998,-0.07250133333333335,16.5,False
0.8539474010467529,-7.102495682449999,2.21874475585,-1.6947166064499999,-26.976250000000004,15.951250000000002,29.636250000000004,7.439544685848333,-1.7385451404066665,3.1803204578483335,-25.77895833333334,19.048166666666667,66.75987500000001,0.35968800000000006,0.18331599999999998,-0.07246400000000003,16.5,False
0.8662354946136475,-6.55932495225,2.6099712509499993,-0.4211367776,-15.382500000000002,14.183750000000002,4.2175,6.956573384226668,-1.5254842280649994,3.003809910721667,-25.405625000000004,18.46833333333333,63.73820833333334,0.36219866666666667,0.17707199999999998,-0.07246400000000003,16.5,False
0.8786904811859131,-5.8815579507999995,2.64466717865,0.5748756296499999,13.186250000000001,21.805000000000003,-22.242500000000003,6.5001225330883345,-1.3110075623516662,2.881177752471667,-24.220291666666675,18.00429166666667,59.800125,0.36503599999999997,0.1708746666666667,-0.07210933333333336,16.5,False
0.8910214900970459,-4.064209186099999,2.9940192782499997,0.10408778309999998,38.14125000000001,33.73125,-46.261250000000004,6.092704605061667,-1.0929616029266664,2.777448892761667,-21.944125000000007,17.992041666666672,54.96866666666667,0.36730399999999996,0.16503200000000004,-0.07210933333333336,16.5,False
0.9032526016235352,-1.5810575329499996,3.05025060935,-1.1922238604499997,43.111250000000005,31.710000000000004,-73.43875000000001,5.767161090331667,-0.8812167430149995,2.65387954566,-18.973791666666678,18.37179166666667,49.32958333333333,0.3696933333333333,0.15934800000000007,-0.07210933333333336,16.5,False
0.9154975414276123,0.9182456727499999,2.3425733254,-1.2185449090499998,42.9975,16.905,-95.89125000000001,5.514578724713335,-0.6954938288783329,2.501596327358334,-15.95066666666668,18.758541666666666,43.047666666666665,0.37198933333333334,0.1545786666666667,-0.07210933333333336,16.5,False
0.9278874397277832,4.223331889,0.51385865335,0.31046873235,42.27125,0.18375000000000002,-105.11375000000001,5.368317443288335,-0.558085991073333,2.361257281868334,-13.108666666666673,18.764958333333336,36.36966666666667,0.3742853333333333,0.14980933333333332,-0.07176400000000001,16.5,False
0.940272331237793,7.648059235249999,-0.40677984199999995,3.09930347265,43.225,-0.15750000000000003,-106.9775,5.342734181656668,-0.4827320193616662,2.275215369210001,-10.70941666666667,18.413208333333337,29.70304166666666,0.3763946666666667,0.14583333333333331,-0.07176400000000001,16.5,False
0.9529933929443359,12.394821068,-1.4261222696,5.67398059025,40.495000000000005,15.671250000000002,-91.98,5.466443110076668,-0.46249272820333304,2.3151555664416668,-8.568,18.13116666666667,23.379999999999995,0.37850400000000006,0.14185733333333334,-0.07176400000000001,16.5,False
0.9651305675506592,16.5535467468,-1.6636099126499997,6.76869692975,26.722500000000004,25.996250000000003,-83.39625000000001,5.772026496285002,-0.4783252377399998,2.4474387758450007,-6.8127499999999985,18.219833333333337,18.051833333333335,0.3804080000000001,0.13925333333333334,-0.07183866666666668,16.5,False
0.9773435592651367,19.5996099166,-2.3365912688999995,6.900900378399999,13.221250000000001,34.42250000000001,-80.33375000000001,6.214479335213335,-0.516510698398333,2.6207389526500005,-5.286749999999999,18.696416666666675,13.446416666666675,0.38187333333333334,0.13721866666666668,-0.07183866666666668,16.5,False
0.9896605014801025,19.5996099166,-4.594219391999999,7.185646267799999,15.671250000000002,40.5825,-73.47375000000001,6.738447664048335,-0.6052844168583332,2.7843083175483327,-4.100249999999999,19.454166666666673,9.449125000000002,0.3835160000000001,0.13577200000000003,-0.07199266666666668,16.5,False
1.0020265579223633,19.5996099166,-6.3373906561,6.769295135399999,27.230000000000004,50.120000000000005,-44.782500000000006,7.2787071267516685,-0.7889335514083331,2.9448467738199997,-2.9157916666666654,20.21804166666667,6.394500000000002,0.3850840000000001,0.1345306666666667,-0.07199266666666668,16.5,False
1.014418601989746,19.5996099166,-7.226922457650001,5.531607645549999,21.560000000000002,57.09375000000001,-9.1875,7.809315538301669,-1.0062816042416665,3.09368033954,-1.9290833333333324,21.360500000000002,4.972625,0.38677333333333336,0.13393333333333335,-0.07137200000000002,16.5,False
1.0268335342407227,19.5996099166,-7.17667318305,4.691726912949999,2.07375,44.17875,26.67875,8.290950847305,-1.2498908851099997,3.1880971312983335,-0.6028750000000005,22.273708333333335,5.167749999999998,0.388304,0.13331733333333337,-0.07137200000000002,16.5,False
1.0391063690185547,19.5996099166,-6.62871680765,5.410171898599999,-23.047500000000003,35.11375,64.58375000000001,8.569575098886668,-1.5595819501149994,3.2381669442033334,0.15720833333333234,22.605625,6.707458333333332,0.3899653333333334,0.13277600000000003,-0.07112933333333335,16.5,False
1.0514764785766602,19.5996099166,-6.203392590499999,5.535196879449999,-48.230000000000004,23.003750000000004,98.63875000000002,8.626444516013333,-1.8695322375683325,3.2516863918933336,-0.08108333333333242,22.62166666666667,9.709291666666662,0.39158933333333334,0.13228133333333336,-0.07112933333333335,16.5,False
1.06388258934021,16.264613417849997,-5.74815809085,5.807380450199999,-68.04,16.056250000000002,127.44375000000001,8.623254085880001,-2.1842282898449996,3.244607625035001,-1.8946666666666692,21.710791666666672,13.92970833333333,0.393596,0.13129200000000005,-0.07132066666666668,16.5,False
1.076359510421753,13.18385432035,-3.86381029335,5.4963135121999995,-70.92750000000001,16.887500000000003,151.63750000000002,8.482615937564999,-2.4242682770016657,3.269911724030001,-4.974666666666666,20.323625000000003,19.261083333333332,0.39519200000000004,0.1305546666666667,-0.07132066666666668,16.5,False
1.088712453842163,9.789037256599999,-1.3501501520499999,4.33998199075,-61.80125,26.71375,162.91625000000002,8.231469265506666,-2.451865497654999,3.3356146445883335,-8.610291666666667,19.636750000000003,25.203791666666675,0.39676000000000017,0.1292573333333334,-0.07138133333333335,16.5,False
1.1144235134124756,2.9216363945999997,3.1088747630499998,1.8711872732,-35.253750000000004,40.346250000000005,144.96125,7.87083101931,-2.1914865183983325,3.3062028667966663,-10.754041666666668,20.443208333333338,30.788916666666672,0.39796400000000015,0.12676533333333337,-0.07102200000000002,16.5,False
1.1268465518951416,0.22911276394999996,4.08275356125,-0.5515456093,-24.368750000000002,42.393750000000004,122.93750000000001,7.291708129545,-1.694916008333333,3.101137969976666,-10.586333333333332,22.264958333333343,33.38445833333333,0.39916800000000013,0.12427333333333337,-0.07102200000000002,16.5,False
1.1391606330871582,-0.24287149389999999,3.79920408315,-2.3916261886999997,-4.24375,40.67875,89.52125000000001,6.804529448185,-1.2084551737533331,2.8265216962499995,-8.5785,24.00562500000001,33.066833333333335,0.4005120000000001,0.1209786666666667,-0.07099400000000002,16.5,False
1.1515154838562012,-2.2097716711,3.6179477711999994,-2.8941189347,6.921250000000001,32.2,59.10625,6.354818380703334,-0.8184051497649997,2.535175604511666,-5.445708333333337,25.70108333333334,30.953125000000004,0.40185600000000016,0.11768400000000004,-0.07099400000000002,16.5,False
1.1638805866241455,-2.9527430884,3.2368907721499993,-2.6159533074499994,15.70625,25.777500000000003,34.265,5.976333665948334,-0.5536393290749998,2.2809980238266667,-2.129458333333332,27.09787500000001,27.74012500000001,0.4032373333333334,0.11475333333333336,-0.07073733333333336,16.5,False
1.1761994361877441,-2.2390837479499996,2.4664018949499997,-2.71884467925,10.64,28.551250000000003,11.76875,5.778227894856667,-0.41667017541333295,2.1495921827099997,0.6845416666666646,28.064458333333345,24.05695833333334,0.40461866666666674,0.1118226666666667,-0.07073733333333336,16.5,False
1.188734531402588,-1.5421741657,1.7324035624,-2.7804598611999998,11.138750000000002,23.275000000000002,-7.5512500000000005,5.696792165703333,-0.33946176618666624,1.957707750378333,2.1519166666666645,28.727708333333347,20.014458333333334,0.4064013333333334,0.1099746666666667,-0.07077466666666668,16.5,False
1.201019525527954,0.5629115166499999,1.6277175736499998,-2.16610265865,21.341250000000002,18.532500000000002,-22.347500000000004,5.79493777268,-0.3376272688599998,1.8212570416133327,2.3015416666666666,28.597041666666676,15.817083333333334,0.40818400000000005,0.1081266666666667,-0.07077466666666668,16.5,False
1.213435411453247,3.6352957350499997,1.5493526335,-1.7252250945999998,38.4125,14.052500000000002,-37.563750000000006,6.039125319009999,-0.36979079264166614,1.7794225264899992,2.140250000000001,27.69608333333334,11.63225,0.4102186666666667,0.10671733333333337,-0.07024733333333336,16.5,False
1.2257206439971924,5.837290732699999,1.00199446375,-0.8458627891,47.29375,11.69875,-51.6775,6.4041504066399995,-0.40538402881666624,1.8220745893349997,3.1074166666666665,26.82575000000001,7.936833333333333,0.41225333333333336,0.10530800000000004,-0.07024733333333336,16.5,False
1.238161563873291,7.8873414952499985,0.5132604477,0.38524443859999996,48.67625,7.140000000000001,-54.573750000000004,6.854140636758332,-0.442273377233333,1.8902500932466666,5.411874999999999,26.36608333333334,4.68475,0.414232,0.1049346666666667,-0.07041533333333334,16.5,False
1.2517776489257812,9.72981489725,1.1437692027999997,1.5260226131499999,51.432500000000005,7.603750000000001,-51.04750000000001,7.378906573126666,-0.5088337258899995,1.96031991505,7.8854999999999995,26.140916666666673,2.1309166666666646,0.4162106666666666,0.10456133333333337,-0.07041533333333334,16.5,False
1.2654895782470703,11.2522482765,0.44925244314999996,2.0709879602999997,44.17875,11.086250000000001,-49.14875000000001,7.958787190048332,-0.5907081391866662,2.0200407791083332,9.618583333333332,25.872000000000007,0.6314583333333308,0.41791866666666666,0.10460800000000003,-0.07070933333333335,16.5,False
1.2778797149658203,12.1710921549,0.11964112999999998,2.4424736689499995,35.7,12.302500000000002,-44.9575,8.527561122068333,-0.6683552325566665,2.0800607459916662,10.115583333333335,25.325416666666673,0.044916666666665134,0.41962666666666665,0.1046546666666667,-0.07070933333333335,16.5,False
1.2902045249938965,12.62871947715,0.23330020349999997,2.53340092775,28.227500000000003,10.920000000000002,-37.45,9.038767730370001,-0.7644071197583332,2.1787846184299995,9.795333333333335,24.575250000000004,0.5448333333333331,0.421344,0.10506533333333336,-0.07049000000000001,16.5,False
1.3023335933685303,12.9236348626,0.6209374647,2.5633112102499997,20.308750000000003,7.157500000000001,-35.306250000000006,9.497890566744998,-0.8455836264633333,2.3099711174749995,9.219875,23.999500000000005,2.085416666666662,0.4230613333333334,0.10547600000000003,-0.07049000000000001,16.5,False
1.3152997493743896,13.17906867515,0.6149554081999999,2.5794627627999995,21.46375,5.7925,-35.761250000000004,9.864730211513335,-0.8924031886699996,2.426461697718333,8.444333333333333,23.784250000000004,4.229458333333328,0.4250306666666667,0.10601733333333335,-0.07069066666666668,16.5,False
1.329777479171753,12.620942803699998,0.4731806691499999,2.7062823605999995,31.815,14.1575,-39.55875,10.120044382933333,-0.8740781555916664,2.5027528582816667,7.830958333333332,24.066875000000003,6.614125000000001,0.42680400000000007,0.10583066666666667,-0.07069066666666668,16.5,True
1.3422257900238037,12.0382905006,-0.32901310749999996,2.3647069344499996,32.0075,22.172500000000003,-39.1475,10.226465168068332,-0.8309076478499998,2.4588645037599997,7.537833333333335,24.52625,8.700708333333333,0.4284840000000001,0.10584933333333336,-0.07019133333333334,16.5,True
1.3545055389404297,11.4891377139,-1.02592268975,1.8269200550999998,28.840000000000003,26.442500000000003,-34.965,10.149994545809998,-0.8032904870083333,2.3299312459966663,7.382083333333332,24.717875,10.37604166666667,0.43023866666666677,0.10530800000000001,-0.07019133333333334,16.5,True
1.3669466972351074,11.06500990805,-1.4775679554999999,0.9116654106,30.590000000000003,22.172500000000003,-27.895000000000003,9.935697341791666,-0.7789435170533333,2.1471993601099997,7.627083333333335,24.619874999999997,11.986333333333333,0.4320026666666667,0.10498133333333336,-0.07050400000000002,16.5,True
1.3791956901550293,10.731809360999998,-1.2705888005999997,0.57846486355,31.071250000000003,11.095,-17.9375,9.64871815129833,-0.7322635361649998,1.9405591884116662,8.275750000000004,24.024291666666667,13.82675,0.43358933333333344,0.10406666666666671,-0.07050400000000002,16.5,True
1.3916065692901611,10.279565889599997,-1.2813565023,0.7555337359499998,22.750000000000004,-0.42875,-5.888750000000001,9.345926391456663,-0.6041478261233333,1.7212370569333328,8.542916666666668,22.78558333333333,15.564791666666663,0.43517600000000006,0.10315200000000005,-0.07013066666666669,16.5,True
1.4039905071258545,10.00259667365,-0.44087756405,1.6097714041500002,8.3475,-9.6425,3.1587500000000004,9.036075804944998,-0.42679979108666666,1.5284951965033333,8.259708333333334,20.748291666666667,16.63841666666666,0.4367813333333334,0.10226533333333337,-0.07013066666666669,16.5,True
1.416541576385498,9.943374314299998,0.33499516399999996,2.23190528015,2.555,-10.718750000000002,4.865,8.716035782194998,-0.19866409636500001,1.3989836732783332,7.80675,18.511208333333336,16.677791666666657,0.4383866666666668,0.1013786666666667,-0.07013066666666669,16.5,True
1.4289026260375977,9.708877699499999,0.6664010940999998,2.2671994134999998,3.1587500000000004,-12.66125,3.9375000000000004,8.385208117556665,0.05882355558333331,1.2809576985333337,8.021416666666665,16.793000000000003,15.443750000000005,0.43972133333333335,0.1004546666666667,-0.07043400000000002,16.5,True
1.441253662109375,9.33380275695,0.7489534737999999,2.4275185276999998,3.31625,-9.826250000000002,-2.0562500000000004,8.049056422633333,0.2845863678933333,1.1705488757316664,9.195083333333336,15.306666666666668,12.740874999999997,0.441056,0.09953066666666668,-0.07043400000000002,16.5,True
1.4536278247833252,8.91027315675,0.14057832774999998,2.6177479243999993,1.8375000000000001,-3.7187500000000004,-5.617500000000001,7.703772121453333,0.51230331866,1.0812766525633333,11.19329166666667,14.441000000000004,8.978958333333335,0.4423626666666667,0.09910133333333336,-0.07014466666666669,16.5,True
1.4660217761993408,8.80857819625,-0.0191425808,2.3736800192,0.21875000000000003,-0.28875,-4.357500000000001,7.486603530315,0.685025230003333,0.9790831873550001,13.582916666666671,13.881583333333337,4.229749999999997,0.4436693333333333,0.09867200000000002,-0.07014466666666669,16.5,True
1.4784536361694336,8.746364808649998,-0.25722842949999997,2.2755742925999995,-0.7875000000000001,-0.36750000000000005,-1.12,7.3779693842750005,0.7936194956666663,0.8733403686233333,15.933166666666668,13.20929166666667,-1.1060000000000014,0.44461199999999995,0.09895200000000001,-0.07030800000000002,16.5,True
1.4907827377319336,8.7134634979,-0.23210379219999996,2.0554346134,-7.9625,-0.07,4.26125,7.372944456815,0.8066803190249997,0.8055636684783333,17.660708333333336,12.317958333333337,-6.528374999999998,0.44556399999999996,0.10015600000000004,-0.07030800000000002,16.5,True
1.5030815601348877,8.497511258249999,-0.0083748791,1.94715939075,-17.045,-4.68125,9.73,7.582535776386666,0.694596520403333,0.8451848226966665,18.34291666666667,10.836583333333333,-10.786125,0.44660933333333325,0.10145333333333335,-0.07042466666666668,16.5,True
1.5186846256256104,8.43410145935,1.1042876299,1.9609181207,-29.540000000000003,-6.6850000000000005,11.173750000000002,7.846962613874999,0.5774279737566667,0.9484351178866665,18.125625000000003,9.22075,-13.911333333333335,0.44745866666666656,0.10356266666666668,-0.07042466666666668,16.5,True
1.5309455394744873,8.688937066249999,1.5972090855,1.97826608455,-26.101250000000004,-9.54625,5.460000000000001,8.161738426905,0.48787658795166655,1.1158130587566666,17.165458333333333,7.628833333333332,-16.211125000000003,0.44841999999999993,0.10550400000000003,-0.07050400000000002,16.5,True
1.543165683746338,8.7038922075,1.8299110833499999,1.8538393093499996,-16.695,-13.203750000000001,-4.7250000000000005,8.536613967571666,0.43417766076999986,1.2844073511149998,16.024458333333335,6.269375,-17.76045833333332,0.4494746666666666,0.10802400000000004,-0.07050400000000002,16.5,True
1.5554344654083252,8.547760532849999,1.4757733385499998,1.55354007305,-8.478750000000002,-13.693750000000001,-13.037500000000001,8.881240242536666,0.4201796485599999,1.3397812541166663,15.14129166666667,5.006458333333333,-18.94404166666666,0.4504733333333333,0.11026400000000004,-0.07048533333333334,16.5,True
1.567765474319458,8.257032586949999,0.8811569224499999,1.5224333792499998,-6.746250000000001,-12.013750000000002,-15.837500000000002,9.246026047906666,0.38081771679,1.4827723446549999,14.578958333333336,3.655458333333333,-19.583958333333328,0.4513133333333333,0.1124946666666667,-0.07048533333333334,16.5,True
1.5800247192382812,8.00937544785,0.38524443859999996,1.232303639,-12.59125,-10.03625,-12.3375,9.547342233811667,0.3539981634816666,1.6079767871999997,13.937000000000005,2.6156666666666677,-19.616041666666664,0.45222799999999996,0.11489333333333336,-0.07045733333333336,16.5,True
1.592200756072998,8.092526033199999,0.38464623295,0.8805587167999999,-22.653750000000002,-10.57,-5.94125,9.765388193236667,0.31710881506499994,1.7102699533499996,12.538166666666672,1.7202500000000003,-18.997416666666663,0.4528346666666667,0.11730133333333338,-0.07045733333333336,16.5,True
1.6044957637786865,8.159525065999999,0.6658028884499999,0.43250268495,-31.657500000000002,-15.23375,-1.4525000000000001,9.88247697913,0.28827530273499996,1.7817954089016665,10.249458333333337,0.8779166666666666,-17.707375,0.45316133333333336,0.11970000000000004,-0.07034066666666668,16.5,True
1.6168286800384521,8.277969784699998,1.0217352502,0.23449661479999998,-30.773750000000003,-22.89,-2.00375,9.938967532678335,0.2837488799833333,1.8075182518516661,7.560291666666671,-0.06766666666666635,-15.914208333333338,0.45336666666666675,0.1215386666666667,-0.07034066666666668,16.5,True
1.6289896965026855,8.2731841395,1.2556336593499997,0.35772697870000003,-26.906250000000004,-27.22125,-4.375,9.932068227515002,0.3053640441366666,1.7943577275516662,4.959791666666671,-1.1205833333333328,-14.233041666666672,0.4534413333333334,0.12309733333333335,-0.07047600000000001,16.5,True
1.6412065029144287,7.9657064354,1.2945170265999997,0.6951149652999999,-20.378750000000004,-28.323750000000004,-9.485000000000001,9.851928610603332,0.34721849944833333,1.7494923038016663,2.54654166666667,-2.3406249999999997,-12.754875000000004,0.45346000000000014,0.12418933333333335,-0.07047600000000001,16.5,True
1.6602568626403809,7.590631492849999,1.2412767237499998,0.7992027483999999,-7.105,-16.8,-19.188750000000002,9.723653379055001,0.374775839725,1.7017754331199997,0.6442916666666684,-3.633583333333333,-11.480000000000006,0.45326400000000017,0.125244,-0.07086333333333335,16.5,True
1.6769006252288818,7.532007339149999,0.5730810126999999,0.59760744435,-7.525,-12.267500000000002,-27.361250000000002,9.562915520899999,0.4058426531483333,1.6432509803616666,-0.6402083333333345,-4.48525,-10.862833333333334,0.45290933333333355,0.12610266666666667,-0.07108266666666668,16.5,True
1.7070698738098145,8.051848048999998,0.17228322719999997,0.32901310749999996,-25.62,-23.905,-27.632500000000004,9.391330200291668,0.39304105223833324,1.5650655019066666,-1.859375000000002,-5.243875000000001,-10.554833333333331,0.4525546666666668,0.12696133333333334,-0.07108266666666668,16.5,True
1.7228069305419922,7.36570616845,-0.048454657649999996,1.2849457361999996,-21.262500000000003,-20.168750000000003,-32.103750000000005,9.227042988613334,0.37726836326666663,1.4978870074116666,-3.4851250000000014,-6.312541666666667,-10.31508333333333,0.4518733333333334,0.12785733333333335,-0.07132533333333337,16.5,True
1.7495477199554443,6.887739854099999,-0.13579268255,1.31545422435,-8.925,-6.88625,-39.12125,9.023114682528332,0.33934212505666667,1.466541031351667,-4.930041666666668,-7.090416666666668,-10.251499999999998,0.4510053333333334,0.12860400000000002,-0.07072800000000003,16.5,True
1.770216703414917,6.658028884499998,-0.53180482285,0.8554340794999999,-7.253750000000001,-6.65875,-43.79375,8.835457570123333,0.3234697351433333,1.404985669966667,-6.273458333333334,-7.900666666666668,-10.264625000000002,0.45025866666666675,0.12922933333333333,-0.07082133333333336,16.5,True
1.7927327156066895,7.915457160799999,-0.6783652070999998,0.6257231099,-22.286250000000003,-7.831250000000001,-43.86375,8.665547225334999,0.3278565765766667,1.3599407845216667,-7.953458333333333,-8.933750000000002,-10.459458333333334,0.44922266666666677,0.1299293333333333,-0.07063466666666668,16.5,True
1.8049225807189941,8.484948939599999,-0.57726845225,0.5240281494,-23.5375,-12.59125,-46.13875,8.557311883061665,0.3433501029116666,1.3311072721916666,-9.660291666666666,-10.119958333333335,-10.847958333333334,0.44850400000000007,0.130704,-0.0711106666666667,16.5,True
1.817192792892456,8.66261601765,-0.78424760715,0.9038887371499998,-27.405,-14.621250000000002,-51.62500000000001,8.479884131763333,0.37511482292666654,1.3265808494399998,-11.510625000000001,-11.192416666666666,-11.62641666666667,0.44778533333333337,0.13147866666666666,-0.0711106666666667,16.5,True
1.8298516273498535,8.1344004287,-1.0779665813,1.8053846516999998,-31.281250000000004,-10.613750000000001,-54.96750000000001,8.412227072748331,0.3904488277549999,1.3509676997716664,-13.488416666666666,-11.853041666666664,-12.945625000000001,0.4471040000000001,0.13226266666666667,-0.07076066666666668,16.5,False
1.842336893081665,8.32642444235,-1.6923237838499998,2.1762721547,-23.03,-4.69,-56.04375,8.348976795354998,0.3740978733216666,1.3888141772283331,-15.001583333333336,-11.964166666666666,-14.710500000000001,0.4463386666666668,0.13273866666666667,-0.07076066666666668,16.5,False
1.85471773147583,8.889335959,-1.5984054967999999,2.1667008643,-5.71375,1.5575,-54.52125,8.295736492504997,0.3249253688916666,1.4156736109133332,-15.620791666666669,-11.557583333333334,-16.734958333333335,0.44557333333333354,0.13321466666666668,-0.07076066666666668,16.5,False
1.8670167922973633,9.848857821599998,-1.4775679554999999,1.4159527735499997,9.152500000000002,-0.22750000000000004,-57.16375000000001,8.280163205416665,0.2562912406483333,1.4079966384049996,-15.634791666666668,-11.064666666666664,-18.727625,0.44457466666666684,0.13400800000000004,-0.07136266666666669,16.5,False
1.87941575050354,10.687542142899998,-1.3746765837,0.9409774874499999,10.6925,-5.57375,-61.18000000000001,8.302376575219999,0.1836890149266666,1.3705888450916666,-15.402333333333337,-10.733916666666666,-20.724666666666668,0.4435760000000002,0.13480133333333338,-0.07136266666666669,16.5,False
1.8918449878692627,11.3013011398,-1.5403795487499998,1.1246266219999999,7.402500000000001,-13.48375,-63.533750000000005,8.363313790766664,0.12037891696833324,1.3116855287549998,-15.19116666666667,-10.745,-22.661333333333335,0.44225066666666685,0.13584666666666673,-0.07103600000000003,16.5,False
1.9042437076568604,11.16909769115,-1.9812571127999998,1.7976079782499998,2.2487500000000002,-14.227500000000001,-63.096250000000005,8.443114424476665,0.05962116311666662,1.268195978,-15.032500000000002,-11.19125,-24.590416666666666,0.44092533333333356,0.13689200000000007,-0.07103600000000003,16.5,False
1.9166429042816162,11.067402730649999,-2.2857437886499996,2.2516460665999998,1.2337500000000001,-9.2575,-62.62375000000001,8.519226123344998,-0.007038886481666706,1.2631311701633334,-15.032208333333335,-11.595208333333334,-26.567333333333334,0.43982400000000016,0.13787200000000005,-0.07102200000000002,16.5,False
1.9288427829742432,11.063215291099999,-2.70089850975,2.3449661479999997,2.8525000000000005,-7.840000000000001,-59.465,8.598767534606667,-0.08269196101833337,1.2703495183400002,-14.886666666666668,-11.847791666666666,-28.63670833333333,0.43872266666666687,0.13885200000000003,-0.07102200000000002,16.5,False
1.941046953201294,10.9567346854,-3.05264343195,2.6416761503999995,3.6837500000000003,-11.830000000000002,-56.253750000000004,8.692227197324998,-0.17952151556500012,1.2798809283633334,-14.442458333333336,-12.108833333333331,-30.851916666666664,0.43756533333333353,0.1402893333333334,-0.07108266666666668,16.5,False
1.9532389640808105,11.043474504649998,-3.02871520595,2.78584371205,12.55625,-14.437500000000002,-52.14125000000001,8.771389745008332,-0.2981058155833333,1.3018350757183332,-13.396250000000002,-12.342166666666664,-33.087833333333336,0.4364080000000002,0.14172666666666672,-0.07108266666666668,16.5,False
1.9654507637023926,10.99202881875,-2.9850461934999997,2.6350958882499995,21.271250000000002,-16.5375,-51.92250000000001,8.856733751075,-0.44464625964500004,1.3189836376850002,-11.894166666666667,-12.587749999999998,-35.133,0.43488666666666675,0.14358400000000007,-0.07154000000000002,16.5,False
1.980888843536377,10.943574161099999,-3.2111679291999993,2.39342080565,28.49875,-15.70625,-51.52875,8.932426705988332,-0.6039883046166667,1.3350354892933332,-10.273666666666664,-12.774416666666664,-36.94775,0.43336533333333344,0.14544133333333337,-0.07154000000000002,16.5,False
1.9931166172027588,10.610971819699998,-3.2751759337499995,2.5136601413,25.348750000000003,-14.761250000000002,-49.58625000000001,9.005248273781664,-0.7682755162949999,1.3577872441816665,-8.928791666666664,-12.84033333333333,-38.383916666666664,0.43167600000000006,0.14791466666666672,-0.07115266666666668,16.5,False
2.0052688121795654,10.0115697584,-3.6346975293999995,3.0628129279999996,22.330000000000002,-14.271250000000002,-46.06,9.06305487976,-0.9249056956533331,1.4005589481566667,-7.892499999999998,-12.904499999999997,-39.50916666666667,0.4299866666666667,0.15038800000000005,-0.07115266666666668,16.5,False
2.0176618099212646,9.4313102779,-3.8985062210499994,3.3463624060999995,23.065,-6.22125,-38.010000000000005,9.11318451323,-1.0720443453649997,1.4609378384299998,-6.891791666666665,-12.93425,-40.46145833333333,0.42814800000000003,0.15304800000000005,-0.07161933333333334,16.5,False
2.0300676822662354,9.33858840215,-4.15453823925,3.4043883541499995,20.0025,1.0325000000000002,-29.067500000000003,9.157730893966665,-1.2178669426466664,1.5370894176749998,-5.628583333333332,-12.714041666666667,-41.29329166666666,0.4263093333333334,0.15570800000000004,-0.07161933333333334,16.5,False
2.042435884475708,9.588638363849999,-3.7489548085499997,2.90189560815,22.242500000000003,2.1787500000000004,-20.88625,9.19741186875,-1.3629916333366663,1.6169498719499997,-4.066124999999999,-12.266625000000003,-42.020125,0.42491866666666667,0.15848,-0.07121333333333335,16.5,False
2.0547659397125244,9.598209654249999,-3.3343982930999996,2.5770699402,22.461250000000003,-0.5950000000000001,-19.45125,9.244111789826666,-1.5095719577749995,1.6947564868266665,-2.2852083333333355,-11.599875000000003,-42.646625,0.42352799999999996,0.161252,-0.07121333333333335,16.5,False
2.067079782485962,9.4612205604,-3.2147571630999994,2.5710878837,20.238750000000003,-1.5750000000000002,-21.6825,9.286444809658331,-1.6564314448499997,1.7666408657683332,-0.547458333333335,-10.819375000000003,-43.208958333333335,0.42206266666666664,0.16479866666666665,-0.07159600000000002,16.5,False
2.079460859298706,9.153144650649999,-3.3523444625999996,2.638685122149999,20.22125,0.11375000000000002,-23.485000000000003,9.321499660748332,-1.806780464883333,1.8348562500566665,0.9339166666666677,-9.950791666666671,-43.76458333333333,0.4205973333333334,0.16834533333333335,-0.07159600000000002,16.5,False
2.0926427841186523,8.91146956805,-3.3882368016,2.4975085887499997,22.680000000000003,5.197500000000001,-21.122500000000002,9.357531581066665,-1.9617954889866664,1.8947565758099998,2.2155,-9.002291666666672,-44.171166666666664,0.41923466666666676,0.17201333333333332,-0.07154000000000002,16.5,False
2.104947090148926,8.62552726735,-3.5629128513999997,2.6434707673499998,24.027500000000003,9.6425,-19.547500000000003,9.400582447678334,-2.113520382015,1.9582461354633334,3.201916666666668,-8.317166666666669,-44.06558333333333,0.4179000000000001,0.17535466666666666,-0.07154000000000002,16.5,False
2.1171958446502686,8.5052879317,-3.4695927699999998,2.2480568326999997,15.190000000000001,16.47625,-15.216250000000002,9.427581462681667,-2.23716948987,2.0360328101516667,4.292750000000001,-7.466375000000001,-43.783249999999995,0.4167333333333334,0.17874266666666666,-0.07155866666666669,16.5,False
2.1295878887176514,8.77986432505,-3.55872541185,1.75214434885,6.0287500000000005,14.595,-11.401250000000001,9.447202608001666,-2.361536444505,2.087877299818333,5.624500000000001,-6.023499999999999,-43.25358333333334,0.4156413333333334,0.18196266666666666,-0.07155866666666669,16.5,False
2.141993761062622,9.081958178299999,-3.3936206524499997,1.52841543575,8.277500000000002,7.822500000000001,-8.356250000000001,9.51972507297,-2.468635196043334,2.0767706149166667,6.465083333333335,-5.121083333333332,-42.480375,0.4147826666666667,0.18560266666666667,-0.07119466666666668,16.5,False
2.1544127464294434,8.930013943199999,-3.15314198115,1.9680965885,9.91375,5.075,-9.2575,9.593204666978332,-2.571067943511667,2.1015163886383332,6.990958333333335,-4.704874999999999,-41.402375000000006,0.4138960000000001,0.18915866666666667,-0.07119466666666668,16.5,False
2.166867971420288,8.73081146175,-3.5030922864000003,2.2827527603999997,7.97125,9.14375,-10.561250000000001,9.668100014358334,-2.657767882385,2.14540474316,7.939166666666669,-4.296541666666666,-40.28325,0.4132893333333334,0.19292933333333334,-0.07144200000000002,16.5,False
2.17915678024292,8.734400695649999,-3.3625139586499997,2.50588346785,6.518750000000001,13.886250000000002,-7.157500000000001,9.685826841786668,-2.7555745061600003,2.2000009788166666,8.924708333333335,-3.6519583333333325,-39.095875000000014,0.41235600000000006,0.19641066666666668,-0.07144200000000002,16.5,False
2.191581964492798,8.7266240222,-3.43549504795,2.0189440687499998,7.831250000000001,15.111250000000002,-5.1275,9.685587559526663,-2.846920508915,2.2588444745883325,9.958083333333331,-2.6987916666666667,-37.701416666666674,0.41127333333333344,0.19965866666666668,-0.07173133333333336,16.5,False
2.2039549350738525,8.53938565375,-3.4468609552999996,1.7790636030999998,6.702500000000001,13.23,-3.1412500000000003,9.690712187928332,-2.926003295845,2.283011982848332,11.22245833333333,-1.7546666666666666,-36.08179166666667,0.41015333333333337,0.20289733333333337,-0.07173133333333336,16.5,False
2.2165000438690186,8.565706702349999,-3.3942188580999995,1.7461622923499998,2.205,9.09125,0.0175,9.69669424442833,-2.9928029267616667,2.271606195121667,12.408083333333332,-1.0625416666666665,-34.31195833333334,0.4092013333333334,0.20653733333333338,-0.07098466666666668,16.5,False
2.228634834289551,8.627920089949999,-3.1016962952499996,1.92801680995,-2.9137500000000003,4.558750000000001,0.49000000000000005,9.706963441419997,-3.0523842095016667,2.2514466647166667,13.032541666666667,-0.7632916666666661,-32.43770833333334,0.40824933333333335,0.21017733333333338,-0.07098466666666668,16.5,False
2.2408478260040283,8.766105595099999,-3.2033912557499997,2.2002003806999997,-9.91375,3.5612500000000002,1.9600000000000002,9.687003312898332,-3.108615540601667,2.2532014012899997,12.835958333333334,-0.7008750000000001,-30.57658333333334,0.4076706666666666,0.21346266666666672,-0.07098466666666668,16.5,False
2.2530388832092285,9.1585285015,-2.8642086522,2.3712871966,-17.045,8.16375,4.305000000000001,9.644710173443334,-3.160978475165,2.2900907497066663,12.023666666666665,-0.49845833333333295,-28.533166666666673,0.40685866666666665,0.21680400000000005,-0.07103133333333336,16.5,False
2.2652108669281006,10.09591675505,-2.6225335696,2.3868405435,-19.41625,10.78875,7.175000000000001,9.592387119256669,-3.204607607238333,2.340778708449999,11.091791666666666,0.10120833333333333,-26.27770833333334,0.4060186666666667,0.21989333333333336,-0.07103133333333336,16.5,False
2.277509927749634,12.084950541299998,-2.27019044175,2.0267207422,-20.23,11.34875,10.211250000000001,9.571729084143335,-3.228715294933333,2.377269253099999,10.252666666666666,1.0036249999999998,-23.908500000000004,0.4053373333333334,0.22262800000000002,-0.07092866666666668,16.5,False
2.2898359298706055,15.279368712299998,-2.25104786095,1.4847464232999996,-12.258750000000001,3.0712500000000005,14.455000000000002,9.635039182101668,-3.2359137029216662,2.372603249029999,9.600791666666668,1.6954583333333337,-21.421458333333337,0.404824,0.22527866666666668,-0.07092866666666668,16.5,False
2.3021810054779053,18.751952510549998,-3.3008987767,1.3471591237999998,-10.780000000000001,-2.0562500000000004,20.8075,9.816056211791668,-3.2402806041666663,2.337329055868333,9.267708333333331,1.9880000000000004,-18.806083333333333,0.40458133333333335,0.22795733333333337,-0.07098000000000002,16.5,False
2.316758155822754,19.5996099166,-5.0069812905,1.8287146720499998,-29.487500000000004,-3.99,46.08625000000001,10.101480067595,-3.2704899894916664,2.304268223611666,8.637416666666667,2.176708333333333,-16.026500000000002,0.40430133333333335,0.23008533333333336,-0.07098000000000002,16.5,True
2.3291280269622803,19.5996099166,-6.355336825599999,2.069791549,-59.307500000000005,-4.59375,79.23125,10.389436327316668,-3.353122129945,2.2788046031099993,7.053958333333332,2.498416666666666,-12.272750000000004,0.4041800000000001,0.23187733333333335,-0.07094266666666668,16.5,True
2.3415398597717285,19.5996099166,-8.3557365192,2.6374887108499996,-83.58000000000001,-18.340000000000003,111.58875,10.675558089711668,-3.4893136162616667,2.2652652152316666,4.238499999999998,2.7311666666666667,-7.445374999999999,0.40431066666666676,0.2334173333333334,-0.07094266666666668,16.5,True
2.3539669513702393,19.5996099166,-10.394421374399998,4.1898323726,-86.52000000000001,-33.7575,148.21625,10.961699792295,-3.69762876378,2.2873988242816665,0.4911666666666638,2.400125,-1.5085000000000004,0.40424533333333346,0.23464933333333335,-0.07124600000000002,16.5,True
2.3664259910583496,18.1124706707,-10.8658074266,5.388636495199999,-79.7475,-33.696250000000006,189.39375,11.252507498948335,-3.9518661650299993,2.366780714036666,-3.235750000000002,1.706833333333332,5.703833333333334,0.4044040000000001,0.23554533333333333,-0.07124600000000002,16.5,True
2.38203501701355,13.100703734999998,-8.7493558369,5.449055265849999,-87.07125,-18.305000000000003,224.75250000000003,11.46532912903,-4.185505351731666,2.464547457435,-6.756750000000001,1.3174583333333325,14.280000000000001,0.4047120000000001,0.23534933333333333,-0.07128333333333335,16.5,True
2.3944058418273926,8.7050886188,-6.32482833745,5.0757749402500005,-102.70750000000001,-5.433750000000001,237.36125,11.530553485068335,-4.315774602113333,2.526322160891666,-10.59275,1.2255833333333332,23.49316666666667,0.40509466666666677,0.23479866666666668,-0.07128333333333335,16.5,True
2.4068479537963867,4.342973019,-3.2350961551999995,4.505086750149999,-118.86875,13.650000000000002,235.50625000000002,11.457612276145001,-4.3591046313616655,2.5756143064516666,-15.01354166666667,1.3477916666666652,32.6375,0.4055800000000001,0.23295066666666667,-0.0712506666666667,16.5,True
2.4191620349884033,0.45284167705,0.19800607015,2.74277290525,-110.55625,33.355000000000004,216.20375,11.254980082301666,-4.303252163839999,2.6057040506466667,-19.643750000000004,1.9830416666666666,41.188,0.4058973333333334,0.231,-0.0712506666666667,16.5,True
2.4314889907836914,-2.97966234265,3.4689945643499995,0.42173498325,-77.17500000000001,47.53875000000001,180.19750000000002,10.901799466541664,-4.1372102155883335,2.584567451013333,-23.63579166666667,3.2109583333333327,48.7165,0.4062893333333334,0.22739733333333334,-0.07134400000000002,16.5,True
2.44400691986084,-5.595017444450001,4.6145583840999995,-0.94815595525,-34.063750000000006,59.77125000000001,116.13000000000001,10.440543030014998,-3.8838302424366664,2.4956342110466663,-26.421208333333343,4.9665,54.58920833333333,0.40688666666666673,0.22330000000000005,-0.07134400000000002,16.5,True
2.4569599628448486,-7.022934330999999,3.5545379723,-1.8819549748999997,-10.780000000000001,52.19375,58.275000000000006,9.896514871716665,-3.6027932280666666,2.3723041462049994,-27.92358333333334,7.170624999999999,58.58883333333334,0.4076706666666666,0.21815733333333337,-0.0708166666666667,16.5,True
2.4692680835723877,-7.049853585249999,1.9962122540499998,-2.00697995575,-1.7500000000000002,47.31125,17.42125,9.358528590483331,-3.37734945877,2.230130603388333,-28.85225000000001,8.717333333333332,60.79704166666668,0.4085666666666667,0.2129306666666667,-0.0708166666666667,16.5,True
2.481621026992798,-6.090929928299999,1.1054840412,-1.9046867895999997,-0.21875000000000003,37.651250000000005,-6.527500000000001,8.837272127261665,-3.2063424036233332,2.078266129041667,-29.676500000000008,9.972666666666667,61.75225000000001,0.4095093333333333,0.20714400000000005,-0.0706766666666667,16.5,True
2.494028091430664,-3.9577285803999995,0.76630143765,-1.62293192845,-6.0200000000000005,28.761250000000004,-20.95625,8.375098442071666,-3.0592037539116665,1.9347565936066669,-30.545083333333345,10.639999999999999,61.94854166666667,0.4102839999999999,0.20131066666666672,-0.0706766666666667,16.5,True
2.506507158279419,-1.22572337685,0.9140582331999999,-1.66480632395,-7.525,25.042500000000004,-36.3125,7.995596777711665,-2.9125835490966674,1.8016358962933334,-31.18383333333334,10.963166666666666,61.45212500000001,0.41130133333333324,0.1952253333333334,-0.07044333333333336,16.5,True
2.51882004737854,2.3503499988499996,1.0606186174499999,-1.9692929997999997,7.262500000000001,15.190000000000001,-55.46625,7.695118079716665,-2.763889564695,1.6881164041116667,-31.51925000000001,11.303833333333333,60.32133333333334,0.41227199999999986,0.18886933333333336,-0.07044333333333336,16.5,True
2.5311501026153564,6.1375899689999995,0.2165504453,-2.4903301209499995,21.315,3.4562500000000003,-68.85375,7.504629460568333,-2.6184857113683337,1.5624732774233334,-31.387416666666677,11.452,58.553833333333344,0.41321466666666656,0.1830266666666667,-0.07027066666666668,16.5,True
2.5435409545898438,7.1461646948999995,-0.30089744194999996,-1.4338989430499998,9.00375,-8.793750000000001,-70.77000000000001,7.400860720481666,-2.495374988598334,1.431845103651667,-31.15000000000001,11.372375,56.57691666666668,0.4141666666666667,0.1768946666666667,-0.07027066666666668,16.5,True
2.5558509826660156,9.14118053765,-0.7968099257999999,-0.048454657649999996,-1.33,-25.016250000000003,-59.61375,7.378069085216667,-2.3965912955950004,1.3264213279333334,-31.27075000000001,10.489791666666667,54.586000000000006,0.415464,0.17102400000000004,-0.07039666666666669,16.5,True
2.568222999572754,10.2317094376,-0.9912267620499999,1.7132609816,-15.601250000000002,-34.133750000000006,-44.660000000000004,7.406802896605001,-2.317269226405001,1.2640085384500002,-31.64875000000001,9.039333333333333,52.990000000000016,0.41691066666666665,0.16538666666666668,-0.07039666666666669,16.5,True
2.5803630352020264,11.40957636245,-0.42891345105,2.9108686929000003,-37.712500000000006,-35.84,-31.675000000000004,7.4753373239066665,-2.237608174013334,1.2722238960433332,-32.692916666666676,7.352333333333334,51.88079166666668,0.4182266666666667,0.159992,-0.07051333333333336,16.5,True
2.5925681591033936,11.88814088245,0.37148570864999997,3.72741940515,-39.71625,-36.338750000000005,-25.891250000000003,7.566723207038334,-2.1311076281250005,1.324247847405,-34.25012500000001,5.760416666666667,50.962916666666686,0.4193746666666666,0.15419600000000003,-0.07051333333333336,16.5,True
2.604783058166504,11.681161727549998,0.42771703974999997,4.3525443094,-34.34375,-32.313750000000006,-28.7875,7.670472006936667,-1.9999610094566667,1.401436316443333,-35.49700000000001,4.325125000000001,50.056416666666685,0.41999066666666673,0.14854933333333334,-0.07105933333333335,16.5,True
2.6169660091400146,11.194222328449998,0.11306086784999998,4.164109529649999,-34.431250000000006,-25.523750000000003,-34.3175,7.768777135420001,-1.8836498909083341,1.482014617498333,-36.48050000000001,3.228458333333334,48.991541666666684,0.42060666666666674,0.14290266666666665,-0.07105933333333335,16.5,True
2.629080057144165,10.796415571199999,-0.15433705769999997,3.8015969057499994,-30.843750000000004,-22.750000000000004,-36.925000000000004,7.838827017034999,-1.7824534351166668,1.5390036757550003,-37.155708333333344,2.243791666666667,47.73095833333335,0.4214373333333334,0.1373026666666667,-0.07051333333333336,16.5,True
2.6413650512695312,10.430911919049999,-0.58325050875,3.361915753,-23.54625,-17.885,-38.080000000000005,7.880302608768333,-1.7060426334233334,1.5801203440983334,-37.46720833333334,1.2413333333333345,46.31375000000001,0.4222680000000001,0.1317026666666667,-0.07051333333333336,16.5,True
2.6538751125335693,9.966106128999998,-1.04745809315,2.8965117572999994,-17.78875,-16.1,-36.53125,7.867042383526668,-1.6491931564850002,1.6061024094966667,-37.50366666666667,0.3036250000000005,44.766458333333354,0.42294000000000015,0.12645733333333337,-0.07051333333333336,16.5,True
2.666245222091675,9.410971285799999,-1.4111671283499998,2.5286152825499997,-20.15125,-18.0425,-27.667500000000004,7.774160986270001,-1.6082958302133328,1.6261223585833333,-37.46341666666668,-0.5897499999999994,43.19670833333336,0.4236400000000001,0.12110933333333336,-0.07076533333333335,16.5,True
2.6786932945251465,9.442676185249999,-0.8440681721499999,2.3868405435,-24.736250000000002,-23.633750000000003,-17.815,7.550292491851667,-1.5565311012999994,1.6628920658700002,-37.927166666666686,-1.2535833333333326,41.86495833333336,0.4240693333333335,0.11573333333333338,-0.07076533333333335,16.5,True
2.6910452842712402,9.20817957045,-0.4414757697,2.5830519966999996,-28.691250000000004,-26.206250000000004,-15.9425,7.211408991126667,-1.4547763202349995,1.6907485089716665,-38.250625000000014,-2.0116249999999996,40.48129166666669,0.4243680000000002,0.11079600000000003,-0.07080733333333336,16.5,True
2.70344614982605,9.035298137599998,-0.09571290399999999,2.83489657535,-29.758750000000003,-20.7375,-17.150000000000002,6.860022992316667,-1.281934767761666,1.7186647726383333,-37.89945833333335,-2.7060833333333325,38.02633333333336,0.4245080000000002,0.10619466666666671,-0.07080733333333336,16.5,True
2.715780258178711,9.43190848355,-0.12382856954999999,3.05742907715,-17.106250000000003,-8.776250000000001,-23.021250000000002,6.5106908329049995,-1.0491729493466666,1.7416358695983336,-36.48429166666668,-3.0712499999999996,34.30700000000002,0.42443333333333355,0.10138800000000003,-0.07084466666666668,16.5,True
2.72841215133667,9.8201439504,-0.53659046805,2.31086842595,-11.410000000000002,-12.066250000000002,-23.161250000000003,6.156712609611666,-0.723489853298333,1.7329618876733333,-34.133166666666675,-2.451166666666667,29.33991666666669,0.4245546666666669,0.09688933333333337,-0.07084466666666668,16.5,True
2.740727186203003,9.6801638283,-0.77706913935,2.3856441322,-12.906250000000002,-5.670000000000001,-17.08875,5.835416354996666,-0.37369906955500004,1.6531612539633334,-31.72225000000001,-1.5881250000000002,23.093583333333346,0.4245733333333335,0.09252133333333336,-0.07085400000000001,16.5,True
2.7530250549316406,9.7435736272,-0.6400800454999999,2.20199499765,-21.253750000000004,-0.74375,-6.0200000000000005,5.5998230298383325,-0.05589234789833335,1.548555025966667,-29.491583333333345,-0.8245416666666682,15.704499999999992,0.42444266666666675,0.08924533333333336,-0.07085400000000001,16.5,True
2.7653870582580566,9.887142983199999,0.027517459899999996,1.5936198515999997,-26.845000000000002,1.3562500000000002,2.5025000000000004,5.545964581149999,0.19068802103166657,1.4428720278,-27.271125000000005,-0.28466666666666623,7.8817083333333295,0.4244520000000001,0.08585733333333333,-0.07082600000000003,16.5,True
2.78098726272583,9.86740219675,0.84047893825,1.256231865,-26.188750000000002,-7.148750000000001,4.1825,5.628975585181666,0.3797608868083333,1.3259826437899997,-24.532375000000005,-0.34591666666666737,0.09245833333332978,0.4243586666666668,0.08376666666666667,-0.07082600000000003,16.5,True
2.800183057785034,9.72861848595,0.5503491979999999,1.99262302015,-22.12,-15.225000000000001,-6.588750000000001,5.855775287284998,0.480060034125,1.2376675496616667,-21.394916666666674,-1.3778333333333341,-7.588291666666665,0.42428400000000016,0.08155466666666668,-0.07093800000000001,16.5,True
2.818120241165161,9.460622354749999,-0.19262221929999998,2.6123640735499998,-11.707500000000001,-5.477500000000001,-4.9262500000000005,6.196254003076665,0.441655231395,1.2475578830749998,-18.636625000000002,-3.137750000000001,-14.735874999999998,0.4240040000000001,0.08091066666666666,-0.07114800000000002,16.5,False
2.8393402099609375,9.032307109349999,-0.3218346397,2.9024938137999996,-13.895000000000001,4.62,2.2487500000000002,6.649195381068333,0.28362923885333313,1.3476177481316662,-16.982291666666665,-4.934125,-20.048583333333333,0.4238453333333334,0.08017333333333333,-0.07093800000000001,16.5,False
2.860748052597046,11.017153456049998,0.80099736535,1.34656091815,-8.041250000000002,4.812500000000001,0.5162500000000001,7.1863441743916665,0.10831510302666665,1.4651651583566665,-16.629375,-6.911333333333333,-23.167375,0.4235000000000001,0.08048133333333334,-0.07093800000000001,16.5,False
2.8828673362731934,9.356534571649998,0.21894326790000002,2.4789642136,-3.7362500000000005,-8.443750000000001,-7.0875,7.7200034347566655,0.03924229063999997,1.6019548503233334,-16.71425,-8.823208333333334,-24.763375000000007,0.42308000000000007,0.08101333333333333,-0.0708166666666667,16.5,False
2.907069206237793,9.361918422499999,-0.31345976059999997,2.7798616555499995,1.88125,8.16375,-7.07,8.252466283821667,-0.022313070744999997,1.7613567158599996,-16.706958333333333,-10.35941666666667,-25.31083333333334,0.42245466666666676,0.08177866666666665,-0.07105933333333335,16.5,False
2.922638177871704,9.558728081349999,-0.37328032559999996,2.42931314465,-1.61,10.281250000000002,-0.25375000000000003,8.743792524354998,-0.05920241916166667,1.9094724347999998,-16.563750000000002,-11.101708333333336,-25.107541666666673,0.4219506666666668,0.08222666666666667,-0.07114333333333335,16.5,False
2.9436252117156982,10.021141048799999,0.011964112999999998,2.1008982428,-0.9975,3.2987500000000005,1.6975000000000002,9.169076861128332,-0.09304091876333338,2.034337894143333,-16.345583333333334,-11.678625000000002,-24.154083333333343,0.4213906666666667,0.08337466666666665,-0.07085400000000001,16.5,False
2.955965280532837,9.864411168499998,0.19800607015,2.5154547582499998,0.9975,-0.665,-1.93375,9.50419166625833,-0.12604193045499995,2.1658633763900004,-16.193333333333335,-12.38766666666667,-22.654916666666672,0.4208306666666667,0.08452266666666668,-0.07085400000000001,16.5,False
2.968466281890869,9.587441952549998,0.19980068709999999,3.1842486749499996,9.52875,2.205,-7.236250000000001,9.720223666661665,-0.1566899999233333,2.3325035302916666,-16.506583333333335,-12.754875000000004,-20.730500000000006,0.4200933333333334,0.08506400000000001,-0.07077933333333335,16.5,False
2.9807631969451904,9.499505721999999,-0.37507494255,3.3320054704999995,15.767500000000002,13.50125,-10.2725,9.845288527888332,-0.1751147339433333,2.498066914023333,-16.638125000000006,-12.682833333333338,-18.720916666666675,0.41935599999999995,0.08560533333333334,-0.07077933333333335,16.5,False
2.9930973052978516,9.66161945315,-0.82013994615,2.76670113125,13.457500000000001,21.673750000000002,-10.325000000000001,9.893902707044997,-0.17196418418666667,2.632045039435,-16.244958333333336,-11.567500000000003,-16.77491666666667,0.41839466666666675,0.08618400000000001,-0.07091933333333335,16.5,False
3.005429267883301,9.7064848769,-0.9984052298499999,2.2683958248,13.912500000000001,24.578750000000003,-5.468750000000001,9.899326438271665,-0.16889339518333332,2.7002404835349996,-15.656958333333336,-9.831500000000002,-15.281000000000002,0.4174333333333334,0.08676266666666667,-0.07091933333333335,16.5,False
3.0178842544555664,9.77886776055,-0.7992027483999999,1.8897316483499997,9.957500000000001,21.90125,1.33,9.867083153736665,-0.16903297650166668,2.70089850975,-14.437791666666667,-7.822208333333334,-14.111125000000005,0.41670533333333337,0.08706133333333335,-0.07072800000000003,16.5,False
3.0303242206573486,9.7962157244,-0.27218357075,1.8430716076499998,6.343750000000001,16.3625,4.19125,9.816993400643332,-0.18297116814666667,2.6488546181999997,-12.809708333333337,-5.980333333333332,-13.012125000000003,0.4159773333333332,0.08736000000000002,-0.07072800000000003,16.5,False
3.042694091796875,8.934201382749999,0.2500499617,2.7708885708,3.2725000000000004,20.9475,5.180000000000001,9.801340352801665,-0.25308087032666665,2.579422882423333,-11.311416666666668,-4.146625,-11.993916666666669,0.41609866666666656,0.08747200000000001,-0.07062066666666668,16.5,False
3.05499005317688,9.7208418125,0.33619157529999993,2.5914268758,8.881250000000001,21.927500000000002,3.33375,9.719266537621667,-0.27583262521499996,2.512064926233333,-9.955750000000002,-2.570458333333333,-10.859333333333336,0.41621999999999987,0.08758400000000002,-0.07062066666666668,16.5,False
3.067324161529541,9.668199715299998,0.14775679555,2.2905294338499997,11.4975,29.303750000000004,-2.1,9.668020253605,-0.2740579484533333,2.4511875312516667,-8.533583333333336,-0.7974166666666664,-9.644250000000001,0.4162386666666666,0.08803200000000001,-0.07064866666666668,16.5,False
3.0797762870788574,9.678369211349999,-0.04247260115,1.8448662245999998,14.420000000000002,30.301250000000003,-3.6400000000000006,9.633763010048334,-0.2616950316866667,2.395893389003333,-7.15925,0.852833333333334,-8.511708333333333,0.4162573333333333,0.08848000000000002,-0.07064866666666668,16.5,False
3.092205286026001,9.59222759775,-0.060418770649999995,1.5553346899999998,11.9175,29.618750000000002,-4.4275,9.6119683842,-0.237308181355,2.347139628528333,-5.963416666666668,2.416458333333335,-7.352333333333331,0.4162946666666667,0.088676,-0.07053200000000003,16.5,False
3.1045901775360107,9.79202828485,-0.1280160091,1.3579268255,7.315,25.095000000000002,-5.075,9.595158805435002,-0.208235386765,2.3114068110349995,-5.051666666666667,3.9660833333333327,-6.323916666666665,0.41630400000000006,0.08897466666666666,-0.07053200000000003,16.5,False
3.116950273513794,9.757930562799999,-0.06999006104999998,1.4889338628500002,5.678750000000001,22.128750000000004,-7.157500000000001,9.597471867281666,-0.17788642012166664,2.2803001172349995,-4.109,5.420041666666667,-5.738833333333331,0.41631333333333337,0.0892733333333333,-0.07053200000000003,16.5,False
3.1294782161712646,9.77049288145,-0.3529413335,1.92323116475,6.3875,22.863750000000003,-7.813750000000001,9.608000286721666,-0.15621143540333332,2.2567507548133334,-3.054041666666666,7.001458333333334,-5.452416666666665,0.41676133333333343,0.08927333333333332,-0.07039200000000002,16.5,False
3.1418871879577637,10.111470101950001,0.0526420972,1.4500504955999998,4.777500000000001,29.47875,-5.08375,9.632766000631666,-0.15786647103499998,2.232084741845,-1.8649166666666652,8.625458333333334,-5.133333333333334,0.41720933333333343,0.08927333333333332,-0.07039200000000002,16.5,False
3.154320240020752,11.035697831199998,0.57248280705,0.7645068207,4.550000000000001,31.071250000000003,-4.952500000000001,9.677930527206664,-0.15461622033666664,2.188674951843333,-0.8449583333333331,10.325875,-4.685041666666668,0.41781600000000024,0.08944133333333332,-0.06997666666666667,16.5,False
3.166835308074951,12.1758778001,0.85244305125,0.12442677519999999,7.1225000000000005,22.77625,-6.571250000000001,9.760183804081665,-0.1461615804833333,2.1040886729333335,-0.0956666666666659,11.521999999999998,-4.094708333333334,0.41842266666666694,0.08960933333333333,-0.06997666666666667,16.5,False
3.179182291030884,13.450055834599999,0.8793623054999999,0.46839502395,4.83,13.912500000000001,-4.83875,9.850971481563331,-0.10450652705499998,2.028495418961666,0.4946666666666675,12.485375,-3.5770000000000013,0.41940266666666687,0.0898333333333333,-0.06976200000000002,16.5,False
3.193648099899292,15.64726518705,1.1282158559,0.705882667,6.4750000000000005,10.543750000000001,0.0175,10.000921697829996,-0.044666021866666676,1.9666010743749998,1.1284583333333333,12.99725,-3.228458333333334,0.4203826666666669,0.09005733333333334,-0.06976200000000002,16.5,True
3.2060813903808594,17.11645826345,0.7028916387499999,0.9439685157,10.228750000000002,14.385000000000002,3.43875,10.211689488513331,-0.0013758729950000233,1.926959979968333,2.232708333333334,13.31575,-3.1295833333333345,0.42145600000000016,0.09028133333333334,-0.06987866666666669,16.5,True
3.2189154624938965,17.62493306595,0.2105683888,1.0396814197,10.36875,21.376250000000002,15.575000000000001,10.46879827688333,0.00544367141499998,1.9083757244416661,3.5014583333333333,13.960333333333331,-3.0855416666666673,0.42252933333333353,0.09050533333333335,-0.06987866666666669,16.5,True
3.2311294078826904,17.3467674387,-0.63589260595,1.5732808595,7.735,21.953750000000003,30.17,10.72273657530833,-0.027477579523333302,1.8998812042116664,4.661708333333333,15.031916666666664,-2.4444583333333343,0.42350933333333346,0.09114,-0.06997666666666667,16.5,True
3.2465872764587402,16.7389904983,-1.43569356,2.4323041728999995,-5.635000000000001,25.786250000000003,56.026250000000005,10.98750239599833,-0.06691927204666666,1.885225165786666,5.209458333333333,16.296874999999996,-0.7539583333333337,0.4246200000000001,0.09185866666666667,-0.06997666666666667,16.5,True
3.2587223052978516,16.308880635949997,-1.5086746492999996,2.5393829842499995,-10.342500000000001,29.225,73.0275,11.23204886571833,-0.1033898765083333,1.8762520810366665,5.289958333333334,17.283291666666667,1.4160416666666662,0.4255626666666667,0.09246533333333334,-0.06976666666666669,16.5,True
3.270846366882324,15.102898045549999,-1.43270253175,2.2253250179999995,-9.301250000000001,30.458750000000002,82.46000000000001,11.452587348684995,-0.1536989716733333,1.8821942571599999,5.464958333333334,18.1195,3.8322083333333334,0.42650533333333335,0.093072,-0.06976666666666669,16.5,True
3.2829842567443848,13.231112566699998,-1.32981115995,1.6618152956999999,-15.575000000000001,28.7875,86.95750000000001,11.643494711788328,-0.24277179295833323,1.868136424385,5.381541666666666,19.445125,6.809833333333334,0.42760666666666663,0.09308133333333335,-0.06957066666666668,16.5,True
3.2951972484588623,10.909476439049998,-0.9990034354999999,1.3435698898999997,-25.76875,24.876250000000002,88.48875000000001,11.751211609164995,-0.27848467026333323,1.8240087876033335,4.774875,20.407333333333334,10.017291666666665,0.4288666666666666,0.09341733333333334,-0.06957066666666668,16.5,True
3.3075482845306396,8.061419339399999,-0.9367900479,1.8041882403999998,-31.491250000000004,21.7175,87.36000000000001,11.759925471466664,-0.29738796880333324,1.7811373826866668,3.7983749999999996,20.817124999999997,13.153583333333332,0.43021999999999994,0.09361333333333334,-0.06984133333333335,16.5,True
3.319932222366333,5.344369277099999,-0.8697910151,2.11824620665,-19.337500000000002,26.705000000000002,89.74000000000001,11.657771886634997,-0.3237289575916666,1.7894723814100002,2.860666666666667,21.25841666666667,16.0685,0.4313866666666666,0.09336133333333334,-0.06984133333333335,16.5,True
3.3325154781341553,4.126422573699999,-0.37926238209999996,1.0600204117999998,-7.1312500000000005,31.290000000000003,85.96000000000001,11.481002117059997,-0.35226336709666667,1.7768701823833335,2.4120833333333334,22.209541666666667,19.021333333333335,0.4323946666666666,0.092512,-0.06895933333333336,16.5,True
3.3449113368988037,3.2973095427999994,-0.08793623055000001,-0.1280160091,-6.326250000000001,26.390000000000004,71.19875,11.28275676465,-0.36368909501166663,1.695833256996667,2.1005833333333337,23.250208333333333,21.83329166666667,0.43360799999999994,0.09175599999999999,-0.06895933333333336,16.5,True
3.3572604656219482,2.7457639335,0.1268195978,-0.7196413969499998,-13.335,13.728750000000002,56.376250000000006,11.066286080103334,-0.36386855670666657,1.5747963138133332,1.4032083333333327,23.814000000000004,24.339583333333334,0.4349426666666666,0.09056133333333334,-0.06896866666666668,16.5,True
3.3697304725646973,2.1451654609,0.4851447821499999,-0.6508477471999999,-12.731250000000001,-0.42875,44.205000000000005,10.835079596378334,-0.3425126150016667,1.4454841924716668,0.47512499999999974,23.519416666666668,26.420624999999998,0.4361559999999999,0.08906800000000001,-0.06896866666666668,16.5,True
3.382176399230957,1.67437761435,0.7423732116499998,0.20279171534999998,-8.540000000000001,-4.19125,35.77,10.57890799686,-0.29748766974499996,1.3461820545716667,-0.3753750000000008,22.639750000000006,28.100625,0.43728533333333325,0.08708000000000002,-0.06907133333333335,16.5,True
3.3946001529693604,2.23070886885,0.9655039191,0.44207397535,4.165,4.1475,29.618750000000002,10.311769293758333,-0.23892333661,1.2852647792133334,-0.928666666666668,21.70350000000001,29.333500000000004,0.4383119999999999,0.08512933333333336,-0.06907133333333335,16.5,True
3.4069223403930664,3.4217363179999998,1.5158531170999998,-0.12741780345,12.468750000000002,11.068750000000001,21.8225,10.07294565809,-0.1797209174483333,1.2400404320733334,-0.8942499999999999,21.27533333333334,30.135291666666667,0.4392826666666666,0.08305733333333336,-0.06908533333333336,16.5,True
3.419208288192749,4.765306207899999,1.91844551955,-0.9774680320999999,16.625,9.012500000000001,6.536250000000001,9.82768134159,-0.06965107784833328,1.1619147741833333,-0.7072916666666674,21.02858333333334,30.541583333333335,0.439936,0.0810226666666667,-0.06908533333333336,16.5,True
3.431690216064453,5.5782676862499985,1.6438691261999998,-1.2466605746,21.6475,-1.33,-7.857500000000001,9.6933243526,0.0051844489666666915,1.0461021603433331,-0.29691666666666744,20.62375000000001,30.433083333333336,0.4407293333333333,0.07887600000000003,-0.06890800000000001,16.5,True
3.4440884590148926,6.13340252945,1.1712866627,-0.8338986760999999,25.856250000000003,-11.287500000000001,-16.79125,9.572407050546666,0.0526221570116667,0.9329615317399998,0.1749999999999994,19.515708333333343,29.99004166666667,0.4416439999999999,0.0762906666666667,-0.06890800000000001,16.5,True
3.4565422534942627,6.735795619,0.7334001269,0.15433705769999997,26.582500000000003,-13.238750000000001,-17.42125,9.463174698856665,0.08430711627333337,0.8563313879749999,0.6075416666666673,18.097916666666677,29.504125000000002,0.44265199999999993,0.07397600000000003,-0.06898266666666668,16.5,True
3.4688363075256348,7.697710304199999,0.92781696315,0.5425725245499999,23.82625,-6.991250000000001,-13.90375,9.381439866878333,0.10883354792333337,0.812383212888333,0.9732916666666671,16.712208333333333,29.078583333333334,0.4436413333333332,0.07191333333333336,-0.06898266666666668,16.5,True
3.4810662269592285,8.5495551498,1.1389835575999998,0.5425725245499999,22.128750000000004,-5.10125,-13.597500000000002,9.326285305948334,0.14761721423166665,0.782632451895,1.416625,15.556625,28.773791666666668,0.4443973333333332,0.07014000000000002,-0.06895466666666669,16.5,True
3.4935781955718994,9.0795653557,1.3148560187,0.6699903279999999,21.813750000000002,-4.585000000000001,-13.588750000000001,9.292506626911663,0.19228323609833334,0.7538188797533335,1.9354999999999998,14.599666666666666,28.504583333333336,0.44515333333333335,0.06836666666666669,-0.06895466666666669,16.5,True
3.5059704780578613,9.534201649699998,1.399801221,0.8901300072,21.49875,-7.402500000000001,-13.912500000000001,9.275736928523331,0.238743874915,0.723170810285,2.4826666666666672,13.683833333333332,28.31383333333334,0.4456666666666667,0.06655600000000003,-0.06942133333333335,16.5,True
3.518399238586426,9.856634495049999,1.6181462832499998,0.8189435348499999,18.69875,-11.36625,-14.148750000000001,9.274979201366666,0.30139594665833336,0.6823731849549998,2.993958333333334,12.502874999999998,28.055416666666677,0.44618,0.06474533333333336,-0.06942133333333335,16.5,True
3.5306503772735596,10.1288180658,1.7706887239999998,1.03190474625,14.665000000000001,-14.638750000000002,-14.700000000000001,9.256973211301666,0.3562713449516667,0.65910298517,3.441375000000001,11.034625,27.74595833333334,0.4466280000000001,0.06316800000000003,-0.06918800000000001,16.5,True
3.5428802967071533,10.25503945795,1.8897316483499997,1.27836547405,14.288750000000002,-14.682500000000001,-14.840000000000002,9.216494628985,0.3932205139333334,0.6804190464983333,3.722833333333334,9.604291666666667,27.428625000000007,0.44707600000000003,0.06159066666666669,-0.06918800000000001,16.5,True
3.5550613403320312,10.080961613799998,1.6707883804499999,1.8197415872999996,15.172500000000001,-10.508750000000001,-14.42875,9.134440753993333,0.4244468488633334,0.7258228553333333,4.004875,8.531541666666667,27.148041666666668,0.44725333333333334,0.05982666666666669,-0.06918800000000001,16.5,True
3.5681445598602295,9.967900745949999,1.5128620888500002,1.8897316483499997,13.396250000000002,-4.5062500000000005,-12.285000000000002,8.997132617129997,0.4441278147483334,0.7704290566349999,4.340000000000001,7.859249999999999,26.791625000000007,0.447496,0.05828666666666669,-0.06948200000000002,16.5,True
3.580340623855591,9.9565348386,1.6636099126499997,1.5403795487499998,12.976250000000002,-2.5200000000000005,-10.64,8.781698822376665,0.45940199901166656,0.8070791227916667,4.491958333333334,7.384125000000001,26.37191666666667,0.4475053333333333,0.05685866666666669,-0.06948200000000002,16.5,True
3.592564582824707,9.90090171315,1.5559328956499998,1.3483555351,12.416250000000002,-3.7100000000000004,-11.655000000000001,8.531987843878332,0.49431726878333326,0.8279365597883335,4.578583333333333,6.691416666666669,25.791791666666672,0.4474493333333333,0.05534666666666668,-0.06995800000000002,16.5,True
3.604804515838623,9.92482993915,1.4614164029499999,1.0109675485,10.42125,-6.291250000000001,-14.350000000000001,8.276693612646666,0.5524429177749999,0.8307281861550002,4.644791666666666,5.815541666666667,24.71875000000001,0.44746800000000003,0.05354533333333335,-0.06995800000000002,16.5,True
3.6170294284820557,9.799206752649999,1.17427769095,0.9337990196499999,11.68125,-8.776250000000001,-16.00375,8.03354295611,0.6289733605983334,0.7987441240683336,4.977583333333333,4.797916666666666,22.809208333333345,0.44718800000000003,0.051968,-0.06958000000000002,16.5,True
3.6294023990631104,9.3990071728,0.5419743188999999,1.36809632155,13.343750000000002,-6.562500000000001,-14.918750000000001,7.800801077883333,0.7112864580383333,0.7505287486783335,5.683708333333333,3.598291666666667,20.202291666666678,0.44695466666666667,0.05059599999999999,-0.06958000000000002,16.5,True
3.6448965072631836,9.258428845049998,0.30329026454999997,1.36809632155,13.361250000000002,1.3037500000000002,-5.29375,7.582057211866666,0.7759724289916666,0.7172286341616668,6.495416666666667,2.5057083333333336,17.28387500000001,0.44717866666666667,0.049345333333333324,-0.06976200000000002,16.5,True
3.6571285724639893,9.327222494799999,0.6831508522999998,0.9643075077999999,6.18625,3.5525,0.8487500000000001,7.404210672121667,0.8345567023149999,0.6914659108349999,7.216125000000001,1.5907500000000003,14.382083333333336,0.4473186666666667,0.04846799999999999,-0.06976200000000002,16.5,True
3.6694424152374268,9.56590654915,1.2155538808,0.65982083195,1.435,-0.56,2.6862500000000002,7.303373139719999,0.9040681988449998,0.6684748736866665,7.989916666666668,0.7644583333333334,11.521708333333331,0.44738400000000006,0.04755333333333333,-0.07008866666666669,16.5,True
3.6817843914031982,9.602995299449999,1.5517454561000001,0.68614188055,0.8487500000000001,-5.285,0.5425000000000001,7.2997041450666655,0.9810971463766666,0.6438686812833333,8.997625,-0.07116666666666607,8.667458333333332,0.44723466666666667,0.04709600000000001,-0.07008866666666669,16.5,True
3.694211483001709,9.678369211349999,1.5840485612,0.9361918422500001,3.2462500000000003,-5.29375,-3.19375,7.392126917991665,1.0685747525949998,0.59964134356,10.011750000000001,-1.0187916666666663,5.719875000000001,0.44669333333333333,0.04660133333333335,-0.06986000000000002,16.5,False
3.7067835330963135,9.6358966102,1.4063814831500001,1.0654042626499998,9.765,-1.44375,-5.643750000000001,7.554938555733332,1.145583759938333,0.5760521007616665,10.658666666666669,-2.138208333333333,2.588541666666665,0.44631066666666663,0.046704000000000016,-0.06986000000000002,16.5,False
3.7190754413604736,9.625128908499999,1.08693966605,0.9044869427999999,12.24125,2.2750000000000004,-5.862500000000001,7.74891670784,1.1949556662516663,0.5955137245749998,11.232083333333332,-3.145041666666667,-0.2925416666666673,0.4461333333333333,0.046806666666666684,-0.06998600000000002,16.5,False
3.7315385341644287,9.61137017855,0.8925228297999999,0.7956135144999998,6.982500000000001,3.4562500000000003,-3.0625000000000004,7.967720394421666,1.2283156013333327,0.6362914097166665,11.871708333333334,-3.807416666666668,-2.672833333333335,0.4458346666666667,0.04734800000000002,-0.06998600000000002,16.5,False
3.743980646133423,9.57308501695,1.02592268975,0.83569329305,0.9712500000000001,0.8662500000000001,0.0175,8.201917906396666,1.2534601788216662,0.6872984114733333,12.447166666666668,-3.9707500000000016,-4.464833333333335,0.44563866666666674,0.048197333333333356,-0.06937933333333336,16.5,False
3.7565104961395264,9.5653083435,1.26640136105,0.9463613382999998,-2.12625,-1.7325000000000002,0.8575,8.453662784105001,1.2730015633883331,0.7294519696099999,12.833916666666669,-3.8756666666666684,-5.805333333333334,0.44552666666666674,0.04954133333333335,-0.06937933333333336,16.5,False
3.768838405609131,9.631110965,1.4608181972999998,1.0875378717,-0.8575,-4.0075,-1.155,8.715816440123332,1.2895120393283335,0.7508278515033332,12.865416666666668,-3.8456250000000014,-6.922708333333335,0.4453586666666667,0.05091333333333335,-0.06995333333333335,16.5,False
3.7811646461486816,9.517451891499999,1.36929273285,1.3106685791500001,2.24,-1.995,-5.0575,8.947142564978332,1.3006187242299998,0.7763911729466665,12.576958333333334,-4.187458333333335,-7.915250000000003,0.4452466666666667,0.05240666666666668,-0.06995333333333335,16.5,False
3.7936315536499023,9.3942215276,1.12163559375,1.34416809555,6.090000000000001,1.4612500000000002,-6.790000000000001,9.130392895761666,1.28626178863,0.8361519173816666,12.245333333333331,-4.603375000000001,-8.651125000000004,0.4452,0.05408666666666668,-0.06972933333333335,16.5,False
3.8060617446899414,9.331409934349999,0.8231309743999999,1.2179467034,5.6000000000000005,5.223750000000001,-5.3725000000000005,9.273822670443334,1.2569297715916667,0.9184450746333332,11.847208333333331,-4.711291666666666,-8.871625000000003,0.4450133333333333,0.05587866666666667,-0.06972933333333335,16.5,False
3.818629503250122,9.3367937852,0.8159525066,1.1312068841499998,3.6750000000000003,6.273750000000001,-1.7412500000000002,9.389136779575,1.2334402297349998,0.9950353380216667,11.218958333333331,-4.349041666666666,-8.608833333333337,0.4448826666666666,0.05765200000000001,-0.06993000000000002,16.5,False
3.8309895992279053,9.37806997505,1.0438688592499998,1.05702938355,0.32375000000000004,5.687500000000001,0.17500000000000002,9.490193654048333,1.2309676463816666,1.0432706536,10.418624999999999,-3.6974583333333344,-8.029875000000002,0.4446586666666666,0.059154666666666675,-0.06993000000000002,16.5,False
3.8434195518493652,9.54676396835,1.2831511192499998,0.9044869427999999,-1.9600000000000002,3.1412500000000003,-0.3325,9.566086010844998,1.2459227876316663,1.06420785135,9.510666666666664,-3.150583333333335,-7.472500000000002,0.4443599999999999,0.06049866666666667,-0.07017733333333336,16.5,False
3.8556764125823975,9.53719267795,1.4255240639499998,0.80578301055,-0.21875000000000003,0.9712500000000001,-3.0275000000000003,9.616853730341665,1.2577473193133328,1.0753743568166667,8.68175,-2.87,-7.053666666666669,0.4442946666666666,0.061553333333333335,-0.07017733333333336,16.5,False
3.8681745529174805,9.460622354749999,1.2047861791,0.7244270421499999,-0.9187500000000001,-0.24500000000000002,-5.836250000000001,9.640143870315,1.2621341607466663,1.0805787459716667,7.959291666666666,-2.69325,-6.743625000000002,0.4443693333333333,0.06261733333333333,-0.06960333333333336,16.5,False
3.880398750305176,9.358329188599999,0.9810572659999999,0.6047859121499999,0.41125000000000006,-1.6187500000000001,-5.775,9.646484850205002,1.2566904893316664,1.0810971908683333,7.202124999999999,-2.52525,-6.491333333333334,0.4443786666666666,0.06357866666666666,-0.06960333333333336,16.5,False
3.892608642578125,9.1992064857,0.8111668613999999,0.7381857721,2.1525000000000003,-0.8400000000000001,-3.8587500000000006,9.630951443493334,1.2380464132399998,1.0772088541433331,6.568041666666665,-2.212583333333334,-6.2002500000000005,0.44429466666666667,0.064484,-0.07000000000000002,16.5,False
3.904780626296997,9.18664416705,0.78424760715,0.6568298036999999,1.5925000000000002,0.42875,-1.61,9.606763995044998,1.2078170877266665,1.0719446444233331,6.063458333333332,-1.8036666666666663,-5.812916666666667,0.444332,0.06519333333333333,-0.07000000000000002,16.5,False
3.917633533477783,9.32423146655,0.8075776274999998,0.5000999234,0.23625000000000002,-0.385,0.21000000000000002,9.574101966555,1.17296163852,1.054696381515,5.642874999999999,-1.2990833333333336,-5.343916666666667,0.444444,0.06607999999999999,-0.06974800000000002,16.5,False
3.9300343990325928,9.47139005645,0.8578269021,0.60717873475,-3.4475000000000002,-5.71375,0.035,9.545946420628333,1.1410972175633336,1.0198608724966667,5.127791666666666,-0.8831666666666668,-4.816583333333335,0.44455600000000006,0.06696666666666666,-0.06974800000000002,16.5,False
3.9661595821380615,9.36849868465,0.65982083195,0.9702895642999998,2.5025000000000004,-3.0100000000000002,-0.28,9.528957380168332,1.1163913242183334,0.9780662377499998,4.582958333333333,-0.8035416666666669,-4.368,0.44470533333333334,0.06761066666666667,-0.06977600000000002,16.5,False
3.9885876178741455,9.429515660949999,0.5413761132499999,0.79262248625,0.0,-0.5950000000000001,3.6400000000000006,9.511489775188332,1.08729858944,0.9466604411249999,4.236166666666667,-0.7670833333333335,-3.9853333333333345,0.44475200000000004,0.06802133333333332,-0.06954266666666668,16.5,False
4.0128724575042725,9.527621387549999,1.0594222061499998,0.7052844613499999,-1.435,-3.5000000000000004,5.71375,9.495098940378332,1.0549556039633334,0.9207581364799998,3.7441249999999995,-0.752791666666667,-3.4221250000000007,0.444724,0.06892666666666666,-0.06964066666666668,16.5,False
4.030867576599121,9.512068040649998,1.1790633361499998,0.97208418125,0.9625000000000001,-5.696250000000001,1.7937500000000002,9.48263632267,1.0394221972516668,0.9074580308616665,3.334916666666667,-0.7490000000000003,-2.832666666666667,0.444724,0.06973866666666667,-0.06956600000000002,16.5,False
4.048424482345581,9.29192836145,1.0743773474,1.2125628525499998,1.9075000000000002,-2.12625,0.16625,9.467621360855,1.0313065406000002,0.9121040947433331,3.008541666666667,-0.6813333333333333,-2.298333333333333,0.44504133333333334,0.07015866666666666,-0.06966400000000002,16.5,False
4.069568634033203,9.2183490665,0.92183490665,1.19342027175,1.8900000000000001,1.4525000000000001,1.8462500000000002,9.452307296215,1.0310871985283334,0.9195816653683333,2.6891666666666665,-0.424375,-1.746208333333333,0.4453586666666667,0.07057866666666666,-0.06966400000000002,16.5,False
4.0820558071136475,9.37926638635,1.0450652705499999,0.8554340794999999,-0.42000000000000004,2.1875,2.7125000000000004,9.451210585856668,1.0488539063333333,0.9076175523683332,2.2487500000000007,-0.25725,-1.291791666666667,0.4451906666666667,0.07087733333333332,-0.06963600000000002,16.5,False
4.094798564910889,9.47617570165,1.2179467034,0.5790630692,-1.8725000000000003,-0.35875,1.7675,9.45667419746,1.072881833275,0.8899106651283333,1.8643333333333336,-0.2963333333333333,-1.1232083333333338,0.4450226666666666,0.07117599999999999,-0.06963600000000002,16.5,False
4.11041259765625,9.379864591999999,1.2317054333500002,0.7106683122,-1.33875,-4.025,0.10500000000000001,9.45810989102,1.08490576684,0.8801599130333333,1.6849583333333336,-0.4512083333333333,-1.1660833333333334,0.4449666666666666,0.07174533333333333,-0.06979000000000002,16.5,False
4.12267541885376,9.17587646535,1.0803594039,0.9690931529999999,-1.2425000000000002,-3.9987500000000002,-1.04125,9.449415968906663,1.0774082560266665,0.8845866348433332,1.6015416666666666,-0.5185833333333334,-1.257666666666667,0.44479866666666656,0.0721,-0.06965000000000002,16.5,False
4.135059595108032,9.1453679772,0.9529416004499999,1.23409825595,-0.16625,-0.24500000000000002,-0.25375000000000003,9.432805792024999,1.0580263929666667,0.8948757720233332,1.5251249999999996,-0.440125,-1.2740000000000002,0.44502266666666657,0.07249199999999999,-0.06965000000000002,16.5,False
4.147494792938232,9.21236701,0.92063849535,1.14197458585,-0.5775,1.0237500000000002,0.7175,9.415597409493333,1.0373284774766667,0.9013363930433334,1.3346666666666664,-0.33104166666666685,-1.1354583333333337,0.4452466666666665,0.07288399999999999,-0.06965000000000002,16.5,False
4.1599647998809814,9.335597373899999,0.8943174467499999,0.9170492614499998,-0.9887500000000001,1.6800000000000002,1.1287500000000001,9.401360115023333,1.02436735506,0.9030512492400002,0.9324583333333331,-0.27591666666666675,-0.9175833333333335,0.44521866666666654,0.07336933333333334,-0.06983200000000002,16.5,False
4.1723504066467285,9.42233719315,0.9098707936499998,0.9020941201999999,-1.155,0.09625,1.49625,9.393683142515,1.0210373436083333,0.9032107707466668,0.5217916666666665,-0.3435833333333333,-0.6985416666666667,0.4451906666666666,0.07385466666666668,-0.06983200000000002,16.5,False
4.184678792953491,9.4097748745,0.9535398061,0.7190431912999999,-1.9512500000000002,-2.8350000000000004,1.5050000000000001,9.386783837351667,1.0219944726483334,0.9030313090516668,0.3319166666666667,-0.4809583333333334,-0.592375,0.4450413333333333,0.07390133333333335,-0.07005600000000002,16.5,False
4.196971654891968,9.388837676749999,0.9505487778499999,0.8003991596999999,-3.1500000000000004,-4.751250000000001,2.07375,9.380482737838333,1.0182855976183334,0.9013563332316668,0.2700833333333332,-0.5964583333333333,-0.5550416666666665,0.44489200000000007,0.073948,-0.07005600000000002,16.5,False
4.20922064781189,9.3523471321,0.9828518829499999,1.1324032954499998,-2.6862500000000002,-4.26125,2.7212500000000004,9.374141757948331,1.0065208865016666,0.8970093721750001,0.23391666666666644,-0.6889166666666667,-0.49379166666666663,0.4448733333333334,0.07406933333333333,-0.069902,16.5,False
4.221666574478149,9.422935398799998,1.0157531937,1.1246266219999999,-0.9975,-0.9887500000000001,2.65125,9.365866579789998,0.9900901713149999,0.89718883387,0.1723749999999997,-0.6574166666666668,-0.31791666666666624,0.44485466666666673,0.07419066666666668,-0.069902,16.5,False
4.234026670455933,9.410971285799999,0.8985048862999999,1.1575279327499999,-0.07875000000000001,2.2925000000000004,2.4762500000000003,9.36323447493,0.9786445032116666,0.8917252222666667,0.009625000000000095,-0.6116250000000001,-0.050166666666666755,0.444808,0.07409733333333333,-0.06966866666666668,16.5,False
4.246479749679565,9.4612205604,0.91944208405,1.00797652025,-0.48125000000000007,2.77375,2.9050000000000002,9.364710048866666,0.9738987383883334,0.88486579748,-0.2190416666666666,-0.6014166666666667,0.2674583333333333,0.4447613333333333,0.074004,-0.06966866666666668,16.5,False
4.258755683898926,9.483952375099998,0.9571290399999999,0.8219345630999999,-0.77875,0.8225000000000001,3.1237500000000002,9.371928397043332,0.9783653405749999,0.8764709781916667,-0.37800000000000006,-0.7154583333333334,0.518,0.444584,0.07419066666666668,-0.06991133333333335,16.5,False
4.270995855331421,9.4301138666,1.0522437383499998,0.7902296636499999,-1.37375,-1.5575,2.9662500000000005,9.374879544916666,0.9815757108966666,0.866859807415,-0.47541666666666677,-0.9111666666666666,0.6370000000000002,0.44440666666666667,0.07437733333333335,-0.06991133333333335,16.5,False
4.2833006381988525,9.309276325299999,1.1712866627,0.9385846648499999,-1.5662500000000001,-3.3600000000000003,1.8637500000000002,9.37436110002,0.9787641443416667,0.8606584088433334,-0.4897083333333334,-1.1599583333333332,0.7207083333333334,0.44430400000000003,0.0744426666666667,-0.06949600000000002,16.5,False
4.295615911483765,9.112466666449999,1.2155538808,1.36091785375,0.56,-0.18375000000000002,2.1787500000000004,9.360183626114999,0.9682357249016668,0.8700302973599999,-0.45470833333333344,-1.3399166666666669,0.8198750000000001,0.4442013333333334,0.07450800000000005,-0.06949600000000002,16.5,False
4.308152675628662,9.20339392525,1.1210373881,1.2197413203499998,1.2950000000000002,4.4887500000000005,2.1612500000000003,9.34624543447,0.9588837765733333,0.8927820522483334,-0.42554166666666676,-1.2839166666666666,1.035125,0.4439586666666668,0.0745826666666667,-0.07006533333333335,16.5,False
4.320480823516846,9.312267353549998,1.14197458585,0.8446663778,0.7875000000000001,5.5912500000000005,1.1725,9.341240447198334,0.9588837765733335,0.9056833541000001,-0.37362500000000015,-1.0852916666666665,1.2929583333333337,0.4437160000000001,0.07465733333333335,-0.07006533333333335,16.5,False
4.3327956199646,9.247062937699999,1.1485548479999999,0.68614188055,-1.2512500000000002,3.2287500000000002,0.805,9.340682121925,0.9658429023016666,0.908734202915,-0.40862500000000007,-0.8557499999999999,1.5012083333333335,0.4434826666666668,0.074732,-0.069902,16.5,False
4.345726728439331,9.08973485175,1.2113664412499998,0.7357929495,-1.7412500000000002,0.5687500000000001,0.3325,9.339665172319998,0.9785049218933334,0.9096115712016667,-0.5182916666666667,-0.7784583333333331,1.6161250000000003,0.4432493333333334,0.07480666666666667,-0.069902,16.5,False
4.358264684677124,8.8115692245,1.1850453926499998,1.1898310378499999,-0.9887500000000001,-0.1925,-0.14,9.329356094951665,0.9918050275116667,0.9185647157633333,-0.6232916666666667,-0.7880833333333335,1.6487916666666669,0.44318400000000013,0.07479733333333335,-0.06954733333333335,16.5,False
4.370579719543457,8.578269020999999,1.1563315214499998,1.23768748985,-0.56,2.31,-1.2075,9.306983203641664,1.002293566575,0.9420343174316667,-0.6340833333333336,-0.7411249999999999,1.6053333333333335,0.4431186666666668,0.07478800000000002,-0.06954733333333335,16.5,False
4.382879734039307,8.4885381735,1.2478569859,0.9876375281499999,-0.22750000000000004,4.0425,-2.7037500000000003,9.27286554140333,1.0142576795749998,0.9602596495683333,-0.5856666666666668,-0.434875,1.5487500000000003,0.4429693333333335,0.07457333333333335,-0.06980866666666669,16.5,False
4.3952107429504395,8.3138621237,1.23768748985,0.8291130308999999,-1.1987500000000002,3.7887500000000003,-4.865,9.240921359693333,1.0361520063649998,0.9599804869316665,-0.6889166666666668,-0.23304166666666642,1.4338333333333333,0.44292266666666685,0.074592,-0.06980866666666669,16.5,False
4.4077746868133545,8.0674013959,1.3866406966999998,0.6652046827999999,-1.7937500000000002,3.6750000000000003,-6.728750000000001,9.200622239071665,1.0589237014416666,0.9621938478366665,-0.6568333333333335,-0.019249999999999975,1.0470833333333331,0.4429133333333335,0.07446133333333334,-0.06995333333333335,16.5,False
4.420240640640259,7.917849983399999,1.5756736821,0.47377887479999997,-0.77,0.77,-9.940000000000001,9.150273263529998,1.0714860200916663,0.9552546622966667,-0.6892083333333335,0.2135000000000001,0.6232916666666667,0.4428760000000001,0.074424,-0.06995333333333335,16.5,False
4.432596683502197,7.660621553899999,1.6570296505,0.45044885445,1.0850000000000002,-1.65375,-13.623750000000001,9.097272242939997,1.085703374373333,0.9346365075599999,-0.7064166666666668,0.37683333333333346,0.217,0.4429973333333334,0.07446133333333334,-0.06986466666666669,16.5,False
4.4449546337127686,7.5888368759,1.61216422675,0.4941178668999999,2.0562500000000004,-5.11,-17.605,9.041978100691663,1.1086545311449996,0.9044271222349999,-0.7414166666666666,0.317625,-0.30858333333333354,0.44311866666666677,0.07449866666666669,-0.06986466666666669,16.5,False
4.457290887832642,8.470592003999998,1.6624135013499999,0.62871413815,4.961250000000001,-4.777500000000001,-19.32,8.99200798872833,1.129551848518333,0.8867999957483332,-0.7014583333333333,0.06358333333333345,-1.0047916666666667,0.4432680000000001,0.07461066666666669,-0.06969666666666668,16.5,False
4.469752550125122,10.80778147855,2.0685951376999996,0.11904292434999998,10.42125,-1.2862500000000001,-20.597500000000004,8.981539389853332,1.1504491658916662,0.8797611092666666,-0.4383750000000001,-0.12045833333333317,-1.7494166666666666,0.44342666666666675,0.0747226666666667,-0.06969666666666668,16.5,False
4.482212781906128,14.606387356049998,2.65064923515,-0.6209374647,15.785000000000002,-1.3037500000000002,-19.740000000000002,9.065726864996664,1.186381385268333,0.8537391634916666,0.013416666666666603,-0.08399999999999988,-2.4686666666666666,0.4435480000000001,0.07460133333333337,-0.06969666666666668,16.5,False
4.494683742523193,18.67418577605,2.7403800826499998,-1.1479566423499998,13.632500000000002,-3.9200000000000004,-16.3625,9.289156675271665,1.2408978601716665,0.7954340528049998,0.6352500000000002,-0.003208333333333317,-3.0799999999999996,0.4435573333333334,0.07511466666666669,-0.06996266666666669,16.5,False
4.510235786437988,19.5996099166,1.5810575329499996,-0.22911276394999996,2.24,-12.057500000000001,-4.9175,9.636993320558332,1.2924631872016663,0.723130929908333,0.9846666666666669,-0.13562499999999994,-3.446625,0.4437720000000001,0.07563733333333336,-0.06997666666666667,16.5,False
4.522418737411499,19.5996099166,-0.2967100024,1.71744842115,-0.9887500000000001,-18.567500000000003,9.49375,9.986245719216667,1.2963714641149997,0.6927221426999998,1.0266666666666666,-0.5947083333333333,-3.4696666666666673,0.44398666666666675,0.07616000000000002,-0.06997666666666667,16.5,False
4.53692889213562,18.748961482299997,-2.6853451628499996,4.3250268494999995,-8.505,-15.916250000000002,40.845000000000006,10.331530020396666,1.2309875865699997,0.7371090019299997,0.9035833333333334,-1.3320416666666668,-2.943208333333333,0.4442480000000001,0.07638400000000001,-0.06985066666666669,16.5,True
4.549187898635864,16.673187876799997,-3.038884702,5.382056233049999,-26.136250000000004,1.09375,72.64250000000001,10.619705622189999,1.1041281083933328,0.8727421629733332,0.5086666666666667,-1.708291666666667,-1.2366666666666661,0.4444906666666668,0.07660800000000001,-0.06985066666666669,16.5,True
4.56151270866394,14.273186808999998,-1.5122638832,5.059025182049999,-40.24125,20.938750000000002,94.89375000000001,10.835558160898334,0.9849456027249998,1.0309874975866662,-0.5302499999999999,-1.4122500000000002,1.5286249999999997,0.44434133333333353,0.076832,-0.07039666666666669,16.5,True
4.573776721954346,11.766705135499999,0.49172504429999997,3.4851461168999998,-38.63125,32.15625,96.22375000000001,10.971171381753333,0.9235896432233331,1.1554740933516665,-1.8223333333333336,-0.4124166666666671,4.721208333333334,0.44419200000000014,0.07705599999999999,-0.07039666666666669,16.5,True
4.586051940917969,9.21236701,2.13619237615,1.29032958705,-18.611250000000002,31.517500000000002,74.72500000000001,11.020782570326666,0.9306285297049999,1.219462157713333,-2.7784166666666668,0.8592499999999997,7.69475,0.4439680000000001,0.07670133333333332,-0.06970600000000002,16.5,True
4.598438739776611,6.34097989,2.12781749705,-0.83688970435,-2.9925,24.01875,44.03875000000001,10.977293019571668,0.9736395159399999,1.200439218043333,-3.0957500000000002,1.9118749999999998,9.724166666666667,0.44399600000000006,0.07634666666666665,-0.06970600000000002,16.5,True
4.610705614089966,2.59441790405,0.8865407732999999,-1.4506487012499996,3.31625,12.381250000000001,17.78,10.841580097775,1.0059027406633332,1.1136794586049998,-3.103916666666667,2.5902916666666664,10.700375000000001,0.44398666666666664,0.07602,-0.06970600000000002,16.5,True
4.622920751571655,-0.30747770409999997,-0.5862415369999999,-0.5659025448999999,12.8275,10.99,18.54125,10.588658748954998,0.9842476961333333,1.0451649714916667,-2.8618333333333337,2.813416666666667,11.089458333333333,0.444052,0.07508666666666666,-0.06979466666666669,16.5,True
4.635175704956055,-1.7862420708999998,-0.64426748505,-0.35892339,11.9525,15.006250000000001,28.428750000000004,10.236714424871666,0.9279565444683333,1.0024132077049996,-2.3286666666666664,3.178,11.738125,0.444192,0.07389199999999999,-0.06979466666666669,16.5,True
4.647716999053955,-1.80119721215,-0.33439695834999994,-0.39481572899999995,-2.1175,13.072500000000002,31.202500000000004,9.856315452036666,0.8687341851183332,0.9668997322833331,-2.078125,3.668,12.652208333333334,0.4443133333333333,0.07290266666666666,-0.06993466666666669,16.5,True
4.660137891769409,-0.94815595525,0.47377887479999997,-0.36550365214999997,-9.44125,9.14375,24.12375,9.492726057966665,0.82683984943,0.9249256358416666,-2.214916666666667,4.1545000000000005,13.540625,0.44443466666666664,0.07219333333333333,-0.06993466666666669,16.5,True
4.672447919845581,0.13698909385,1.4554343464500001,-0.36849468039999994,0.525,0.9975,5.390000000000001,9.171828607118332,0.8243074455116666,0.8738588135199998,-2.435708333333333,4.447333333333334,14.077875000000002,0.4446026666666666,0.07116666666666668,-0.06941666666666668,16.5,True
4.684805870056152,1.2580264819499998,1.8544375149999999,-0.16929219894999997,18.8825,-3.00125,-17.430000000000003,8.886564272821666,0.8464410545616666,0.8181060469399999,-2.2580833333333334,4.3341666666666665,13.864666666666668,0.4447706666666666,0.07012133333333333,-0.06941666666666668,16.5,True
4.697130918502808,2.42213467685,1.6677973521999998,0.24107687694999996,37.415000000000006,0.9362500000000001,-33.74,8.629834348029998,0.8673383719350001,0.7877371401083333,-1.430625,4.0769166666666665,12.989083333333333,0.44497599999999987,0.06916000000000001,-0.06947266666666668,16.5,True
4.710104942321777,4.61276376715,1.6163516663,-0.3337987527,45.99,7.175000000000001,-40.95,8.431868158256668,0.885284541435,0.7653044282333332,-0.0909999999999999,4.011875000000001,11.708375,0.44526533333333324,0.06825466666666667,-0.06947266666666668,16.5,True
4.722516775131226,6.792026950099999,1.6271193679999998,-1.1389835575999998,43.715,6.6675,-43.715,8.305287842716668,0.90053878551,0.7183452847083333,1.4930416666666668,4.204375000000001,10.265791666666667,0.445368,0.06768533333333335,-0.06974800000000002,16.5,True
4.734839916229248,8.876175434699999,1.6061821702499999,-1.3435698898999997,30.003750000000004,-2.0387500000000003,-42.73500000000001,8.254918926986667,0.9191031008483334,0.6492325919449999,2.8749583333333333,4.340583333333333,8.807166666666667,0.44522799999999996,0.06702266666666667,-0.06974800000000002,16.5,True
4.747063875198364,10.030114133549999,1.5158531170999998,-0.23210379219999996,22.382500000000004,-11.4625,-41.580000000000005,8.272725515168334,0.9360323207433333,0.5778467177116666,3.780875000000001,4.131166666666667,7.394624999999999,0.4453026666666667,0.06656533333333334,-0.06952400000000002,16.5,True
4.759476900100708,10.52303558915,1.47098769335,1.1006983959999999,18.532500000000002,-15.496250000000002,-37.48500000000001,8.328258939676667,0.9461619364166668,0.5474778108799999,4.474458333333334,3.567375,6.123541666666667,0.44535866666666674,0.066332,-0.06952400000000002,16.5,True
4.771852970123291,11.169695896799999,1.3674981158999997,1.9411773342499996,16.31875,-13.413750000000002,-37.642500000000005,8.407202145288334,0.9509077012399999,0.5655835018866665,5.073541666666667,2.934166666666667,4.997708333333333,0.44541466666666685,0.06632266666666668,-0.06978066666666669,16.5,True
4.7842888832092285,11.36889837825,0.9284151687999999,2.548356069,17.841250000000002,-8.25125,-37.791250000000005,8.50803967769,0.9485946393933332,0.6097908994216666,5.662708333333333,2.4208333333333343,3.9115416666666665,0.4455733333333335,0.066052,-0.06978066666666669,16.5,True
4.796751976013184,11.56750265405,0.66341006585,2.5884358475499996,18.76,-0.6125,-34.71125000000001,8.620522280078335,0.9263413892133332,0.6789235323733334,6.325958333333333,2.162416666666666,2.956041666666664,0.4457506666666668,0.06592133333333333,-0.07001866666666669,16.5,True
4.809067726135254,11.8217400553,0.37926238209999996,2.1122641501499997,17.45625,3.8675,-31.298750000000002,8.749116554640002,0.8928817531899998,0.7437092042683332,6.929125,2.2181249999999997,2.2099583333333315,0.44575066666666685,0.065884,-0.07001866666666669,16.5,True
4.821432828903198,11.752946405549999,0.26859433685,1.5206387622999997,15.111250000000002,3.0975,-28.358750000000004,8.891629080658335,0.8494919033766665,0.7940581798099998,7.4439166666666665,2.4663333333333335,1.7144166666666654,0.44561066666666677,0.06631333333333334,-0.06996733333333335,16.5,True
4.833962917327881,11.30309575675,0.12382856954999999,1.1449656141,12.363750000000001,-2.9575000000000005,-24.675,9.019306106556668,0.8019544943899999,0.81906317598,7.825125,2.690333333333334,1.416624999999999,0.4454706666666668,0.066668,-0.06996733333333335,16.5,True
4.846468925476074,10.792228131649999,0.16091731985,1.22452696555,9.3975,-7.472500000000001,-19.302500000000002,9.086265258980003,0.7469594549666666,0.8402197158016665,7.98875,2.6573750000000005,1.3063749999999976,0.44564800000000016,0.06705066666666666,-0.07020533333333336,16.5,True
4.858677864074707,10.301699498649999,0.20039889274999997,1.6582260617999998,3.1237500000000002,-7.691250000000001,-14.087500000000002,9.041260253911668,0.6758926237466665,0.8926225307416666,7.802083333333332,2.406541666666667,1.4145833333333315,0.4458253333333335,0.06743333333333332,-0.07020533333333336,16.5,True
4.870829820632935,9.9888379437,0.43609191885,1.89810652745,2.5112500000000004,-3.08,-8.65375,8.844071731483332,0.5914858065316666,0.9864211766616665,7.292833333333333,2.2688750000000004,1.650833333333329,0.4459840000000001,0.06786266666666665,-0.069902,16.5,True
4.882973909378052,10.028319516599998,0.7363911551499999,1.6295121905999996,5.32,2.09125,-6.081250000000001,8.522296912348333,0.52438707279,1.0850453481583335,7.079625000000001,2.491416666666668,1.7987083333333305,0.4459373333333334,0.06828266666666666,-0.069902,16.5,True
4.895167112350464,10.1778709291,0.8805587167999999,0.8895318015499999,9.502500000000001,4.2875000000000005,-8.925,8.205008635588332,0.517627348945,1.1214760722433332,7.283499999999999,3.092250000000001,1.6225416666666632,0.4458906666666668,0.0685533333333333,-0.06962666666666668,16.5,True
4.910697937011719,10.1383893562,0.7214360139,0.15852449724999998,9.012500000000001,-0.8575,-7.673750000000001,7.891130131033333,0.5811169085983333,1.0659426477349998,7.762416666666666,3.861375000000001,0.824541666666664,0.4458906666666668,0.06902933333333332,-0.06962666666666668,16.5,True
4.922865867614746,9.88534836625,0.6095715573499999,0.3696910917,5.7225,-6.86,-5.853750000000001,7.627122037499999,0.7004389955849999,0.9092526478116664,8.453958333333333,4.103166666666668,-1.1681250000000014,0.44578800000000013,0.06973866666666666,-0.06969666666666668,16.5,True
4.93507194519043,9.637691227149999,0.59521462175,0.8584251077499999,2.4937500000000004,-8.898750000000001,-2.6075000000000004,7.424689245539998,0.8086344574816665,0.7431508789949999,9.691208333333334,3.562708333333334,-4.145166666666667,0.4460960000000001,0.07057866666666665,-0.06969666666666668,16.5,True
4.9472949504852295,9.512666246299998,0.6227320816499999,1.2963116435499997,2.2225,-5.398750000000001,1.1025,7.296892578511665,0.857009354378333,0.6282355736299999,11.124458333333333,2.4243333333333346,-7.440416666666667,0.44666533333333347,0.07132533333333332,-0.07023333333333336,16.5,True
4.959744930267334,9.6562356023,0.9248259349,1.2239287599,5.0925,0.29750000000000004,3.5787500000000003,7.2530839847433315,0.8424928972716664,0.578405042985,12.293458333333332,1.219458333333333,-10.40404166666667,0.4472346666666667,0.072548,-0.07023333333333336,16.5,True
4.972070932388306,9.919446088299999,1.1814561587499999,0.83449688175,6.947500000000001,3.43875,2.9575000000000005,7.311229573923332,0.8001997578166666,0.5961119302249999,12.870958333333332,0.3176250000000004,-12.403708333333334,0.447552,0.07377066666666666,-0.07023333333333336,16.5,True
4.984452962875366,10.079765202499999,1.3375878333999998,0.4821537538999999,6.4662500000000005,2.19625,0.39375000000000004,7.465646392376666,0.77156564737,0.6655835463783333,13.129083333333334,-0.24937500000000004,-13.38166666666667,0.447832,0.074956,-0.06958466666666668,16.5,True
4.9968421459198,10.0725867347,1.2987044661499998,0.25304098994999996,5.197500000000001,-1.225,-3.1237500000000002,7.740322486668332,0.8105686557499999,0.7095716018416666,13.110125,-0.5387083333333332,-13.886250000000002,0.44803733333333334,0.076748,-0.06958466666666668,16.5,True
5.0091400146484375,9.9828558872,1.04745809315,0.32542387359999997,3.9462500000000005,-5.398750000000001,-5.99375,8.109973697991666,0.876909662335,0.7312067061833333,12.744083333333332,-1.0815000000000003,-14.785166666666669,0.44816799999999996,0.078428,-0.06991133333333335,16.5,True
5.021517992019653,9.6933243526,0.7537391189999999,0.7513462964,1.9600000000000002,-6.86875,-5.8100000000000005,8.504330802659998,0.9356733973533332,0.7539385208833334,12.621583333333332,-1.799,-16.009000000000004,0.44831733333333335,0.07990266666666666,-0.06991133333333335,16.5,True
5.0339391231536865,9.455836709549999,0.5120640364,1.2532408367499999,1.7500000000000002,-3.0362500000000003,-2.10875,8.874679920575,0.9607581542766666,0.8009176045966666,12.855791666666667,-2.405375,-17.14241666666667,0.44860666666666665,0.08143333333333334,-0.06984133333333335,16.5,True
5.046503067016602,9.470193645150001,0.62392849295,1.2675977723499998,3.2725000000000004,2.5112500000000004,2.0650000000000004,9.204969200128334,0.9448857643633333,0.8607381695966667,13.192083333333331,-2.622375,-17.742375000000003,0.44884933333333327,0.08328133333333335,-0.06984133333333335,16.5,False
5.058862924575806,9.6658068927,0.8548358738499999,0.99003035075,3.7275000000000005,5.460000000000001,3.4037500000000005,9.506145804715,0.9091928272466666,0.9089934253633333,13.103416666666666,-2.4532083333333334,-17.499708333333338,0.44908266666666663,0.08549333333333335,-0.07001866666666669,16.5,False
5.084986925125122,9.692127941299999,0.8434699665,0.7609175867999999,1.32125,-1.33,1.2775,9.777731169815,0.8802596139749999,0.9286145706833333,12.339541666666666,-2.2863749999999996,-16.625875,0.4493346666666666,0.08739733333333334,-0.07012600000000001,16.5,False
5.108781099319458,9.5102734237,0.6496513358999999,0.8961120637,4.17375,-0.385,-0.7087500000000001,9.988818003511664,0.8511868193849998,0.9473982280933332,11.031708333333334,-2.448541666666667,-15.34604166666667,0.4495493333333333,0.08949733333333335,-0.06976200000000002,16.5,False
5.138067007064819,9.227322151249998,0.81176506705,0.79381889755,1.7937500000000002,2.5987500000000003,3.1675000000000004,10.124830028133333,0.81918281711,1.0023733273283333,9.644833333333334,-2.7049166666666675,-13.948083333333335,0.44995066666666667,0.09126133333333335,-0.06976200000000002,16.5,True
5.160715103149414,9.5054877785,1.1174481541999999,0.5024927459999999,-3.4475000000000002,-0.35000000000000003,2.5725000000000002,10.185587781985,0.7914858955149999,1.0677372646849999,8.316,-2.75975,-12.370166666666668,0.450212,0.09286666666666668,-0.06989266666666669,16.5,True
5.187988042831421,9.39960537845,0.7507480907499999,0.7094719009,0.39375000000000004,-4.2787500000000005,-4.025,10.19737243329,0.7734400250733332,1.1166704868549997,7.366625000000001,-2.640458333333334,-10.878583333333335,0.4502586666666667,0.09426666666666669,-0.06989266666666669,16.5,True
5.210391044616699,9.037690960199999,0.23928225999999997,1.09292172255,3.31625,-1.8900000000000001,-2.21375,10.168957664915002,0.741116979785,1.134875878803333,6.748583333333334,-2.3269166666666665,-9.692958333333335,0.45018400000000003,0.09581600000000004,-0.06981800000000002,16.5,True
5.222510099411011,8.978468600849999,0.20458633229999998,1.17667051355,1.1025,0.7350000000000001,2.0562500000000004,10.107043380140002,0.7041678108033332,1.1250254257666665,6.279291666666669,-1.8599583333333336,-8.480208333333334,0.4501093333333334,0.09714133333333336,-0.06981800000000002,16.5,True
5.23474907875061,9.09571690825,0.37746776514999997,1.1449656141,-0.7175,2.2837500000000004,6.142500000000001,10.031270664473332,0.6712465598649999,1.0952946049616668,5.7443750000000025,-1.42975,-7.086041666666665,0.4502026666666667,0.09847600000000002,-0.07011666666666667,16.5,True
5.246943950653076,9.335597373899999,0.8111668613999999,0.6999006105,-3.115,1.4787500000000002,6.300000000000001,9.956455077846666,0.6631707835899999,1.0387442308483337,5.088416666666668,-1.1725000000000003,-5.642291666666665,0.4502773333333333,0.09967066666666669,-0.07011666666666667,16.5,True
5.2590651512146,9.513264451949999,1.2382856955,0.39481572899999995,-3.3512500000000003,-3.9025000000000003,0.8662500000000001,9.880622541614999,0.6773681976833333,0.9756734151500003,4.349333333333335,-1.2142083333333338,-4.360416666666665,0.4501933333333333,0.10095866666666668,-0.07023333333333336,16.5,True
5.271378040313721,9.52522856495,1.35373938595,0.39900316855,-0.16625,-8.855,-5.897500000000001,9.803553713706664,0.7087739943083332,0.9230113777616666,3.721375,-1.5668333333333335,-3.3830416666666663,0.45024933333333333,0.10178000000000001,-0.07023333333333336,16.5,True
5.283720016479492,9.52044291975,1.1144571259499998,0.8147560952999998,3.1587500000000004,-10.01875,-9.2225,9.734221678871666,0.7481159858899998,0.8948757720233335,3.2937916666666665,-1.9387083333333337,-2.719499999999999,0.4505106666666666,0.10252666666666668,-0.07031733333333336,16.5,True
5.296110153198242,9.61495941245,0.9164510557999999,1.1856435983,5.1275,-4.086250000000001,-7.1137500000000005,9.679585562838332,0.7787042347933332,0.8910871362400001,3.0499583333333335,-2.0667500000000003,-2.250791666666667,0.4504453333333333,0.10324533333333334,-0.07031733333333336,16.5,True
5.308490991592407,10.249057401449999,0.9260223461999999,0.93978107615,0.7350000000000001,2.1,-3.8150000000000004,9.654141882525,0.8030113243716666,0.8820143505483333,2.9505,-1.8290416666666673,-1.8468333333333335,0.4501466666666667,0.10413200000000002,-0.07002800000000002,16.5,True
5.3207502365112305,11.006983959999998,1.1341979124,0.5144568589999999,0.32375000000000004,4.0425,-2.42375,9.665408088933331,0.8277969784699999,0.8436693683833334,2.884,-1.513166666666667,-1.554875,0.4500906666666667,0.10455199999999999,-0.07002800000000002,16.5,True
5.333022117614746,12.1100751786,1.24008031245,0.24227328824999997,3.0975,1.0675000000000001,-4.1825,9.713085079238331,0.8495517239416667,0.7950751294150001,2.8198333333333334,-1.3670416666666667,-1.394166666666667,0.4500346666666666,0.104972,-0.06988800000000002,16.5,True
5.345416069030762,12.966107463749998,1.0271191010499998,0.22552353004999998,4.786250000000001,-2.31875,-6.291250000000001,9.792088105414996,0.8633503342683332,0.7541977433316667,2.7095833333333337,-1.4980000000000004,-1.353333333333334,0.44989466666666655,0.10543866666666665,-0.06988800000000002,16.5,True
5.357839107513428,14.033904548999999,0.8931210354499999,0.5659025448999999,0.6562500000000001,-3.99,-3.4037500000000005,9.89673421378833,0.8651250110299998,0.7396613460366667,2.5357499999999997,-1.7129583333333336,-1.3055,0.4497079999999999,0.10590533333333331,-0.06988800000000002,16.5,True
5.370182991027832,14.9635161291,0.7543373246499998,1.24606236895,-10.64,-3.0450000000000004,-0.28,10.041061296944996,0.8757331912233333,0.7581259604333334,2.179916666666666,-1.7453333333333336,-1.1447916666666667,0.44988533333333325,0.10627866666666666,-0.06984133333333335,16.5,True
5.385730028152466,14.591432214800001,-0.05084748024999999,2.4185454429499997,-7.7875000000000005,0.8137500000000001,11.287500000000001,10.214700456951663,0.8736992920133333,0.79669028467,1.6222499999999989,-1.5225000000000002,-0.8472916666666668,0.4502026666666666,0.10657733333333333,-0.06969200000000002,16.5,True
5.398214101791382,13.925031120699998,-0.6586244206499999,3.2344979495499997,-5.1625000000000005,5.565,24.4475,10.367203017324995,0.8422137346349999,0.8549355747916667,1.391249999999999,-1.1153333333333335,-0.23683333333333348,0.45025866666666664,0.10696933333333332,-0.06969200000000002,16.5,True
5.410665035247803,13.388440652649999,-0.7830511958499999,3.4265219632,-13.711250000000001,11.8825,36.02375000000001,10.50271653723833,0.7905885870399999,0.9282556472933333,1.0152916666666656,-0.7495833333333335,0.6358333333333335,0.45027733333333325,0.10741733333333332,-0.06982266666666669,16.5,True
5.42291522026062,12.938590003849999,-0.34995030525,2.79062935725,-16.905,18.06875,43.96,10.618888074468332,0.7329016221916665,0.99565348386,0.2776666666666657,-0.34300000000000014,1.818541666666667,0.4502959999999999,0.10786533333333333,-0.06982266666666669,16.5,True
5.4351701736450195,12.24586786115,0.28713871199999996,1.76650128445,-11.9875,21.490000000000002,43.478750000000005,10.710732581931666,0.6940182549416665,1.0585448378633333,-0.46637500000000043,0.19454166666666672,3.2456666666666667,0.4503519999999999,0.10835066666666668,-0.06982266666666669,16.5,True
5.4476001262664795,10.84726305145,0.5527420206,0.53659046805,-10.377500000000001,18.278750000000002,36.435,10.765109475516665,0.6622734751149999,1.090249737313333,-1.0234583333333338,0.8592500000000001,4.645375,0.450632,0.10849066666666667,-0.06980866666666669,16.5,True
5.460021018981934,9.059824569249999,0.7944171031999999,-0.2177468566,-17.63125,11.80375,29.40875,10.768200204708334,0.6408377726566665,1.088215838103333,-1.5747083333333336,1.476416666666667,5.924041666666667,0.4509866666666666,0.10874266666666667,-0.06980866666666669,16.5,True
5.472347259521484,6.949355036049999,1.0283155123499998,-0.5539384318999999,-23.528750000000002,3.99,21.20125,10.719605965740003,0.6371488378149999,1.0603793351899997,-2.3508333333333336,1.9944166666666665,6.999708333333334,0.45108,0.10878,-0.06967800000000003,16.5,True
5.484665155410767,4.798805724299999,1.0199406332499998,-0.2309073809,-22.758750000000003,-1.2862500000000001,15.793750000000001,10.604949882823336,0.6523033809483333,1.0134999524183332,-3.200458333333333,2.2499166666666666,7.786333333333333,0.4510333333333333,0.10876133333333332,-0.06967800000000003,16.5,True
5.49695897102356,3.0203403268499995,0.58085768615,0.47856451999999994,-15.28625,-1.00625,16.423750000000002,10.426684599123337,0.66664037636,0.9678568613233333,-4.0025416666666676,2.2227916666666667,8.302291666666669,0.45094933333333326,0.10812666666666666,-0.07008400000000002,16.5,True
5.50982928276062,2.6261228035,0.59760744435,0.5084748025,-5.013750000000001,3.6662500000000002,21.192500000000003,10.198209921200004,0.6643671948900001,0.9478169720483333,-4.500708333333334,2.0935833333333336,8.80425,0.4508746666666666,0.10712799999999999,-0.07008400000000002,16.5,True
5.522140264511108,2.9724838748499995,1.0157531937,0.0029910282499999996,-2.3800000000000003,5.705000000000001,22.05,9.962277612840003,0.6547360839249999,0.9360722011199999,-4.700208333333333,2.17525,9.480041666666667,0.45066933333333326,0.10623200000000002,-0.06929533333333335,16.5,True
5.534370183944702,3.4683963586999997,1.5517454561000001,-0.430708068,-7.428750000000001,1.9512500000000002,13.238750000000001,9.744530756240001,0.6710670981700002,0.90843510009,-4.85625,2.4077083333333333,10.124625,0.4505013333333333,0.10514000000000001,-0.06929533333333335,16.5,True
5.546813249588013,3.929014709199999,1.96869479415,-0.3062812928,-6.921250000000001,-4.38375,2.2750000000000004,9.552008237881667,0.7088138746850002,0.8620941024033334,-5.294041666666668,2.3797083333333333,10.460333333333333,0.45062266666666667,0.10415066666666668,-0.06931400000000003,16.5,True
5.558992147445679,4.23469779635,1.7252250945999998,0.16510475939999997,2.3712500000000003,-6.737500000000001,-9.388750000000002,9.37890746296,0.7416154844933334,0.8302097412583334,-5.458541666666667,2.097958333333333,10.2375,0.450884,0.10332000000000002,-0.06931400000000003,16.5,True
5.571148157119751,4.7324048971499995,1.44107741085,0.4157529267499999,12.363750000000001,-1.8025000000000002,-16.703750000000003,9.204271293536667,0.75696942951,0.8242077445700001,-5.165708333333334,1.9772083333333337,9.771125000000001,0.4509866666666666,0.102396,-0.06966400000000002,16.5,True
5.583453178405762,5.4251270398499996,1.2610175101999996,0.31405796625,19.425,3.4475000000000002,-19.258750000000003,9.056554378363334,0.7838687435716666,0.8105885959383333,-4.704583333333334,2.135875,9.310583333333334,0.4512106666666666,0.10132266666666667,-0.06966400000000002,16.5,True
5.5956971645355225,6.5072810607,1.3657034989499999,-0.08673981925,21.052500000000002,5.617500000000001,-20.746250000000003,8.953702886940002,0.8172486188416666,0.7765307542650001,-4.099375,2.33275,8.689333333333334,0.4515933333333333,0.10032400000000001,-0.06964533333333335,16.5,True
5.608130216598511,7.89691278565,1.67916325955,-0.6257231099,17.1325,3.4562500000000003,-24.220000000000002,8.890273147851667,0.8604191265833332,0.7242874608316667,-3.462666666666667,2.4692500000000006,7.845541666666667,0.451808,0.09931600000000003,-0.06964533333333335,16.5,True
5.620428085327148,9.22492932865,1.6043875532999998,-0.8512466399499998,17.185000000000002,-2.23125,-28.910000000000004,8.859944121396667,0.8963314057716665,0.6667799576783334,-2.864166666666667,2.4217083333333336,6.762291666666669,0.4521346666666667,0.0986346666666667,-0.06950066666666668,16.5,True
5.6327033042907715,9.97388280245,1.31425781305,-0.78903325235,20.746250000000003,-7.51625,-29.706250000000004,8.861080712131667,0.9141778743299998,0.6202993786733334,-2.120125,2.277625,5.614583333333333,0.4526200000000001,0.09786000000000004,-0.06950066666666668,16.5,True
