time,accX,accY,accZ,gyroX,gyroY,gyroZ,temp
1607123532.836023,3.724727479724999,-8.979465610266665,0.8826324963866665,-11.736083333333331,25.01245833333334,-10.322666666666665,0.12700800000000004,0.5149200000000004,0.02690333333333334,18.5,False
1607123532.8479848,3.7272399434549985,-8.97272582661,0.8533004793483333,-16.66670833333334,19.739708333333336,-10.983583333333332,0.1271106666666667,0.5144720000000004,0.02690333333333334,18.5,False
1607123532.8600206,3.712643725594999,-8.959445661179997,0.8021339560849997,-12.311833333333338,18.26183333333334,-11.337375,0.12718533333333337,0.5141080000000003,0.027104000000000007,18.5,False
1607123532.8721588,3.721696571098332,-8.963134596021666,0.7781060291433332,-9.76179166666667,15.827000000000004,-11.627291666666666,0.12723200000000004,0.5140053333333336,0.027104000000000007,18.5,False
1607123532.8933017,3.7086756281166653,-8.970033901184996,0.7620342373466666,-10.548708333333336,13.71591666666667,-11.900874999999997,0.12720400000000004,0.5139306666666669,0.02722533333333334,18.5,False
1607123532.9088786,3.705525078359999,-9.005487556041665,0.7682555761066664,-12.445125000000003,12.728041666666666,-11.999458333333331,0.12720400000000004,0.5136040000000002,0.026842666666666674,18.5,False
1607123532.9303315,3.7106297665733328,-9.014839504369998,0.784566650163333,-14.169458333333335,12.039999999999997,-11.790916666666664,0.1273906666666667,0.5132213333333336,0.026688666666666677,18.5,False
1607123532.9516344,3.7242090348283328,-9.049834534894996,0.825723198883333,-15.13254166666667,11.272333333333334,-10.945374999999997,0.12757733333333338,0.5128386666666669,0.026688666666666677,18.5,False
1607123532.9691062,3.7271801228899992,-9.064051889176664,0.8709475460233329,-15.496833333333338,10.615208333333333,-10.080874999999997,0.1275866666666667,0.5119706666666668,0.02680533333333334,18.5,False
1607123532.9917772,3.709991680546666,-9.08855838063833,0.9125028985099995,-15.587833333333338,10.231958333333333,-9.437166666666664,0.12776400000000004,0.5110186666666667,0.02658600000000001,18.5,False
1607123533.003978,3.6719856815833336,-9.125268267359997,0.929810981983333,-15.340500000000004,10.207166666666668,-8.795499999999999,0.12794133333333338,0.5100666666666667,0.02658600000000001,18.5,False
1607123533.023477,3.648875003305,-9.15872790338333,0.9504690170966664,-14.858083333333333,10.294083333333333,-7.687166666666665,0.12790400000000005,0.5090306666666666,0.02639933333333334,18.5,False
1607123533.041319,3.632723450755001,-9.195756833118331,0.9571090998116664,-14.512166666666666,10.448958333333334,-6.006875000000003,0.1281466666666667,0.508116,0.026539333333333342,18.5,False
1607123533.0634289,3.6354951369333337,-9.216913372939995,0.9546165762699997,-14.500791666666666,10.402,-4.507416666666669,0.12838933333333336,0.5072013333333333,0.026539333333333342,18.5,False
1607123533.0751817,3.6464024199516674,-9.23260630115833,0.9656435004183331,-14.630291666666666,9.94175,-3.3276250000000007,0.12892133333333336,0.5063706666666666,0.026404000000000007,18.5,False
1607123533.0872018,3.6536606485050007,-9.262676105165001,0.9801798977133331,-14.82220833333333,9.205583333333331,-2.168541666666667,0.12928533333333336,0.5050826666666667,0.026072666666666675,18.5,False
1607123533.0992815,3.6476187714400004,-9.259705017103334,1.0237691494099999,-14.977375000000002,8.384833333333335,-0.9458750000000007,0.1299666666666667,0.5037759999999999,0.026072666666666675,18.5,False
1607123533.1114695,3.645405410535,-9.27314470404,1.0928220216083335,-15.071000000000002,7.421458333333335,0.141749999999999,0.13086266666666668,0.5023946666666667,0.025993333333333344,18.5,False
1607123533.1234386,3.6499517734749998,-9.295457774785,1.1827522709916667,-14.811708333333335,6.246333333333334,1.2602916666666664,0.13175866666666666,0.5010133333333333,0.025993333333333344,18.5,False
1607123533.1354373,3.647539010686666,-9.303992175391665,1.2679965761166665,-14.692416666666668,4.886,2.670208333333333,0.13300933333333334,0.49932400000000005,0.025890666666666673,18.5,False
1607123533.1473234,3.641217970984999,-9.310173633775,1.3621940258033332,-14.958708333333334,3.460041666666667,4.1889166666666675,0.13417600000000002,0.4979146666666667,0.025890666666666673,18.5,False
1607123533.1594903,3.6430724084999992,-9.318528572686667,1.4705091288299996,-15.334958333333333,2.3379999999999996,5.616625000000001,0.13571599999999998,0.4963466666666667,0.025186000000000007,18.5,False
1607123533.1715324,3.6392438923399992,-9.3308117287,1.5858431781499998,-15.906916666666666,1.708875,7.102666666666667,0.13725599999999996,0.4947786666666668,0.025186000000000007,18.5,False
1607123533.1835911,3.6401212606266657,-9.347561486899998,1.7001004572999996,-16.61625,1.5636249999999994,8.48225,0.138796,0.4932106666666668,0.025186000000000007,18.5,False
1607123533.1953652,3.630091345894999,-9.357611341819998,1.815933011328333,-17.588958333333334,1.71325,9.88079166666667,0.14038266666666666,0.4914560000000001,0.025246666666666678,18.5,False
1607123533.207631,3.621915868678333,-9.376095896404998,1.9128024462516664,-18.802583333333338,2.091541666666667,11.369166666666668,0.14196000000000003,0.48970133333333354,0.025246666666666678,18.5,False
1607123533.219626,3.6046277253933328,-9.399685139203333,1.9960926129199996,-20.342291666666664,2.7014166666666672,13.023208333333338,0.14394800000000002,0.48758266666666683,0.02483133333333334,18.5,False
1607123533.231798,3.607040488181666,-9.394700092119999,2.0606190623666665,-22.281875000000003,3.381000000000001,14.97504166666667,0.145936,0.4854640000000002,0.02483133333333334,18.5,False
1607123533.2438738,3.6244083922199994,-9.389715045036665,2.1261824016066666,-24.590708333333335,3.982416666666668,16.945833333333336,0.14840933333333337,0.4831026666666668,0.024518666666666675,18.5,False
1607123533.256038,3.6540195718949997,-9.364032082463332,2.2018753565199995,-27.199958333333335,4.655583333333334,18.688541666666673,0.15077066666666672,0.4808066666666668,0.024518666666666675,18.5,False
1607123533.267834,3.6795430129616666,-9.32921651363333,2.287498525223333,-29.94804166666667,5.6411250000000015,20.270541666666677,0.15361733333333338,0.47787600000000013,0.024574666666666675,18.5,False
1607123533.2800608,3.715913916481667,-9.283972226304998,2.3569502011883334,-32.83670833333334,6.983375,21.750458333333345,0.15646400000000002,0.47494533333333344,0.024574666666666675,18.5,False
1607123533.2920938,3.746542045761667,-9.239126742743332,2.40741881786,-35.58625,8.611166666666668,23.102625000000007,0.15978666666666666,0.4720800000000001,0.023902666666666676,18.5,False
1607123533.3041568,3.762454316051667,-9.189096810215,2.433341062693333,-37.717166666666664,10.193750000000001,24.142416666666673,0.16310933333333333,0.4692146666666668,0.023902666666666676,18.5,False
1607123533.3158736,3.8047275153183335,-9.144051924769999,2.445444757011667,-37.28841666666666,11.202041666666668,25.169666666666675,0.16631999999999997,0.4658733333333335,0.024215333333333342,18.5,False
1607123533.3279405,3.8454653200833335,-9.073403837505,2.438465691095,-36.28479166666667,11.126208333333334,25.893291666666677,0.16950266666666666,0.46278400000000014,0.024215333333333342,18.5,False
1607123533.3397744,3.8815371207783333,-9.017172506405,2.442314147443333,-35.47891666666667,11.087416666666668,26.266625,0.1727693333333333,0.4599186666666668,0.02424800000000001,18.5,False
1607123533.3529263,3.9240695424933336,-8.927780642106667,2.4353550217149995,-35.16479166666667,11.399500000000002,26.09570833333334,0.17603599999999994,0.45705333333333337,0.02424800000000001,18.5,False
1607123533.3651643,3.9589050515116666,-8.845367843725,2.4251257050999997,-35.29866666666667,11.712166666666667,25.862958333333342,0.1794053333333333,0.4543653333333334,0.02399600000000001,18.5,False
1607123533.3771653,4.002893106975,-8.773064720828334,2.4309282999049997,-35.33016666666667,11.659375000000002,25.90437500000001,0.1826066666666666,0.45176133333333335,0.02399600000000001,18.5,False
1607123533.3892453,4.046641880178333,-8.656334858325,2.454697004398333,-35.10004166666668,11.280791666666667,26.05925000000001,0.18580799999999992,0.44915733333333324,0.02399600000000001,18.5,False
1607123533.4018261,4.10201578318,-8.522097510464999,2.4779073836183327,-34.39420833333334,10.779125,25.68270833333334,0.18926133333333325,0.4463386666666666,0.023968000000000007,18.5,False
1607123533.413829,4.155993872998334,-8.398907026941666,2.5041885518416667,-33.115833333333335,10.12025,24.62250000000001,0.19248133333333328,0.4435853333333333,0.023968000000000007,18.5,False
1607123533.42576,4.207260097203333,-8.289156230355,2.537289264475,-31.271333333333338,9.440666666666667,23.37854166666667,0.1952906666666666,0.4410373333333333,0.024033333333333344,18.5,False
1607123533.4377909,4.26245453851,-8.188737441908332,2.5528625515633325,-29.322125000000007,8.968166666666667,22.121458333333344,0.19781066666666663,0.43840533333333326,0.024033333333333344,18.5,False
1607123533.4497628,4.304229233068332,-8.110771305524997,2.5600410193633327,-27.344916666666673,8.458625000000001,20.688791666666678,0.20066666666666666,0.436184,0.024210666666666675,18.5,False
1607123533.4621077,4.338984981333332,-8.055955727796665,2.5622344400799997,-25.227125000000004,7.721,19.154625000000003,0.20352266666666666,0.43396266666666666,0.024210666666666675,18.5,False
1607123533.4741337,4.361976018481666,-8.041578852008332,2.5670001450916664,-22.83633333333334,6.836666666666667,17.847083333333334,0.205772,0.4320866666666666,0.02423400000000001,18.5,False
1607123533.4862337,4.395615116199999,-8.00532758961833,2.560060959551666,-20.56541666666667,5.973333333333333,16.617708333333333,0.2080213333333334,0.4302106666666667,0.02423400000000001,18.5,False
1607123533.4982395,4.428416726008333,-8.008198976738333,2.5620549783849995,-18.230041666666672,5.310083333333335,15.190583333333334,0.20952400000000004,0.42878266666666676,0.02411733333333334,18.5,False
1607123533.5103984,4.4747577236949985,-8.001917817413332,2.5575684360099995,-15.570333333333336,4.869375000000002,13.659625000000004,0.21102666666666672,0.4273546666666668,0.02411733333333334,18.5,False
1607123533.5225825,4.520201412906666,-7.984171049796664,2.5423540723116664,-12.979749999999996,4.323666666666669,12.145583333333333,0.2123333333333334,0.4262720000000001,0.02466800000000001,18.5,False
1607123533.5349393,4.571148594098332,-7.979186002713331,2.5228924484983333,-10.474333333333332,3.517791666666667,10.498833333333335,0.21364000000000008,0.4251893333333335,0.02466800000000001,18.5,False
1607123533.5470402,4.619104747039999,-7.965447212951664,2.5063420921816664,-7.997208333333335,2.5016250000000015,9.066458333333333,0.2147320000000001,0.42417200000000016,0.02490133333333334,18.5,False
1607123533.5625224,4.665784727928332,-7.9463843929049975,2.500838600201667,-5.585416666666668,1.4609583333333342,7.772333333333336,0.21577733333333343,0.4233226666666668,0.02490133333333334,18.5,False
1607123533.5746584,4.704568394236665,-7.93378219387833,2.5093929409966664,-3.2255416666666674,0.5748750000000006,6.633666666666668,0.21697200000000008,0.4228560000000001,0.024756666666666673,18.5,False
1607123533.58694,4.740500613613332,-7.9064441956733305,2.5214766951266663,-0.7793333333333312,-0.18491666666666523,5.513083333333337,0.21775600000000006,0.4227533333333334,0.024756666666666673,18.5,False
1607123533.599085,4.776193550729999,-7.876254750536664,2.5458635454583325,1.7797500000000008,-0.8035416666666658,4.227125000000003,0.21836266666666673,0.4223613333333335,0.024966666666666675,18.5,False
1607123533.611414,4.812983198204998,-7.850412266456666,2.5603002418116665,4.362166666666667,-1.2430833333333333,2.97004166666667,0.21848400000000007,0.4222120000000001,0.024966666666666675,18.5,False
1607123533.623486,4.8570709546099975,-7.884350466999999,2.5660629562399992,6.884208333333335,-1.7033333333333334,1.9675833333333346,0.2186240000000001,0.42224933333333337,0.02496200000000001,18.5,False
1607123533.635644,4.879703068368331,-7.863532910379998,2.539821668393334,9.396916666666668,-2.3347916666666664,1.090833333333334,0.21827866666666676,0.42292133333333337,0.02496200000000001,18.5,False
1607123533.647641,4.893282336623331,-7.85840828197833,2.5370300420266667,11.529874999999999,-3.0610416666666658,0.30129166666666696,0.2179333333333334,0.42359333333333343,0.02496200000000001,18.5,False
1607123533.6597188,4.908297298438331,-7.848418247623331,2.5448864762300003,13.585541666666666,-3.6875416666666654,-0.27270833333333283,0.21706533333333342,0.4244706666666667,0.025475333333333343,18.5,False
1607123533.6718009,4.929453838259998,-7.839365402119998,2.558246402413333,15.676500000000003,-4.165583333333333,-0.6635416666666665,0.21619733333333344,0.42534799999999995,0.025475333333333343,18.5,False
1607123533.6837966,4.948436897553332,-7.811508959018331,2.5632314494966666,17.848541666666666,-4.510041666666667,-1.119416666666666,0.21555333333333343,0.4268039999999999,0.02525133333333334,18.5,False
1607123533.6957686,4.969752958881666,-7.804629594043332,2.568056975073333,20.219791666666666,-4.809291666666667,-1.6485000000000005,0.21490933333333342,0.4282599999999999,0.02525133333333334,18.5,False
1607123533.7078745,4.997370119723334,-7.803094199541665,2.5633510906266666,22.72025,-5.1604583333333345,-2.025624999999999,0.21410666666666675,0.4295573333333333,0.025834666666666676,18.5,False
1607123533.7198124,5.017410008998335,-7.801977548994999,2.560320181999999,25.352249999999994,-5.544875,-2.3362499999999997,0.21330400000000008,0.43085466666666666,0.025834666666666676,18.5,False
1607123533.7319293,5.029872626706668,-7.803652524814998,2.5342384156599995,27.927375,-5.831291666666667,-2.7778333333333345,0.21238000000000007,0.43233866666666665,0.02590000000000001,18.5,False
1607123533.7438486,5.045047110028334,-7.817869879096666,2.4984058972249996,30.36629166666667,-6.189166666666667,-3.3745833333333346,0.21145600000000006,0.4338226666666667,0.02590000000000001,18.5,False
1607123533.7558382,5.060480815798334,-7.867022443338333,2.46688045947,32.14895833333334,-6.787375000000001,-3.997875,0.21038266666666672,0.43573600000000007,0.02666533333333334,18.5,False
1607123533.7678313,5.05088958521,-7.917989564718332,2.4361326890600004,33.685750000000006,-7.32725,-4.317541666666668,0.209272,0.43794799999999995,0.02666533333333334,18.5,False
1607123533.780303,5.030749994993332,-7.964948708243332,2.41842580182,34.974624999999996,-7.725666666666666,-4.473875000000002,0.20799333333333336,0.4404773333333333,0.026642000000000006,18.5,False
1607123533.7924852,5.005346195056665,-8.012147134028332,2.3880768351766672,35.722458333333336,-7.907083333333333,-4.451708333333333,0.20712533333333336,0.4428013333333334,0.026642000000000006,18.5,False
1607123533.8048491,4.972743987131666,-8.071429313943332,2.3474586715416668,36.42100000000001,-7.97125,-4.3653749999999985,0.20609866666666668,0.44525600000000004,0.027286000000000008,18.5,False
1607123533.8169549,4.9413381905066665,-8.103872000361665,2.2961725071483334,36.859666666666676,-8.04125,-4.412333333333334,0.204904,0.4477573333333334,0.027286000000000008,18.5,False
1607123533.8297207,4.899862598773333,-8.133223957588333,2.2410179462183333,37.271499999999996,-8.122625000000001,-4.6237916666666665,0.20356,0.4505946666666667,0.027066666666666676,18.5,False
1607123533.8418398,4.854658191821667,-8.149973715788333,2.187438660166667,37.72679166666667,-8.351291666666668,-4.707791666666666,0.202608,0.4531613333333333,0.027066666666666676,18.5,False
1607123533.8539176,4.804369036845,-8.160542015605,2.127977018556667,38.2515,-8.496833333333335,-4.804333333333333,0.20165599999999997,0.45572799999999997,0.027066666666666676,18.5,False
1607123533.865774,4.758147680288333,-8.153184086109999,2.06069882312,38.82491666666667,-8.572083333333335,-4.975250000000001,0.200564,0.45836,0.02764066666666667,18.5,False
1607123533.8778567,4.731348067168333,-8.173124274443333,1.9634505246183334,39.203791666666675,-8.456000000000001,-5.770333333333334,0.199472,0.460992,0.02764066666666667,18.5,False
1607123533.8899655,4.687200490198332,-8.17041240883,1.8752550716199998,39.97408333333333,-8.516666666666667,-6.146291666666667,0.198128,0.46356800000000004,0.02764066666666667,18.5,False
1607123533.9023416,4.658945243329998,-8.165108318733333,1.785544164308333,41.14804166666668,-8.628666666666668,-6.881583333333333,0.196784,0.46614400000000006,0.02764066666666667,18.5,False
1607123533.9267395,4.614319101839999,-8.163612804608332,1.6829319551449997,42.13095833333334,-9.291916666666669,-8.484291666666667,0.19545866666666667,0.468552,0.028046666666666675,18.5,False
1607123533.9391105,4.556911299628331,-8.184609822923331,1.5843476640249998,43.38337500000001,-10.286500000000002,-10.052583333333333,0.19374133333333335,0.47107200000000005,0.028312666666666673,18.5,False
1607123533.9512863,4.5008993105999995,-8.227780330665,1.4873187075949998,44.68595833333334,-11.59141666666667,-11.512958333333334,0.19187466666666667,0.47320933333333337,0.028312666666666673,18.5,False
1607123533.963365,4.442833482173333,-8.307900007388334,1.3989039125249996,45.677916666666675,-12.917916666666667,-12.69625,0.18940133333333337,0.475524,0.02827533333333334,18.5,False
1607123533.9754071,4.389712820453332,-8.370611899696666,1.303330589843333,45.678208333333345,-13.934958333333334,-13.665750000000001,0.18710533333333335,0.478128,0.02827533333333334,18.5,False
1607123533.9874542,4.332544300501667,-8.429056591701666,1.2052647436199997,44.91900000000001,-14.385,-14.386750000000001,0.184856,0.4808533333333333,0.02883533333333334,18.5,False
1607123533.999588,4.265565207889999,-8.427341735505,1.0880961969733332,43.926166666666674,-14.319083333333333,-14.90766666666667,0.18258799999999997,0.48339200000000004,0.02883533333333334,18.5,False
1607123534.011894,4.222374759959999,-8.4957166413,0.9974082204333335,42.81258333333334,-14.404833333333332,-15.403208333333335,0.180264,0.48599600000000004,0.028914666666666675,18.5,False
1607123534.023871,4.178426584873333,-8.567202216475001,0.9068598252116667,42.269208333333346,-14.783125,-15.670375000000003,0.17794000000000001,0.48860000000000003,0.028914666666666675,18.5,False
1607123534.0359058,4.135315897696667,-8.642795470446666,0.830728186155,42.130958333333346,-15.593958333333331,-15.691375000000003,0.17561600000000002,0.4908306666666667,0.02919466666666667,18.5,False
1607123534.0478797,4.093262040501667,-8.718787528185,0.7721439128316666,41.94604166666668,-16.413249999999998,-15.280125,0.17329199999999997,0.4930613333333334,0.02919466666666667,18.5,False
1607123534.060175,4.054617955511667,-8.793483473681666,0.7357929495000002,41.37816666666667,-16.880208333333332,-14.485625000000002,0.17093066666666662,0.4951613333333335,0.02919466666666667,18.5,False
1607123534.0855117,4.015335784494999,-8.847302041993334,0.6996613282399998,40.169500000000006,-16.601374999999997,-13.337041666666668,0.16869066666666666,0.4972613333333335,0.029311333333333342,18.5,False
1607123534.1056685,3.98010147171,-8.902755705748337,0.6527819454683333,37.03204166666667,-15.707416666666667,-12.628875000000006,0.16652533333333336,0.4999493333333335,0.02950733333333334,18.5,False
1607123534.1317735,3.943710628001666,-8.957232300275,0.622193696565,33.37629166666667,-14.932166666666667,-12.32466666666667,0.1646866666666667,0.502366666666667,0.029269333333333338,18.5,False
1607123534.1475172,3.8959139965666663,-9.066305130458336,0.5570491012800001,31.323249999999987,-14.745208333333334,-11.51966666666667,0.16281066666666671,0.5044760000000003,0.02906400000000001,18.5,False
1607123534.1711452,3.8788451953533327,-9.087621191786667,0.5548955609399999,26.34858333333332,-13.219791666666667,-11.214875000000005,0.16106533333333342,0.5066693333333336,0.028774666666666674,18.5,False
1607123534.1931813,3.849214075489999,-9.107601260496665,0.5161517750083333,21.474541666666656,-11.122124999999999,-11.097041666666668,0.1594693333333334,0.5084333333333336,0.028774666666666674,18.5,False
1607123534.208151,3.8193037929899996,-9.112008042118331,0.5112066083016666,16.701708333333322,-9.757708333333332,-11.480875000000001,0.15760266666666672,0.510038666666667,0.027930000000000007,18.5,False
1607123534.2458746,3.7796626985833326,-9.145487618329998,0.50392843956,15.502083333333324,-9.68275,-11.627291666666668,0.15559600000000007,0.5111026666666669,0.02772000000000001,18.5,False
1607123534.2581728,3.7463227036899993,-9.192765804868332,0.43130627365000007,14.834458333333325,-9.970333333333334,-11.616500000000002,0.1535893333333334,0.512166666666667,0.02772000000000001,18.5,False
1607123534.2701707,3.6959737281483327,-9.205288243141664,0.36005998073500006,14.040541666666659,-10.201041666666667,-11.743958333333333,0.15156400000000003,0.513034666666667,0.027636000000000008,18.5,False
1607123534.2824996,3.678526063356666,-9.243074900033331,0.3091726201083334,12.847333333333328,-10.016416666666666,-11.689708333333332,0.14953866666666668,0.5139026666666668,0.027636000000000008,18.5,False
1607123534.2947185,3.669552978606666,-9.280801736359999,0.2591028072033333,11.54329166666666,-9.541875000000003,-11.046583333333334,0.14742,0.5144440000000002,0.027692000000000005,18.5,False
1607123534.3069844,3.673401434954999,-9.282596353309998,0.22516460665999996,9.053625000000002,-8.79141666666667,-10.238083333333334,0.14530133333333337,0.5149853333333334,0.027692000000000005,18.5,False
1607123534.3189745,3.682035536503333,-9.298807726424998,0.20971096070166664,6.515833333333332,-7.863333333333338,-9.218708333333332,0.14327600000000001,0.5152466666666667,0.027262666666666675,18.5,False
1607123534.3317683,3.6845878806099988,-9.313384004096664,0.2069990950883333,4.330083333333334,-7.22429166666667,-7.744041666666667,0.1417826666666667,0.5153026666666667,0.027262666666666675,18.5,False
1607123534.3437762,3.662534032313333,-9.297132750604996,0.2205185427783333,2.7988333333333366,-6.95216666666667,-5.811166666666666,0.14028933333333335,0.5153586666666666,0.02802333333333334,18.5,False
1607123534.3558671,3.6522448951333333,-9.320981215851667,0.23158534730333327,1.381916666666671,-6.794083333333337,-4.567208333333334,0.13882400000000003,0.5155733333333333,0.02802333333333334,18.5,False
1607123534.367877,3.631227936629999,-9.349695087051664,0.23094726127666665,0.0072916666666691535,-6.607416666666671,-3.2109583333333345,0.13735866666666668,0.5157879999999999,0.02802333333333334,18.5,False
1607123534.380064,3.628635712146666,-9.377232487139999,0.2542573414383333,-1.400583333333332,-5.878250000000003,-1.173083333333333,0.13622000000000004,0.5159466666666667,0.02767333333333334,18.5,False
1607123534.3922741,3.6651461969849994,-9.365667177906667,0.28979075704833324,-3.2774583333333327,-4.682125000000002,0.6536250000000005,0.1354733333333334,0.5159933333333332,0.02767333333333334,18.5,False
1607123534.404612,3.683949794583333,-9.346185613905,0.33250264045833333,-5.577250000000001,-2.867375,2.0527500000000005,0.13463333333333338,0.5160959999999999,0.028000000000000008,18.5,False
1607123534.4177108,3.709911919793333,-9.288618290186665,0.3692723477449999,-7.239458333333334,-0.9683333333333335,2.7451666666666683,0.13440000000000002,0.5160213333333332,0.028000000000000008,18.5,False
1607123534.429877,3.7321053494083327,-9.264131738913333,0.4197409644166666,-7.547750000000002,0.8035416666666663,3.202208333333334,0.13448400000000005,0.5157133333333334,0.027435333333333343,18.5,False
1607123534.4423418,3.7455849167216657,-9.254959252279999,0.4685944258333333,-7.097416666666667,2.213458333333334,3.474041666666667,0.13452133333333335,0.515284,0.027435333333333343,18.5,False
1607123534.454285,3.739044534948333,-9.271549488973335,0.5122833784716666,-6.619083333333335,3.2468333333333335,3.662750000000001,0.13454933333333335,0.5150973333333333,0.02771066666666667,18.5,False
1607123534.4664857,3.7295131249249995,-9.276454775303336,0.5441477994283332,-6.698708333333335,4.368291666666667,4.0060416666666665,0.13463333333333335,0.5148453333333334,0.02771066666666667,18.5,False
1607123534.4788988,3.724946821796666,-9.25627530471,0.57343993609,-7.993708333333336,5.8490833333333345,4.314041666666667,0.13494133333333333,0.5144626666666667,0.027930000000000007,18.5,False
1607123534.4912844,3.7207195018699997,-9.229695033661669,0.6015954820166666,-10.187333333333338,7.758041666666668,4.088000000000001,0.13532399999999997,0.5140986666666668,0.027930000000000007,18.5,False
1607123534.5033805,3.717509131548333,-9.201519547546667,0.6212166273366666,-12.472541666666672,9.627041666666665,3.2497500000000006,0.13594,0.5135853333333333,0.027724666666666675,18.5,False
1607123534.5157964,3.710091381488333,-9.195497610670001,0.6302295924633333,-14.16770833333334,11.010708333333335,2.047791666666667,0.13655599999999998,0.513072,0.027724666666666675,18.5,False
1607123534.5283294,3.6962528907849994,-9.203693028075,0.63601224708,-15.022875000000006,11.46775,0.7414166666666664,0.13705066666666663,0.5123626666666667,0.027603333333333337,18.5,False
1607123534.5405183,3.6762329416983324,-9.20482961881,0.6505287041866666,-13.772791666666674,11.152166666666666,-0.12541666666666637,0.13735866666666663,0.5110560000000001,0.027603333333333337,18.5,False
1607123534.5529263,3.662274809864999,-9.209555443445,0.6443273056150001,-12.108541666666673,10.923791666666668,-0.6326250000000001,0.1376013333333333,0.510244,0.027636000000000008,18.5,False
1607123534.5651312,3.662135228546666,-9.175756824219999,0.6905686023600001,-12.410125000000006,11.375583333333335,-1.421291666666668,0.13784399999999994,0.5095533333333332,0.027636000000000008,18.5,False
1607123534.5772672,3.625186059565,-9.230811684208332,0.6739185451016668,-10.325875,10.889375000000001,-1.4075833333333334,0.1377786666666666,0.5087133333333332,0.02763133333333334,18.5,False
1607123534.589611,3.605325631984999,-9.270412898238334,0.6871987105316667,-8.330875,10.239541666666668,-0.8408749999999997,0.1377133333333333,0.5078733333333332,0.02763133333333334,18.5,False
1607123534.601686,3.6014173550716664,-9.316255391216666,0.6544569212883332,-6.521666666666667,10.341916666666666,0.26891666666666686,0.1378533333333333,0.5069119999999999,0.027612666666666674,18.5,False
1607123534.613863,3.6213774835933332,-9.318688094193334,0.6024130297383332,-7.917583333333334,11.480875,0.9919583333333334,0.1383013333333333,0.5061746666666667,0.027612666666666674,18.5,False
1607123534.625969,3.6441890590466666,-9.30712278496,0.6241478350216665,-9.015708333333333,12.532916666666667,1.5061666666666664,0.1387493333333333,0.5054373333333334,0.027612666666666674,18.5,False
1607123534.6380897,3.6857444115333333,-9.31226735355,0.6499304985366667,-9.536333333333333,13.193541666666668,2.303291666666667,0.139692,0.5048586666666667,0.027076000000000006,18.5,False
1607123534.6500797,3.6960734290899997,-9.29589645892833,0.663709168675,-9.278791666666667,13.276374999999998,3.1432916666666655,0.14063466666666669,0.5042800000000001,0.027076000000000006,18.5,False
1607123534.6623416,3.7121851012633327,-9.259585375973334,0.675194717155,-9.03175,13.168458333333332,3.5723333333333325,0.14168000000000003,0.5037293333333334,0.02725333333333334,18.5,False
1607123534.6743407,3.7267613789349996,-9.242157651370002,0.6585247197083333,-8.260291666666665,13.022625,3.544624999999999,0.14272533333333334,0.5031786666666668,0.02725333333333334,18.5,False
1607123534.6864166,3.733860085981666,-9.213563421300002,0.6312266018799999,-7.985249999999999,12.691583333333332,3.301083333333333,0.14360266666666666,0.5028426666666668,0.026866000000000008,18.5,False
1607123534.6985054,3.737190097433333,-9.188199501740002,0.6043073476299999,-8.221499999999999,12.550708333333334,2.7466250000000003,0.14448,0.5025066666666668,0.026866000000000008,18.5,False
1607123534.7107515,3.745086412013333,-9.173443762373335,0.5992624799816666,-8.899625000000002,12.47925,2.354041666666667,0.1452733333333333,0.5019746666666668,0.027020000000000006,18.5,False
1607123534.7230153,3.7555948912649995,-9.150512545790003,0.5984648724483334,-9.933291666666667,12.584541666666667,2.079291666666667,0.14611333333333335,0.5011533333333333,0.027020000000000006,18.5,False
1607123534.7352893,3.759882031756666,-9.121379930635,0.6168297859033333,-11.030249999999999,12.620999999999997,1.950083333333334,0.14706533333333333,0.5005466666666668,0.027150666666666674,18.5,False
1607123534.7473803,3.7586257998916657,-9.102995076991666,0.6307081569833334,-11.565166666666666,12.578124999999998,1.789958333333334,0.14788666666666664,0.5000986666666667,0.027150666666666674,18.5,False
1607123534.7598433,3.7286955772033332,-9.106983114658332,0.6256034687699998,-11.658208333333333,12.304541666666667,1.6540416666666675,0.14871733333333334,0.49961333333333335,0.026754000000000007,18.5,False
1607123534.7720902,3.728356594001666,-9.097471644823333,0.6068596917366664,-11.389874999999998,11.611833333333331,1.643250000000001,0.14964133333333332,0.49907199999999996,0.026754000000000007,18.5,False
1607123534.7844672,3.723311726353333,-9.092008033219999,0.5928417393383332,-11.705749999999998,10.883541666666666,1.917708333333334,0.15037866666666666,0.49867999999999996,0.027099333333333343,18.5,False
1607123534.796658,3.713202050868333,-9.083573333555,0.5762116222683333,-12.707916666666668,10.066291666666666,2.1081666666666674,0.15079866666666664,0.49852133333333326,0.027099333333333343,18.5,False
1607123534.809165,3.7115669554249995,-9.075038932948333,0.5725226874266666,-13.876625,9.051874999999999,2.130333333333334,0.1512933333333333,0.4981386666666666,0.026702666666666673,18.5,False
1607123534.8214307,3.718226978328333,-9.067641123076665,0.5938586889433333,-14.825708333333331,7.860124999999997,1.9862500000000003,0.1517973333333333,0.49751333333333325,0.026702666666666673,18.5,False
1607123534.8368938,3.720639741116666,-9.069734842851664,0.6288935998449999,-14.963666666666665,6.615291666666667,1.7365833333333336,0.15228266666666668,0.49680399999999997,0.026674666666666676,18.5,False
1607123534.8490348,3.7200614756549992,-9.084031957886667,0.6633303050966666,-14.266291666666666,5.296083333333333,1.3801666666666668,0.15254400000000004,0.4962253333333333,0.026674666666666676,18.5,False
1607123534.8615468,3.720320698103333,-9.096693977478333,0.6880361984416666,-13.21716666666667,4.087416666666666,1.2357916666666668,0.15305733333333335,0.4956933333333334,0.026800666666666677,18.5,False
1607123534.8737326,3.7194233896283326,-9.112885410405,0.7025127751716665,-12.336625000000002,3.0470416666666673,1.2314166666666668,0.15333733333333335,0.4953106666666667,0.026800666666666677,18.5,False
1607123534.8870645,3.7222748365599996,-9.123692992481667,0.7133203572483332,-11.859458333333333,2.1282916666666676,1.1223333333333336,0.15357066666666666,0.49468533333333337,0.026618666666666676,18.5,False
1607123534.8995106,3.727798268728333,-9.140183528233335,0.7287939433949998,-11.650916666666665,1.3927083333333343,0.9540416666666669,0.153804,0.4942560000000001,0.026618666666666676,18.5,False
1607123534.9116685,3.7301312707633327,-9.171011059396669,0.7573881734649999,-11.47008333333333,0.8201666666666675,0.9867083333333336,0.15385066666666666,0.4938546666666668,0.026866000000000008,18.5,False
1607123534.9239624,3.723551008613333,-9.211808684726668,0.7940980601866664,-11.038999999999998,0.4456666666666668,1.4399583333333335,0.15363600000000002,0.4932293333333335,0.026866000000000008,18.5,False
1607123534.9360075,3.725584907823333,-9.242456754195,0.8260023615199997,-10.201333333333332,0.15370833333333372,2.2140416666666667,0.15342133333333335,0.49260400000000026,0.026866000000000008,18.5,False
1607123534.9481833,3.742354606211667,-9.238628238035002,0.8456235068399999,-9.04983333333333,-0.24995833333333298,2.9741250000000004,0.15378533333333338,0.49225866666666696,0.026730666666666677,18.5,False
1607123534.9603002,3.771487221366667,-9.21416162695,0.8581858254899998,-7.732666666666664,-0.8204583333333334,3.2812500000000004,0.15414933333333333,0.4919133333333336,0.026730666666666677,18.5,False
1607123534.972484,3.8011781617950002,-9.20311476261333,0.8784649970249999,-6.420166666666664,-1.479625,3.3672916666666675,0.15435466666666667,0.49162400000000034,0.026987333333333342,18.5,False
1607123534.9845083,3.81858594621,-9.205368003894998,0.9109276236316666,-5.163375,-2.0518750000000003,3.6755833333333343,0.15455999999999998,0.4913346666666669,0.026987333333333342,18.5,False
1607123534.996795,3.8179478601833337,-9.219525537611668,0.9381061003299999,-4.0775,-2.3738750000000004,4.2017500000000005,0.155036,0.49129733333333364,0.026884666666666675,18.5,False
1607123535.009045,3.81104855502,-9.236793740708334,0.9618748048233332,-3.1931666666666674,-2.5354583333333336,4.80725,0.1551946666666667,0.4911666666666669,0.026884666666666675,18.5,False
1607123535.0214648,3.8110884353966665,-9.251170616496667,0.9788040247183333,-2.398083333333334,-2.5129999999999995,5.453291666666667,0.1554653333333334,0.4908773333333336,0.02717400000000001,18.5,False
1607123535.033527,3.818087441501666,-9.260382983506668,0.9919645490183334,-1.7196666666666658,-2.4987083333333335,6.108083333333334,0.15587600000000004,0.4905506666666669,0.02717400000000001,18.5,False
1607123535.0463388,3.829592930169999,-9.259505615220002,1.0059825014166668,-0.9032916666666663,-2.573375,6.706291666666668,0.1565666666666667,0.4902706666666669,0.02740733333333334,18.5,False
1607123535.0584676,3.909194161996666,-9.32088151491,1.0389835131083334,-0.13970833333333404,-2.694125,7.227208333333334,0.157332,0.4900560000000002,0.02740733333333334,18.5,False
1607123535.0706007,3.9025141989049996,-9.314739936903331,1.0639286887133332,0.9732916666666653,-2.9271666666666665,7.291958333333334,0.157864,0.48982266666666685,0.027388666666666672,18.5,False
1607123535.0830414,3.9980875215866662,-9.373563492486664,1.1229117658033332,1.3635416666666669,-3.1185000000000005,7.858958333333335,0.15847999999999995,0.4897853333333335,0.027388666666666672,18.5,False
1607123535.0953023,3.9992639926983324,-9.394341168729998,1.1330413814766664,2.0232916666666667,-3.282708333333334,8.214500000000003,0.1593853333333333,0.48988800000000016,0.027556666666666674,18.5,False
1607123535.1074035,4.0008791479533325,-9.385547545675,1.1417552437783334,2.528166666666666,-3.3317083333333333,8.826125000000001,0.1601786666666666,0.4897760000000001,0.027556666666666674,18.5,False
1607123535.1198053,4.004428501476665,-9.368518624838334,1.135813067655,3.0447083333333333,-3.279791666666667,9.466333333333335,0.1609626666666667,0.48984133333333346,0.027636000000000008,18.5,False
1607123535.1319132,4.018905078206665,-9.349715027239998,1.1314461664100002,3.4883333333333346,-3.1704166666666675,9.879041666666668,0.16173733333333337,0.4899440000000001,0.027636000000000008,18.5,False
1607123535.1441903,4.040021737651665,-9.317910426848332,1.1247662033183334,3.8625416666666674,-3.103333333333334,10.209208333333333,0.16251200000000005,0.48995333333333335,0.027780666666666676,18.5,False
1607123535.1563141,4.064428528171666,-9.283374020654998,1.107936684365,4.4135,-3.128708333333334,10.304875000000001,0.16347333333333341,0.4898133333333333,0.027780666666666676,18.5,False
1607123535.168591,4.091188260915,-9.251988164218334,1.0883354792333333,5.061583333333333,-3.2996250000000003,10.269000000000002,0.16435066666666673,0.4898133333333333,0.027468000000000006,18.5,False
1607123535.180809,4.107618976101666,-9.224969209026666,1.0749954932383334,5.619249999999999,-3.458583333333334,10.290291666666668,0.1651533333333334,0.4900373333333333,0.027468000000000006,18.5,False
1607123535.193051,4.123531246391666,-9.198747861368332,1.0652048607666667,6.120333333333333,-3.521,10.453916666666668,0.16595600000000005,0.4902613333333333,0.027468000000000006,18.5,False
1607123535.205162,4.142554186061667,-9.167322124555,1.0491330689699998,6.533916666666666,-3.37925,10.599458333333335,0.1668053333333334,0.4907373333333333,0.027444666666666673,18.5,False
1607123535.217354,4.167898165433333,-9.135158600773334,1.0200203940033332,6.7167916666666665,-3.1552499999999997,10.696000000000003,0.1676546666666667,0.4912133333333333,0.027444666666666673,18.5,False
1607123535.2366078,4.193999871961666,-9.108339047465,0.9908279582833333,6.727874999999999,-3.118499999999999,10.76716666666667,0.168336,0.4913906666666666,0.027598666666666674,18.5,False
1607123535.2534556,4.217230191369999,-9.075756779728332,0.9711669325866665,6.703374999999999,-3.1660416666666658,10.715833333333338,0.16921333333333335,0.49151199999999995,0.02768733333333334,18.5,False
1607123535.2717226,4.232903179399999,-9.051369929396664,0.9592426999633332,6.685583333333333,-3.152041666666666,10.751708333333339,0.17013733333333333,0.49187599999999987,0.02768733333333334,18.5,False
1607123535.2878447,4.243770582041666,-9.025028940608331,0.9488339216533332,6.4852083333333335,-3.0502499999999997,10.856708333333337,0.171024,0.4924079999999999,0.027426000000000006,18.5,False
1607123535.3113065,4.256093618431666,-8.990552354979998,0.9409774874499999,6.076583333333334,-2.844333333333333,10.912125000000003,0.172116,0.4929586666666666,0.02733733333333334,18.5,False
1607123535.3273685,4.278645971436666,-8.950891320385,0.9297112810416663,5.507541666666667,-2.7151249999999996,10.751708333333337,0.17313333333333333,0.49329466666666655,0.027472666666666676,18.5,False
1607123535.3417282,4.298925142971667,-8.915956110424998,0.9188239382116665,4.8466249999999995,-2.6839166666666667,10.378666666666671,0.1741506666666667,0.49363066666666655,0.027472666666666676,18.5,False
1607123535.3576412,4.311607102751666,-8.89342369760833,0.9157930295849999,4.165874999999999,-2.649208333333333,9.82829166666667,0.17484133333333335,0.49372399999999994,0.02772933333333334,18.5,False
1607123535.383394,4.312145487836667,-8.888996975798332,0.9149954220516664,3.5037916666666673,-2.581541666666667,9.343250000000003,0.17553200000000002,0.4938173333333332,0.02772933333333334,18.5,False
1607123535.40754,4.306322952843333,-8.884430672669998,0.9138987116933331,2.933291666666667,-2.3762083333333335,9.002583333333332,0.17643733333333333,0.4942093333333332,0.02738400000000001,18.5,False
1607123535.419654,4.305445584556666,-8.873603150404998,0.9056035933466666,2.259541666666668,-2.114,8.665708333333335,0.177156,0.49453599999999986,0.02763133333333334,18.5,False
1607123535.432443,4.310430631639999,-8.853742722824999,0.8968697908566665,1.4513333333333338,-1.806583333333333,8.247458333333334,0.17751066666666668,0.4947506666666666,0.027734000000000005,18.5,False
1607123535.4445899,4.321836419366665,-8.831429652079999,0.89024964833,0.5404583333333339,-1.4778749999999994,7.7198333333333355,0.17786533333333335,0.4949653333333333,0.027734000000000005,18.5,False
1607123535.4568527,4.331826453721665,-8.807840409281665,0.8873782612099999,-0.38295833333333296,-1.1456666666666666,7.123083333333335,0.17823866666666663,0.494928,0.027514666666666673,18.5,False
1607123535.4690046,4.339802529054998,-8.786823450778332,0.8879565266716666,-1.1873750000000003,-0.8125833333333338,6.4919166666666674,0.17861199999999997,0.4948906666666666,0.027514666666666673,18.5,False
1607123535.4814725,4.342813497493332,-8.775278081733331,0.8872985004566666,-1.8477083333333337,-0.45558333333333356,5.865125000000001,0.17860266666666663,0.49489999999999995,0.02756600000000001,18.5,False
1607123535.4970167,4.278526330306666,-8.704590114091665,0.8651449512183332,-2.174958333333334,-0.11258333333333323,5.231916666666668,0.1785933333333333,0.49490933333333326,0.02756600000000001,18.5,False
1607123535.5093625,4.302115573104999,-8.703094599966665,0.8446464376116666,-2.6795416666666663,0.30129166666666674,5.0038333333333345,0.17896666666666664,0.4951239999999999,0.02717400000000001,18.5,False
1607123535.5214953,4.226442558379999,-8.636215208296665,0.7836693416883332,-2.473916666666667,0.6897916666666665,4.223916666666667,0.17933999999999997,0.49533866666666654,0.02717400000000001,18.5,False
1607123535.5339143,4.245924122381665,-8.610691767229998,0.7640681365566667,-2.7078333333333338,1.1214583333333334,3.763666666666667,0.17931199999999997,0.49523599999999995,0.02737000000000001,18.5,False
1607123535.5459301,4.261238187021666,-8.61846844068,0.7404390133816665,-3.070666666666667,1.533291666666667,3.1316250000000014,0.179284,0.49513333333333326,0.02737000000000001,18.5,False
1607123535.5583222,4.270310972713332,-8.639206236546666,0.7287939433949998,-3.7449999999999997,1.904291666666667,2.5491666666666677,0.17922800000000003,0.4948906666666666,0.027365333333333342,18.5,False
1607123535.5703452,4.271307982129999,-8.65771073132,0.7194619352549999,-4.436833333333333,2.275583333333334,2.218708333333334,0.179172,0.494648,0.027365333333333342,18.5,False
1607123535.5824811,4.2662232341049995,-8.685228191219998,0.7181857632016668,-4.995375,2.7116249999999997,1.9964583333333337,0.17945200000000003,0.49477866666666664,0.027164666666666674,18.5,False
1607123535.5945008,4.259403689694999,-8.714600088635,0.7203193633533334,-5.527375,3.187333333333333,1.9337500000000003,0.17973200000000003,0.4949093333333333,0.027164666666666674,18.5,False
1607123535.606866,4.253182350934998,-8.738847357648332,0.7218946382316668,-5.979458333333332,3.6604166666666673,1.9497916666666666,0.18020800000000003,0.4949186666666667,0.027052666666666673,18.5,False
1607123535.618687,4.254697805248332,-8.757511373928335,0.7176473781166667,-6.313708333333332,4.137000000000001,1.9605833333333333,0.18068400000000004,0.49492800000000003,0.027052666666666673,18.5,False
1607123535.6314797,4.256651943704998,-8.767960032615,0.7089135756266669,-6.685291666666666,4.565166666666667,1.857916666666667,0.18116000000000004,0.4949373333333334,0.027052666666666673,18.5,False
1607123535.643524,4.253182350934998,-8.782855353299999,0.7008776797283335,-7.192208333333332,4.940541666666666,1.6969166666666669,0.18151466666666669,0.4945920000000001,0.026978000000000005,18.5,False
1607123535.6557517,4.241916144526666,-8.804011893121666,0.7011568423650001,-7.617166666666664,5.260791666666667,1.6021250000000005,0.18186933333333333,0.49424666666666683,0.026978000000000005,18.5,False
1607123535.6676886,4.226223216308332,-8.822715789778334,0.70265235649,-7.846708333333331,5.614291666666667,1.5440833333333335,0.18205600000000002,0.4939013333333334,0.026954666666666675,18.5,False
1607123535.6800435,4.2047875138499995,-8.840063753628334,0.7037889472250001,-8.015291666666664,5.975083333333334,1.59075,0.18204666666666666,0.4936120000000001,0.026954666666666675,18.5,False
1607123535.6923456,4.184767564763333,-8.844490475438334,0.7029713995033333,-8.186791666666664,6.2685,1.554,0.18242,0.49333200000000005,0.027323333333333342,18.5,False
1607123535.7044873,4.169353799181666,-8.83513852711,0.7130810749883334,-8.239874999999996,6.604208333333333,1.4714583333333335,0.18283066666666667,0.4928840000000001,0.027323333333333342,18.5,False
1607123535.7165494,4.175654898694999,-8.79446054291,0.737647387015,-7.9342083333333315,6.836083333333334,1.3568333333333336,0.1830453333333333,0.49221200000000004,0.027052666666666673,18.5,False
1607123535.7289424,4.218945047566667,-8.706703774055,0.7940382396216668,-7.190458333333331,7.087208333333334,1.1477083333333333,0.18333466666666667,0.4917546666666668,0.027052666666666673,18.5,False
1607123535.7412271,4.35565497878,-8.569634919451667,0.8970492525516666,-5.920541666666665,7.494958333333334,0.5556250000000001,0.1834746666666667,0.4913160000000001,0.027216000000000008,18.5,False
1607123535.753478,4.667200481299999,-8.39844840261,1.0434301751066668,-4.223333333333331,8.295875,-0.5640833333333333,0.1835400000000001,0.49090533333333336,0.027216000000000008,18.5,False
1607123535.765706,5.179244577511666,-8.223971754693334,1.2333604689816664,-2.4354166666666655,9.50425,-2.464875,0.1839413333333334,0.490532,0.027379333333333342,18.5,False
1607123535.778059,5.693282692556666,-8.131389460261667,1.4234901647399998,-0.9467499999999982,10.986208333333336,-5.371333333333333,0.18435200000000007,0.49008400000000013,0.027379333333333342,18.5,False
1607123535.7902641,6.2013586912899985,-8.166185088903333,1.5661023916999999,0.7484166666666681,12.18875,-8.291791666666667,0.18474400000000007,0.4897293333333334,0.02767333333333334,18.5,False
1607123535.804254,6.709454630211666,-8.256394500923333,1.6355939480416664,3.953541666666668,12.402833333333335,-9.820125,0.18522933333333344,0.4892346666666668,0.02767333333333334,18.5,False
1607123535.8163228,7.217829731769999,-8.16060183617,1.7210177148616665,7.813458333333335,11.593166666666669,-9.227458333333336,0.18560266666666672,0.48879600000000006,0.02807933333333334,18.5,False
1607123535.8286328,7.726703338036667,-7.7353773199616676,1.8210775799183332,9.778125000000001,11.521125000000003,-9.111083333333335,0.1858453333333334,0.48876800000000004,0.02807933333333334,18.5,False
1607123535.8407378,8.236733475226666,-7.043911409126667,1.917687792393333,6.8868333333333345,13.101083333333337,-11.81541666666667,0.186116,0.48867466666666676,0.028102666666666675,18.5,False
1607123535.8530846,8.749774580854998,-6.120461347221667,2.1076978470216665,-0.5072083333333325,15.521041666666669,-18.412625000000002,0.18648933333333334,0.48848800000000014,0.028102666666666675,18.5,False
1607123535.8651955,9.022695938573332,-5.173122939693333,2.546980196005,-8.24804166666667,17.751416666666668,-27.871958333333335,0.18572399999999997,0.4881706666666668,0.027132000000000007,18.5,False
1607123535.8775725,8.316115364981666,-4.421138557266667,3.1247471529633324,-8.97225,19.268666666666668,-37.512708333333336,0.1848093333333333,0.4876666666666668,0.027132000000000007,18.5,False
1607123535.8898287,7.516952496958333,-3.87074947889,3.5020753367949995,-2.4368750000000006,22.70916666666667,-47.13858333333334,0.18224266666666664,0.4867240000000001,0.026987333333333342,18.5,False
1607123535.9022384,6.716294114809999,-3.6096526528533337,3.5141192105483325,3.9474166666666672,28.770875000000004,-56.70204166666667,0.17978799999999998,0.48595866666666676,0.026987333333333342,18.5,False
1607123535.9155395,5.917948794508334,-3.5614572176516663,3.2079774990666663,1.1118333333333326,38.08320833333334,-66.19025,0.17531733333333335,0.48471733333333344,0.027122666666666673,18.5,False
1607123535.9276164,5.127001284078333,-3.8644882597533328,2.803530659101667,-4.924791666666668,44.36920833333334,-75.70529166666668,0.17088399999999998,0.48343866666666674,0.027122666666666673,18.5,False
1607123535.9399483,4.338885280391667,-4.205904164396666,2.383889395626667,-4.69904166666667,47.33254166666667,-84.31325000000001,0.16645066666666664,0.4821600000000001,0.027122666666666673,18.5,False
1607123535.9521792,3.5510883197183336,-4.549593250509998,1.7432510248533333,1.3437083333333315,48.297958333333334,-84.32287500000001,0.16045866666666664,0.47958400000000007,0.02649733333333334,18.5,False
1607123535.964323,2.7597619457100007,-4.899583436136665,1.0935598085766667,8.788791666666668,45.23633333333335,-79.75566666666667,0.15446666666666664,0.477008,0.02649733333333334,18.5,False
1607123535.976417,2.2167507370166666,-4.844289293888332,0.7557331378333331,12.567333333333334,39.42895833333334,-74.37383333333334,0.14838133333333334,0.475356,0.027351333333333342,18.5,False
1607123535.988617,1.7507684758550006,-4.6837508376166666,0.7941977611283336,13.069000000000004,33.51133333333333,-69.80895833333334,0.14229599999999998,0.47370400000000007,0.027351333333333342,18.5,False
1607123536.000608,1.28231363134,-4.5653061189166655,0.9792227686733336,11.985458333333334,29.044458333333342,-65.75479166666666,0.13666799999999998,0.47234133333333345,0.027482000000000006,18.5,False
1607123536.0131137,0.7592625511683337,-4.551587269343333,1.1553145718449997,11.052125000000002,25.68679166666668,-61.49033333333333,0.13113333333333338,0.47116533333333344,0.027482000000000006,18.5,False
1607123536.0252938,0.2156132564483339,-4.51848655671,1.2577871996899994,11.28166666666667,22.701875000000005,-56.686000000000014,0.1257853333333334,0.47018533333333346,0.027491333333333343,18.5,False
1607123536.0377357,-0.3425724355666661,-4.4442492355450005,1.271286707191666,13.111583333333334,19.84529166666666,-51.828583333333334,0.12052133333333341,0.46945733333333345,0.027491333333333343,18.5,False
1607123536.0500588,-0.9077970140633334,-4.38197602738,1.1736794852999994,16.125375000000002,16.821583333333333,-46.74979166666667,0.11564933333333341,0.46936400000000006,0.02809333333333334,18.5,False
1607123536.0624166,-1.4333206775883331,-4.297728731671667,1.0194022481650002,19.17854166666667,13.225916666666668,-41.405,0.11039466666666672,0.4692613333333334,0.02809333333333334,18.5,False
1607123536.0745635,-1.9026130100133332,-4.228616038908332,0.8395018690216662,20.981625000000005,9.379708333333337,-36.20545833333334,0.10595200000000006,0.4697000000000001,0.028956666666666676,18.5,False
1607123536.0901766,-2.3580668517349994,-4.192643939154999,0.6650252211050003,20.491625000000003,5.588625000000002,-30.970041666666663,0.10168666666666672,0.4703160000000001,0.028956666666666676,18.5,False
1607123536.1023974,-2.7233910421900003,-4.198426593771667,0.5386443074483332,18.183375,2.1629999999999954,-25.353999999999996,0.09822400000000005,0.4713426666666668,0.02900800000000001,18.5,False
1607123536.1147363,-3.0785457365949993,-4.201796485599999,0.4177668857716665,14.387333333333336,-0.5845000000000051,-19.207416666666663,0.09491066666666673,0.47235066666666686,0.02900800000000001,18.5,False
1607123536.1270344,-3.5026536022566663,-4.201896186541666,0.26394827296833345,10.512833333333333,-3.161374999999995,-12.835958333333338,0.0923066666666667,0.47316266666666684,0.02883533333333334,18.5,False
1607123536.1394064,-4.022135388716666,-4.199862287331666,0.05665007505499999,8.271374999999995,-6.592541666666659,-6.218041666666666,0.08936666666666669,0.4739373333333335,0.02883533333333334,18.5,False
1607123536.1522222,-4.419204358998334,-4.0893338234,-0.13984054078166666,7.372166666666663,-10.68608333333333,0.8735416666666604,0.08732266666666669,0.4749640000000001,0.028597333333333343,18.5,False
1607123536.1644359,-4.661637168755001,-3.809931904473333,-0.2736392044983331,6.193833333333329,-13.846583333333323,6.995916666666678,0.08548400000000002,0.47596266666666676,0.028597333333333343,18.5,False
1607123536.176586,-4.758686065373334,-3.5513276019783335,-0.3229512902466668,3.543166666666667,-15.454541666666655,10.803041666666676,0.08404666666666666,0.47686799999999996,0.028919333333333342,18.5,False
1607123536.189019,-4.761996136636667,-3.5945778704733327,-0.32416764173499985,0.2689166666666678,-15.922374999999997,12.048458333333341,0.08272133333333336,0.4777173333333334,0.028919333333333342,18.5,False
1607123536.2012439,-4.815774824571667,-4.043630911739999,-0.27479573542166674,-0.9864166666666672,-16.87466666666666,13.773083333333341,0.08143333333333333,0.47839866666666675,0.02887733333333334,18.5,False
1607123536.2136328,-4.970111882271666,-4.77774888542,-0.18845471993833338,2.896250000000003,-18.92129166666667,18.72354166666667,0.08011733333333335,0.4791453333333333,0.02887733333333334,18.5,False
1607123536.2258568,-5.169972389936664,-5.708317594559999,-0.19146568837666658,11.548541666666665,-21.588000000000008,28.15254166666667,0.07945466666666667,0.48012533333333324,0.029068666666666673,18.5,False
1607123536.2382407,-5.148576567854998,-6.581458561299998,-0.4557529445466664,20.826749999999997,-23.820125,40.28325000000002,0.07993066666666666,0.48123599999999994,0.029068666666666673,18.5,False
1607123536.2503097,-4.139303935363331,-7.2220769918849985,-0.8737192322016661,23.105833333333344,-25.005458333333333,51.72737500000001,0.08085466666666667,0.48234666666666665,0.029190000000000008,18.5,False
1607123536.2626555,-3.0563523069799987,-7.661080178231665,-1.127139085730001,17.94275,-27.756750000000007,62.33325000000002,0.08343066666666668,0.483896,0.029190000000000008,18.5,False
1607123536.2746086,-1.9888543245550003,-7.8315089679166645,-1.0579466322133344,12.896041666666665,-33.14616666666667,72.74400000000001,0.0860066666666667,0.48544533333333323,0.029190000000000008,18.5,False
1607123536.2867174,-0.9430113866600003,-7.770432171051666,-0.7004389955850001,17.20425,-41.97929166666667,83.40937500000003,0.09075733333333336,0.48740533333333325,0.029540000000000007,18.5,False
1607123536.2986293,0.09696913586499942,-7.341159796611665,-0.2723630324449999,25.03054166666667,-47.87329166666667,94.1354166666667,0.09550800000000001,0.4893653333333333,0.029540000000000007,18.5,False
1607123536.3110914,1.1566306242749997,-6.843691978071664,0.14877374515499966,26.459125000000007,-50.70450000000001,103.8207916666667,0.10052000000000001,0.49126,0.029572666666666674,18.5,False
1607123536.3233953,2.2501306122866667,-6.330830334138331,0.7953343518633332,21.43429166666667,-51.773750000000014,104.19120833333338,0.10675466666666669,0.494172,0.029572666666666674,18.5,False
1607123536.3356133,3.505465168811667,-5.855296722764999,1.4879767338099998,14.546874999999998,-49.18316666666668,98.76591666666671,0.11335333333333336,0.4971306666666667,0.02984333333333334,18.5,False
1607123536.3477252,4.560041909196667,-5.848995623251667,1.8790038270266665,12.248541666666664,-43.75233333333334,91.51158333333336,0.11993333333333338,0.4991466666666666,0.02984333333333334,18.5,False
1607123536.360129,5.535356400956667,-6.050291824476667,1.8706090077383333,15.231708333333332,-38.34483333333335,84.96337500000004,0.12634533333333337,0.501032,0.029908666666666674,18.5,False
1607123536.3724122,6.516453547333334,-6.250112451765001,1.7074783269833336,20.913375,-34.951000000000015,79.61595833333337,0.13230000000000003,0.502628,0.029908666666666674,18.5,False
1607123536.384653,7.557291497956667,-6.289314862028334,1.5487145474733333,25.545624999999998,-32.836125,74.72995833333337,0.1381986666666667,0.5042986666666668,0.030655333333333343,18.5,False
1607123536.3968499,8.623932052283331,-6.289873187301667,1.4918850107233335,25.59695833333333,-31.184125000000005,69.20112500000005,0.1439106666666667,0.5057733333333334,0.030655333333333343,18.5,False
1607123536.4245038,9.708498835921665,-6.137550088623334,1.6581263608583334,19.849958333333333,-29.197583333333338,63.65829166666666,0.14950133333333337,0.5069773333333335,0.030958666666666676,18.5,False
1607123536.4455678,10.80419224465,-5.28107911933,2.3878375529166664,10.432625000000003,-23.664083333333334,52.44079166666668,0.15442933333333336,0.5073880000000002,0.02925066666666667,18.5,False
1607123536.4713686,10.554800309164998,-4.419603162765001,3.1740791789,10.227583333333337,-10.816458333333335,37.52758333333335,0.15779866666666673,0.5075653333333335,0.02889600000000001,18.5,False
1607123536.4916425,10.245827090939999,-4.047878171855001,2.994577603523333,13.844833333333337,2.253125000000002,22.774208333333345,0.15845200000000007,0.5067720000000002,0.02932533333333334,18.5,False
1607123536.5043294,9.902536808593332,-4.490011967770001,2.4568704849266663,4.679208333333334,15.32708333333334,7.961916666666669,0.15910533333333338,0.5059786666666669,0.02932533333333334,18.5,False
1607123536.5231833,9.427222539291666,-4.9388057865883335,1.838266022261667,11.165000000000003,12.903916666666666,11.701666666666659,0.1572853333333334,0.5034586666666668,0.02633400000000001,18.5,False
1607123536.5484383,9.034201427241666,-4.557050880946668,1.3024332813683335,11.375000000000002,5.6274166666666625,10.551041666666663,0.15620266666666674,0.5014706666666668,0.02809800000000001,18.5,False
1607123536.5676632,8.728119536325,-4.450530394870001,1.9320447279933328,10.859041666666664,0.522666666666667,10.36029166666666,0.15397200000000005,0.5000053333333335,0.028018666666666674,18.5,False
1607123536.580149,8.586982883301665,-4.217110550240002,2.528336119913333,13.540041666666664,-3.0680416666666663,9.113416666666659,0.15174133333333337,0.49854000000000015,0.028018666666666674,18.5,False
1607123536.592385,8.349216077615,-4.179443534478333,2.9464818692633323,16.726791666666664,-4.82679166666667,7.803249999999995,0.148456,0.49723333333333347,0.028597333333333343,18.5,False
1607123536.604605,8.001798176283334,-4.299403707491667,3.203630538009999,19.695375000000002,-5.656583333333336,7.755708333333331,0.1451706666666667,0.49592666666666674,0.028597333333333343,18.5,False
1607123536.616613,7.457052171205,-4.402634062493334,3.2674790210533327,21.880833333333335,-5.173000000000004,8.771291666666665,0.1418386666666667,0.4953386666666668,0.029414000000000006,18.5,False
1607123536.6288176,6.7507308200616665,-4.43198601972,3.038426077668333,23.1595,-3.6085000000000007,10.176541666666667,0.13850666666666672,0.4947506666666668,0.029414000000000006,18.5,False
1607123536.6407726,6.010231986115001,-4.394877329231666,2.61870505344,23.930958333333333,-2.7664583333333383,11.834375000000001,0.13566933333333334,0.4948533333333335,0.030053333333333338,18.5,False
1607123536.6529467,5.373182849241668,-4.323850378388332,2.1327227833799993,24.94479166666667,-3.9167916666666676,12.928708333333331,0.13283200000000003,0.4949560000000002,0.030053333333333338,18.5,False
1607123536.6648717,4.863212532616667,-4.2618363926716665,1.6945570849433333,25.966208333333338,-6.591666666666667,13.249541666666662,0.12984533333333337,0.49500266666666687,0.029806000000000006,18.5,False
1607123536.6772385,4.493840483930001,-4.313002915934999,1.3120843325216667,26.367833333333337,-9.741958333333336,13.445833333333335,0.1268586666666667,0.49504933333333345,0.029806000000000006,18.5,False
1607123536.6892924,4.188596080923334,-4.434059799306667,0.9670393136016664,25.817166666666672,-13.091458333333334,14.578666666666665,0.12392800000000004,0.4952640000000001,0.030370666666666674,18.5,False
1607123536.7017293,3.8903108036449994,-4.548715882223333,0.6864210431866662,23.91783333333334,-16.193041666666666,16.807874999999992,0.12099733333333337,0.49547866666666673,0.030370666666666674,18.5,False
1607123536.7138934,3.605943777823333,-4.637250318423332,0.5003990262249999,21.435750000000002,-19.08170833333334,19.217624999999995,0.11806666666666672,0.4959173333333334,0.03053400000000001,18.5,False
1607123536.7267542,3.358366399476666,-4.737290243291666,0.40939200667166636,19.33779166666667,-21.972708333333337,21.14145833333333,0.11525733333333339,0.49642133333333344,0.03053400000000001,18.5,False
1607123536.7387652,3.240679407933333,-4.8708296845599985,0.40259240244999983,17.674125000000004,-25.223625000000006,22.269625000000005,0.11244800000000008,0.49692533333333344,0.03053400000000001,18.5,False
1607123536.754485,3.199502919024999,-5.073102955013332,0.4690929305416662,17.204833333333337,-28.520041666666668,22.70070833333334,0.10977866666666673,0.4979053333333334,0.030352000000000007,18.5,False
1607123536.7665992,3.1485158574566663,-5.338207758904999,0.5797011552266663,17.898125,-30.949041666666666,23.538666666666668,0.10731466666666671,0.49879200000000007,0.03067400000000001,18.5,False
1607123536.7788029,2.852424000894999,-5.631667510606666,0.6330012786416662,18.668125,-31.697458333333334,25.823583333333332,0.1044866666666667,0.4996320000000001,0.03067400000000001,18.5,False
1607123536.7911592,2.4410778557666664,-5.891228942141666,0.6592824468649995,17.441958333333336,-31.51225,29.985666666666667,0.10165866666666669,0.5016666666666667,0.031206000000000008,18.5,False
1607123536.8034348,1.9750357740399997,-6.009972763666666,0.683649357008333,13.079500000000001,-30.35054166666667,35.20066666666667,0.09948399999999998,0.50288,0.031206000000000008,18.5,False
1607123536.8155186,1.51441742354,-6.031368585748333,0.6860222394199995,7.023625,-28.321416666666664,39.77166666666667,0.09730933333333329,0.5040933333333334,0.031206000000000008,18.5,False
1607123536.8279257,1.1256236314166665,-6.036931898293333,0.6763313078899995,2.4225833333333338,-26.637041666666665,43.278958333333335,0.09591866666666662,0.5049800000000001,0.030286666666666674,18.5,False
1607123536.8400795,0.7403991330050002,-6.061039585988334,0.618863685113333,2.0757916666666683,-25.39395833333333,46.31579166666666,0.09452799999999996,0.5058666666666668,0.030286666666666674,18.5,False
1607123536.8523166,0.3357528911566667,-6.285147362666667,0.4103291955233332,6.190333333333333,-24.86370833333333,48.85679166666667,0.09374399999999997,0.5067533333333335,0.030599333333333343,18.5,False
1607123536.8644617,-0.09507481797333345,-7.213542591278334,-0.25246272448833323,12.367250000000002,-27.705125,56.905041666666655,0.09323066666666664,0.5077986666666668,0.030599333333333343,18.5,False
1607123536.8767524,0.7494519785083333,-8.167321679638333,-0.920897717798333,8.45191666666667,-36.85879166666667,68.64608333333332,0.09454666666666665,0.5091613333333336,0.030496666666666675,18.5,False
1607123536.8888483,1.5524034823150001,-8.632007828558333,-0.636032187268333,1.1818333333333304,-45.69279166666666,80.171,0.09776666666666665,0.5109533333333335,0.030496666666666675,18.5,False
1607123536.9013143,2.3247268568416666,-8.275297799463333,-0.051984070984999936,8.138375000000007,-54.70179166666665,91.62300000000003,0.10135066666666666,0.5126240000000002,0.029876000000000007,18.5,False
1607123536.9134035,3.113600587685,-7.912286670855,0.5296512825099999,1.0893749999999998,-49.250541666666656,84.19716666666667,0.10660533333333336,0.5156106666666669,0.029876000000000007,18.5,False
1607123536.9255693,3.762434375863333,-8.382057567799999,1.009691376446666,1.973708333333333,-40.621,81.42516666666667,0.11173866666666667,0.5178600000000002,0.029670666666666675,18.5,False
1607123536.9374533,4.230709758683333,-8.562974896548331,0.3396212876933334,3.784666666666668,-34.91075,77.60783333333333,0.11731066666666669,0.5197826666666667,0.029670666666666675,18.5,False
1607123536.9497752,4.420221308603333,-8.869216308971664,-0.2858027193816666,0.49758333333333504,-29.857916666666668,74.85304166666667,0.12303200000000003,0.5214253333333335,0.029610000000000008,18.5,False
1607123536.9633942,4.559942208254999,-9.014799623993332,-0.7575875753483333,-5.192249999999999,-25.759125,72.56841666666668,0.12891200000000003,0.5226573333333334,0.029610000000000008,18.5,False
1607123536.975551,4.640420808368333,-9.06680363516667,-1.0792228131649997,-11.35341666666667,-23.016875000000002,69.88420833333332,0.13479200000000002,0.5239360000000001,0.029152666666666674,18.5,False
1607123536.987527,4.762175598331667,-9.071728861685001,-1.1931211689249994,-17.283583333333336,-22.106583333333333,67.41699999999999,0.14031733333333335,0.5245893333333334,0.029152666666666674,18.5,False
1607123536.999718,4.954618355936666,-9.010811586326668,-1.0298110264749998,-22.456583333333338,-22.38016666666667,65.77870833333333,0.1458986666666667,0.5251773333333334,0.028410666666666674,18.5,False
1607123537.01192,5.249553681575,-8.893224295725,-0.7246862645983334,-26.994625000000003,-21.913208333333333,64.054375,0.15094800000000003,0.5252426666666667,0.028410666666666674,18.5,False
1607123537.0244057,5.575934684215,-8.760781564815,-0.3873580985633332,-31.61229166666667,-19.78054166666667,62.17254166666667,0.1563426666666667,0.5249813333333334,0.028144666666666672,18.5,False
1607123537.0365486,5.816572877021668,-8.645626977189998,-0.11326026973333331,-36.01645833333334,-16.177875000000007,59.84854166666666,0.16123333333333342,0.5245426666666667,0.028144666666666672,18.5,False
1607123537.0488636,5.927639726038334,-8.523892127415,0.10773683756499998,-39.85916666666666,-12.286750000000005,57.25241666666666,0.16612400000000008,0.5236933333333333,0.02719733333333334,18.5,False
1607123537.0612547,5.954818202736666,-8.381858165916665,0.3035494869983333,-42.313833333333335,-8.626041666666671,54.34129166666666,0.1707533333333334,0.522676,0.02719733333333334,18.5,False
1607123537.0735044,5.987041547083333,-8.257850134671667,0.4691527511066667,-42.58741666666666,-5.7382500000000025,51.048375,0.17538266666666674,0.5216586666666667,0.02719733333333334,18.5,False
1607123537.0856104,6.038008668463333,-8.140641707648332,0.5772285718733333,-41.63366666666666,-3.3550416666666694,47.68954166666668,0.1801240000000001,0.520296,0.027421333333333343,18.5,False
1607123537.0978754,6.0876597374133326,-8.03605541984,0.6094319760316668,-40.49850000000001,-1.0972500000000016,44.39895833333334,0.1845853333333334,0.5189333333333332,0.027421333333333343,18.5,False
1607123537.1101074,6.055675675326666,-7.91414110837,0.594915518925,-39.46279166666667,1.241625,41.84600000000002,0.18916800000000003,0.5177666666666667,0.027430666666666673,18.5,False
1607123537.1224542,6.008198086904999,-7.745985500154999,0.562732054955,-39.14020833333334,3.775916666666667,39.993041666666684,0.19334933333333335,0.5161893333333334,0.027430666666666673,18.5,False
1607123537.1345732,6.006742453156665,-7.502236637968334,0.5251846803233333,-39.17404166666667,6.391291666666666,37.85395833333335,0.19716666666666666,0.5147613333333335,0.02761733333333334,18.5,False
1607123537.1468341,6.145705625651666,-7.182196615218334,0.5189633415633333,-38.86225,8.726083333333332,34.76200000000002,0.20098399999999997,0.5133333333333334,0.02761733333333334,18.5,False
1607123537.158837,6.4074604779033315,-6.84873684572,0.5160121936900001,-37.75420833333333,10.6505,30.33829166666668,0.2045773333333333,0.5107573333333334,0.027748000000000005,18.5,False
1607123537.171137,6.834260268989999,-6.573562246719999,0.5181059134649999,-35.65945833333333,11.6095,24.691333333333333,0.2076853333333333,0.5091333333333334,0.027748000000000005,18.5,False
1607123537.183164,7.29487861949,-6.377211212201666,0.5136193710899999,-32.52725,11.954833333333335,18.86820833333333,0.2107746666666666,0.5075746666666666,0.02810733333333334,18.5,False
1607123537.195387,7.683672411613332,-6.243811352251666,0.4976871606116667,-29.515791666666665,12.128666666666668,13.497458333333334,0.21313599999999996,0.506268,0.02810733333333334,18.5,False
1607123537.2074578,8.068896910024998,-6.1214982370149995,0.5077170753433333,-27.303208333333338,12.037666666666668,8.84595833333334,0.2152173333333333,0.50484,0.028802666666666674,18.5,False
1607123537.2197578,8.473543151873333,-5.982933868286667,0.522891558665,-25.67775000000001,11.710125000000001,4.6585000000000045,0.21681333333333327,0.5036826666666667,0.028802666666666674,18.5,False
1607123537.2318647,8.904370861003335,-5.8456257314233335,0.5185445976083333,-24.84475000000001,11.121250000000002,0.15720833333333292,0.2180173333333333,0.5027026666666667,0.028513333333333342,18.5,False
1607123537.2445445,9.366484725628334,-5.725446216338332,0.5032504731566666,-24.48454166666668,10.34629166666667,-4.42516666666667,0.21895066666666665,0.5016386666666667,0.028513333333333342,18.5,False
1607123537.2565386,9.870173882928333,-5.522614620611666,0.5335196790466666,-24.45916666666667,9.258666666666668,-8.28479166666667,0.21969733333333333,0.5005186666666667,0.02848066666666667,18.5,False
1607123537.2685933,10.404491169508335,-5.127240566338332,0.6971289243216667,-25.34466666666667,8.818250000000003,-11.902333333333335,0.22008,0.4995200000000001,0.02848066666666667,18.5,False
1607123537.2805305,10.922258099771666,-4.508197419529997,0.9716255569183333,-28.703791666666675,10.092833333333337,-16.298916666666674,0.22046266666666667,0.4977933333333333,0.02788333333333334,18.5,False
1607123537.2928855,11.120563272746667,-3.7459438401116643,1.3242478474050001,-35.65216666666667,13.259458333333336,-23.244375000000005,0.2198466666666667,0.49627200000000005,0.02788333333333334,18.5,False
1607123537.3048654,10.769615958080001,-3.0559335630249986,1.7481363709949997,-43.816791666666674,16.549458333333334,-33.79804166666667,0.2192306666666667,0.49475066666666667,0.02788333333333334,18.5,False
1607123537.3170283,9.934082186536667,-2.6057040506466658,2.296232327713333,-47.13508333333334,18.24404166666667,-44.0475,0.2174666666666667,0.49279999999999996,0.026301333333333343,18.5,False
1607123537.3292263,9.122556401746666,-2.390290196081666,2.9225735834516664,-41.40616666666667,20.235250000000004,-54.21995833333334,0.2157026666666667,0.4908493333333333,0.026301333333333343,18.5,False
1607123537.344669,8.325287851615,-1.9661424500433327,3.233520880321666,-36.46854166666667,29.615541666666672,-64.306375,0.21186666666666673,0.48882400000000004,0.026128666666666675,18.5,False
1607123537.356744,7.538687302241666,-2.3270199784999988,2.8921647962433332,-39.651500000000006,39.00983333333333,-74.69816666666667,0.20803066666666672,0.48679866666666666,0.026128666666666675,18.5,False
1607123537.369438,6.749235305936666,-2.775773916941666,2.3265214737916664,-45.41716666666668,42.837374999999994,-85.799875,0.2027386666666667,0.48423199999999994,0.025461333333333343,18.5,False
1607123537.3817139,5.941936841073332,-3.270489989491666,1.8490935445266663,-40.515125000000005,40.743208333333335,-87.94041666666666,0.1974466666666667,0.48166533333333317,0.025461333333333343,18.5,False
1607123537.3941867,5.100301371899999,-3.795435387555,1.4030315315099995,-28.04141666666667,37.00608333333333,-79.76179166666667,0.19097866666666669,0.47876266666666656,0.024504666666666675,18.5,False
1607123537.4063346,4.262853342276666,-3.731407442816667,1.0609177202750002,-16.74254166666667,31.073291666666663,-70.99400000000004,0.18451066666666668,0.4758599999999999,0.024504666666666675,18.5,False
1607123537.4186258,3.5216964821149994,-3.7078381402066674,0.9297910417949998,-12.543416666666673,23.503083333333333,-64.47408333333335,0.17925600000000003,0.47492666666666655,0.026408666666666678,18.5,False
1607123537.4316006,2.7516064086816665,-3.7279577902350005,1.041316515143333,-11.994208333333335,15.760208333333331,-57.51287500000002,0.17375866666666667,0.4739933333333332,0.026408666666666678,18.5,False
1607123537.4438357,2.015434595603332,-3.723551008613334,1.3134801457050003,-11.702833333333334,9.225125000000002,-50.476708333333356,0.16850400000000001,0.4733399999999998,0.02665600000000001,18.5,False
1607123537.4563596,1.3382857399916657,-3.6735609564616665,1.596112375141667,-10.79225,4.484375000000003,-44.253708333333364,0.16313733333333336,0.47280799999999984,0.02665600000000001,18.5,False
1607123537.4693725,0.8343772406199998,-3.58265363785,1.858106509653333,-9.422583333333337,0.9934166666666627,-38.64379166666667,0.15827466666666667,0.47277066666666656,0.026894000000000008,18.5,False
1607123537.4817615,0.47164527464833267,-3.475415304993333,2.0548762881266667,-8.598625000000004,-1.132541666666668,-33.886125000000014,0.15329066666666674,0.47253733333333325,0.026894000000000008,18.5,False
1607123537.4939795,0.16845471103999954,-3.407479083341666,2.1583459253883333,-9.162125000000001,-2.2009166666666657,-29.96029166666668,0.14886666666666673,0.4724066666666667,0.02756133333333334,18.5,False
1607123537.5063763,-0.10933205263166673,-3.4026336175766665,2.2047666838283333,-11.253375000000007,-3.245958333333336,-26.154625000000006,0.1446013333333334,0.47222,0.02756133333333334,18.5,False
1607123537.5185702,-0.42470607131166627,-3.4549766119516665,2.238924226443333,-13.242541666666671,-4.827375000000003,-22.080333333333325,0.1409986666666667,0.47239733333333334,0.02738400000000001,18.5,False
1607123537.53096,-0.7494320383199999,-3.5608390718133336,2.244487538988333,-13.144833333333336,-6.664583333333336,-18.165291666666672,0.13762000000000005,0.472528,0.02738400000000001,18.5,False
1607123537.5430381,-1.1313265252800007,-3.6840694357133335,2.183729785136667,-10.931375000000001,-8.44345833333333,-13.999124999999985,0.134624,0.47266800000000003,0.02788800000000001,18.5,False
1607123537.5552971,-1.4550554828716677,-3.7649468395933336,2.0524236449616664,-7.597916666666668,-10.135416666666666,-9.179916666666676,0.13164666666666666,0.4727426666666667,0.02788800000000001,18.5,False
1607123537.567317,-1.6924035446033348,-3.804288831175,1.8891932632649997,-4.784499999999997,-11.380833333333332,-4.113958333333318,0.12912666666666667,0.47312533333333345,0.02845733333333334,18.5,False
1607123537.5876818,-1.8961723291816672,-3.843790344263333,1.7061223941766661,-4.938208333333335,-11.928291666666667,-0.09916666666665558,0.12688666666666665,0.4736293333333334,0.02845733333333334,18.5,False
1607123537.6045527,-2.0676978292250006,-3.855355653496666,1.625863136135,-6.880125000000002,-11.546500000000002,2.5841666666666714,0.12515999999999997,0.4742266666666668,0.02907333333333334,18.5,False
1607123537.6277397,-2.195295094370002,-3.89946335009,1.635693648983333,-5.89370833333334,-11.204666666666672,4.560208333333352,0.12368533333333327,0.47469333333333347,0.028784000000000007,18.5,False
1607123537.6433105,-2.264547368451668,-4.012324816056666,1.7694524323233332,-3.475208333333339,-11.150125000000006,6.579416666666672,0.12230399999999995,0.47533733333333344,0.029512000000000007,18.5,False
1607123537.6610885,-2.311845495178333,-4.201158399573333,1.9839290980366664,-1.1293333333333373,-10.205125000000004,8.065166666666668,0.1211093333333333,0.4760373333333334,0.029512000000000007,18.5,False
1607123537.6788213,-2.311845495178332,-4.591268244126667,2.13738878745,2.35725,-8.039791666666668,8.976624999999997,0.11980266666666667,0.4766066666666668,0.029278666666666675,18.5,False
1607123537.6976705,-2.311845495178332,-5.265286490169999,2.062692841953333,8.295583333333335,-6.9046250000000065,11.190374999999996,0.118412,0.4779133333333334,0.029488666666666673,18.5,False
1607123537.7234101,-2.0391434795316656,-6.0893745936100006,1.7862819512766666,17.34133333333334,-8.415458333333339,17.46354166666667,0.11740400000000001,0.47922000000000003,0.029488666666666673,18.5,False
1607123537.741581,-1.228794165853332,-6.725805584645,1.4402598631283325,26.246208333333332,-10.826666666666666,28.616291666666676,0.11696533333333334,0.48047066666666677,0.02949333333333334,18.5,False
1607123537.7577689,0.07784649525333479,-7.144689120963334,0.9251250377249997,30.47129166666667,-12.526500000000006,38.46033333333334,0.11781466666666666,0.48207600000000006,0.029820000000000006,18.5,False
1607123537.770184,1.3844871563600003,-7.255775910168334,0.29268208435666665,26.921125000000004,-15.38920833333334,47.57929166666667,0.11866400000000003,0.48410133333333333,0.02939533333333334,18.5,False
1607123537.7824678,2.6911278174666666,-7.457052171205002,0.023310080161666684,24.162249999999997,-26.49208333333333,55.52779166666666,0.12150133333333338,0.4861546666666667,0.02939533333333334,18.5,False
1607123537.794705,3.997768478573334,-6.764070806056667,0.53742795596,27.72116666666666,-37.172041666666665,62.11858333333334,0.12433866666666672,0.48820800000000003,0.02939533333333334,18.5,False
1607123537.806809,5.142833793615,-5.914957766258335,1.4032508735816667,29.903125000000003,-40.504041666666666,67.59550000000004,0.12825866666666672,0.49074666666666666,0.029423333333333343,18.5,False
1607123537.8196876,5.760401366486666,-5.035635341135002,2.347797654743333,19.55625000000001,-35.73383333333333,62.9941666666667,0.13217866666666672,0.4932853333333334,0.029423333333333343,18.5,False
1607123537.8318517,5.839843076806667,-4.201058698631668,3.277409234843333,5.468166666666663,-28.17470833333333,47.05166666666667,0.13594000000000006,0.49582400000000004,0.027743333333333342,18.5,False
1607123537.8443105,5.839843076806667,-3.8884364259416677,3.9799020698266663,-2.599625000000004,-16.70345833333333,28.902999999999995,0.1397013333333334,0.49836266666666673,0.027743333333333342,18.5,False
1607123537.8563006,5.752265769646667,-3.5256645795933337,4.286283063568333,-5.434625000000003,-1.3037499999999929,12.537583333333336,0.14131600000000002,0.4990066666666667,0.02744000000000001,18.5,False
1607123537.8687024,5.702554880131668,-3.520639652133333,4.123291964131666,-9.73291666666667,14.558833333333329,-4.08945833333333,0.14293066666666668,0.4996506666666667,0.02744000000000001,18.5,False
1607123537.8807855,5.621836997758335,-4.008137376506666,3.5991042932249986,-15.389500000000004,26.666499999999996,-20.66779166666667,0.14323866666666668,0.4991373333333334,0.02602133333333334,18.5,False
1607123537.8930633,5.464887775386668,-4.541856457436666,2.8754150380433336,-19.086083333333338,34.42891666666667,-33.67525,0.14354666666666674,0.498624,0.02602133333333334,18.5,False
1607123537.9049392,5.120879646259999,-5.103810845046666,2.07469683533,-19.277125000000005,38.02312500000001,-36.223541666666655,0.14238000000000003,0.4971586666666667,0.024868666666666674,18.5,False
1607123537.9171672,4.5933021433366665,-5.6540404019166655,1.4929617808933329,-13.627541666666666,36.43704166666667,-31.169249999999995,0.14121333333333336,0.4956933333333334,0.024868666666666674,18.5,False
1607123537.929315,3.925485295865,-5.519982515751666,1.1847662300133337,-7.4827083333333295,31.60704166666667,-25.680958333333333,0.14054133333333332,0.4948066666666667,0.026180000000000005,18.5,False
1607123537.941432,3.1622147668416667,-5.426562733409999,0.993160960318333,-2.9341666666666617,25.529875000000008,-22.09958333333334,0.13986933333333335,0.49392,0.026180000000000005,18.5,False
1607123537.953394,2.3793829130633335,-5.3257052608199995,0.8988638096900005,1.1739583333333339,18.318125000000002,-18.166750000000004,0.13850666666666667,0.493584,0.02722533333333334,18.5,False
1607123537.9654129,1.5960525545766668,-5.133282443403332,0.921655444955,3.5035000000000056,11.076333333333336,-14.040833333333333,0.13714400000000002,0.49324799999999996,0.02722533333333334,18.5,False
1607123537.97852,1.0145767225883338,-4.919384043151665,1.0601599931183334,3.175666666666673,5.291416666666673,-11.049208333333334,0.13612666666666667,0.49345333333333324,0.028406000000000008,18.5,False
1607123537.990706,0.5228317381000009,-4.795475712848332,1.2870394559749998,0.4940833333333354,0.6235833333333356,-8.868708333333332,0.13510933333333333,0.4936586666666666,0.028406000000000008,18.5,False
1607123538.0061626,0.1328415346766668,-4.738227432143333,1.57914327487,-3.3681666666666574,-3.085833333333331,-6.828791666666666,0.13421333333333332,0.49379866666666655,0.028690666666666677,18.5,False
1607123538.0186327,-0.08406783401333315,-4.675794702471667,1.9020347445516665,-5.132749999999996,-5.420333333333334,-4.595791666666667,0.13331733333333334,0.4939386666666665,0.028690666666666677,18.5,False
1607123538.0307498,-0.13142578130500027,-4.631706946066667,2.106960060053334,-3.9902916666666632,-6.762583333333331,-2.3388749999999945,0.13242133333333334,0.4938359999999999,0.02830333333333334,18.5,False
1607123538.0434186,-0.07383851739833378,-4.55413961345,2.189253217305,-3.064541666666659,-6.7885416666666645,0.045500000000004565,0.13166533333333336,0.49368666666666655,0.02830333333333334,18.5,False
1607123538.0555944,-0.0045862433166673116,-4.439084726766667,2.1225333471416667,-1.2276249999999953,-6.262375,1.7963750000000036,0.13141333333333333,0.4933693333333332,0.029474666666666673,18.5,False
1607123538.0678735,0.04271188341000022,-4.36127811189,1.963629986313333,1.2168333333333388,-6.561916666666667,3.1578749999999967,0.13116133333333332,0.4930519999999999,0.029474666666666673,18.5,False
1607123538.0803232,0.04271188341000022,-4.3036709077949995,1.8104295193483333,3.56883333333334,-8.112416666666665,4.30266666666667,0.13121733333333335,0.4929866666666666,0.029652000000000008,18.5,False
1607123538.0926385,0.04271188341000117,-4.270769597045001,1.7739190345099993,6.152416666666676,-9.018624999999997,4.477666666666664,0.13135733333333335,0.49291199999999996,0.029652000000000008,18.5,False
1607123538.1047053,0.04271188340999975,-4.320620067878333,1.771785434358333,8.812125000000005,-7.697666666666661,3.3763333333333336,0.13149733333333333,0.4928373333333333,0.03084666666666668,18.5,False
1607123538.116964,0.04271188340999975,-4.562773714998332,1.7004195003133329,10.971041666666679,-5.609333333333328,2.0597499999999993,0.13117066666666666,0.49299600000000005,0.030370666666666674,18.5,False
1607123538.1293,0.04271188341000117,-4.728576380989998,1.7524833320516662,10.380125000000005,-4.196791666666663,3.1307500000000013,0.13055466666666665,0.49350933333333347,0.030370666666666674,18.5,False
1607123538.1415622,0.04271188341000117,-4.843651207861665,2.0322242341799996,6.8719583333333425,-3.1100416666666666,5.488583333333332,0.13023733333333334,0.4937613333333334,0.030552666666666676,18.5,False
1607123538.153669,0.04271188341000117,-4.937928418301666,2.3707089311383327,3.86720833333334,-1.2220833333333303,9.205291666666666,0.13000399999999998,0.4940133333333334,0.030552666666666676,18.5,False
1607123538.1659122,0.04271188341000117,-5.039005232963333,2.4971696055483332,5.224625000000009,0.541333333333339,13.856208333333338,0.13002266666666668,0.49373333333333336,0.029820000000000006,18.5,False
1607123538.1778398,0.20428722947500144,-5.195216668366665,2.2722442811483337,13.38516666666667,0.39054166666666723,18.81483333333334,0.13035866666666668,0.4935746666666668,0.029820000000000006,18.5,False
1607123538.19046,0.8933603177100011,-5.3378488355150004,1.767717635938333,24.38275000000001,-3.1794583333333284,24.147375000000004,0.1313386666666667,0.49370533333333344,0.029852666666666677,18.5,False
1607123538.2026708,2.1205592684966685,-5.366004381441668,1.2984651838899997,29.64033333333334,-8.372291666666664,29.94045833333335,0.13330800000000004,0.49449866666666675,0.029852666666666677,18.5,False
1607123538.2148159,3.427199929603335,-5.396193826578334,1.0265607757766668,26.290833333333335,-14.462291666666669,35.94820833333334,0.13496000000000005,0.49489066666666676,0.030342666666666674,18.5,False
1607123538.2269187,4.733840590710002,-5.376034296173334,1.0271789216150002,22.170458333333332,-21.404250000000005,41.086208333333325,0.13754533333333335,0.4956186666666669,0.030342666666666674,18.5,False
1607123538.2390547,6.0395440629650015,-4.968716069088334,1.304267778695,22.487208333333342,-27.256541666666667,44.59758333333333,0.1394586666666667,0.4963093333333335,0.029353333333333342,18.5,False
1607123538.2514596,6.833781704470001,-4.108237121939999,1.8536000270900002,24.987083333333352,-29.862874999999992,46.63195833333334,0.14243600000000003,0.4978773333333335,0.029353333333333342,18.5,False
1607123538.2636576,6.9835125786650005,-3.211845895603333,2.710011175818333,25.557875000000006,-28.71108333333332,45.102458333333324,0.14421866666666672,0.4993333333333334,0.028476000000000008,18.5,False
1607123538.2757614,6.9835125786650005,-2.171087705733333,3.6816566729249995,23.62879166666668,-23.26099999999999,32.78508333333334,0.14697200000000002,0.5012466666666667,0.028476000000000008,18.5,False
1607123538.2878795,6.9835125786650005,-1.0906884214566668,4.258446560655,19.22958333333334,-12.374249999999995,13.671874999999993,0.1484746666666667,0.5026280000000001,0.02795333333333334,18.5,False
1607123538.2999551,6.983512578665001,-1.1638888528283329,4.152783502676667,13.671875,2.740791666666669,-5.014916666666674,0.1489226666666667,0.5033280000000001,0.02795333333333334,18.5,False
1607123538.3124542,6.983512578665,-1.7536598031633337,3.6582867721983336,0.6361250000000003,18.556125,-21.18783333333334,0.14726133333333338,0.5032160000000001,0.027388666666666672,18.5,False
1607123538.324911,6.983512578665,-2.3042881638,3.0816763461633334,-12.299000000000001,30.559666666666665,-31.041208333333337,0.14562800000000006,0.5021893333333335,0.027388666666666672,18.5,False
1607123538.337052,6.93451953593,-2.8824738647133334,2.5268804861650005,-14.336291666666671,36.282166666666676,-28.055708333333328,0.14401333333333338,0.5005373333333335,0.025764666666666672,18.5,False
1607123538.349369,6.630491484411667,-2.9258637145266664,2.0614964306533334,-7.4515,34.47616666666668,-23.35783333333333,0.1416706666666667,0.49833466666666687,0.025764666666666672,18.5,False
1607123538.3617852,6.139324765385,-2.5817957648350003,1.7156139238233332,0.20970833333333302,29.66950000000001,-20.312250000000002,0.139328,0.4961320000000002,0.025764666666666672,18.5,False
1607123538.373857,5.460022369433333,-2.407099774846666,1.5049857144583336,2.4873333333333325,24.129583333333343,-18.25658333333333,0.13727466666666668,0.49533866666666687,0.028326666666666674,18.5,False
1607123538.386462,4.574059861595,-2.2685354061183336,1.5414164385433338,2.4698333333333315,17.999624999999998,-14.057166666666667,0.13522133333333336,0.4945453333333335,0.028326666666666674,18.5,False
1607123538.3986106,3.601078371870001,-2.1115064229933336,1.73683028421,1.2451249999999991,12.505208333333334,-9.584750000000003,0.13337333333333337,0.4944706666666667,0.02940933333333334,18.5,False
1607123538.4113748,2.7570101997199994,-2.0494126765233336,1.9559131334283342,-1.7001249999999986,7.583333333333339,-5.803000000000003,0.13152533333333338,0.49439600000000006,0.02940933333333334,18.5,False
1607123538.4235866,2.084547288366666,-2.0252052878866666,2.1663020605333334,-6.060541666666667,2.8160416666666683,-1.7829583333333336,0.12997600000000004,0.49437733333333334,0.029484000000000007,18.5,False
1607123538.4359405,1.6453447001366655,-1.9169898858016665,2.3891336651583326,-10.24129166666667,-0.8720833333333364,2.0530416666666667,0.1284266666666667,0.49435866666666667,0.029484000000000007,18.5,False
1607123538.4482865,1.4375081171383313,-1.80107757102,2.499841590784999,-13.862916666666672,-3.030999999999991,5.230458333333326,0.12733466666666668,0.49420000000000003,0.029670666666666675,18.5,False
1607123538.4606855,1.390469212859998,-1.636032632185,2.5109881560633327,-17.43670833333334,-4.683291666666658,8.025208333333335,0.1262426666666667,0.49404133333333333,0.029670666666666675,18.5,False
1607123538.4738865,1.390469212859998,-1.4380066218466667,2.5385255561516664,-20.67975000000001,-6.860874999999991,10.023416666666662,0.1259906666666667,0.49406,0.029362666666666672,18.5,False
1607123538.4862814,1.390469212859998,-1.2507483132083332,2.5932214927499992,-21.711666666666677,-8.987999999999994,10.619583333333333,0.12563600000000003,0.4939013333333333,0.029362666666666672,18.5,False
1607123538.4986773,1.3904692128599976,-1.1239685957849994,2.6062823161083335,-19.133041666666667,-9.915791666666665,9.717458333333331,0.12525333333333338,0.4937613333333333,0.02926466666666667,18.5,False
1607123538.5110042,1.3904692128599976,-1.1870194712949995,2.4312473429183328,-13.645333333333339,-9.517958333333333,7.422916666666666,0.12457200000000004,0.4934626666666666,0.02926466666666667,18.5,False
1607123538.5231411,1.3904692128599985,-1.4666606724816664,2.111984987513333,-7.581874999999999,-8.893791666666658,4.940541666666667,0.12396533333333339,0.4930893333333333,0.029530666666666674,18.5,False
1607123538.535484,1.3904692128599996,-1.8394225531849997,1.8738592584366667,-4.680666666666667,-8.649083333333333,3.820541666666676,0.1231066666666667,0.493248,0.029530666666666674,18.5,False
1607123538.5476,1.39046921286,-2.1864416507499995,1.8920845905733332,-7.1265833333333335,-8.10279166666667,4.347291666666675,0.1220986666666667,0.49351866666666666,0.029759333333333342,18.5,False
1607123538.559923,1.390469212860001,-2.502553456398333,2.081217276915,-12.787250000000004,-6.106333333333336,6.068708333333344,0.12044666666666669,0.4935,0.029759333333333342,18.5,False
1607123538.572278,1.390469212860001,-2.790689177814999,2.2404795611333332,-16.833541666666672,-3.7277916666666657,9.341791666666666,0.11946666666666668,0.49367733333333336,0.02919466666666667,18.5,False
1607123538.5845098,1.390469212860001,-3.0321449183433327,2.2988245521966664,-16.18458333333333,-2.654458333333336,15.262041666666669,0.118804,0.4942559999999999,0.02919466666666667,18.5,False
1607123538.5995078,1.390469212860001,-3.181317467264999,2.223330999166667,-11.594916666666666,-3.81266666666666,22.671541666666663,0.11898133333333336,0.49412533333333325,0.02926466666666667,18.5,False
1607123538.6117587,1.3914064017116672,-3.2486156028899997,2.0299311125216675,-6.5222500000000005,-6.9075416666666705,30.328666666666667,0.1198306666666667,0.49403199999999986,0.02926466666666667,18.5,False
1607123538.6238167,1.9038094213133343,-3.291247725546667,1.7996817578366668,-3.407833333333334,-11.277583333333329,38.147666666666666,0.12080133333333336,0.4941999999999999,0.02906400000000001,18.5,False
1607123538.6361275,3.0607192082250014,-3.302174948753333,1.5894722924266669,-2.3289583333333357,-16.667875,45.097500000000004,0.1229666666666667,0.49448,0.02906400000000001,18.5,False
1607123538.6483586,4.3673598693316675,-3.419682478601666,1.436112303955,-3.8231666666666646,-21.514791666666664,51.12508333333334,0.12504800000000002,0.4947413333333332,0.02867200000000001,18.5,False
1607123538.6607034,5.6740005304383345,-3.6318062020916657,1.4890136236033333,-9.009583333333333,-26.01316666666667,54.78812500000001,0.12838000000000002,0.4955346666666666,0.02867200000000001,18.5,False
1607123538.6728954,6.757430723341668,-3.3522647018466647,1.9820547203333334,-12.86629166666667,-31.654291666666662,56.61687500000003,0.130284,0.4961413333333333,0.028298666666666677,18.5,False
1607123538.6852963,7.322934464475,-2.462613259166666,2.8405396486483334,-6.162333333333335,-37.56433333333334,57.17074999999999,0.13429733333333338,0.49756,0.028298666666666677,18.5,False
1607123538.6974382,7.322934464475,-1.5681761712866662,3.7150764285716664,2.8414166666666665,-38.85816666666667,51.61158333333333,0.13831066666666667,0.49872666666666665,0.028126000000000005,18.5,False
1607123538.7098432,7.322934464475001,-0.478145776045,4.341936129206666,7.707291666666673,-34.21308333333334,32.998875000000005,0.14098933333333336,0.5005186666666667,0.028126000000000005,18.5,False
1607123538.722307,7.322934464475001,0.09172486633333309,4.5337607409733325,6.221833333333332,-21.952874999999995,13.885666666666653,0.14366800000000002,0.5023106666666667,0.028126000000000005,18.5,False
1607123538.7347403,7.322934464475001,-0.13818550514999994,4.215874258563332,-4.590250000000002,-3.4011250000000075,-3.253541666666672,0.14446133333333339,0.5039626666666667,0.028732666666666674,18.5,False
1607123538.746895,7.322934464475001,-0.7850252744949999,3.631347577759999,-17.08495833333334,15.70625,-19.534958333333336,0.1443866666666667,0.5039626666666667,0.028732666666666674,18.5,False
1607123538.7727818,7.322934464475001,-1.421356564588333,2.866741056118333,-26.485083333333332,29.504125000000002,-29.75000000000001,0.14210933333333337,0.5026280000000001,0.02714133333333334,18.5,False
1607123538.7933648,7.208158740428333,-1.400539007968333,2.469672085836665,-16.398375,29.372,-27.433291666666673,0.14028000000000002,0.500052,0.02536800000000001,18.5,False
1607123538.8116457,6.815596252710001,-1.2749357616566668,2.0634505691099996,-6.4653750000000025,25.236458333333324,-27.63512500000001,0.13929999999999998,0.499464,0.02828000000000001,18.5,False
1607123538.8293905,6.181418502956668,-1.1844671271883334,1.882114496406666,-3.1885,21.46054166666666,-25.820958333333337,0.13742400000000002,0.4988106666666667,0.02828000000000001,18.5,False
1607123538.8516386,5.64670241261,-1.1244471603050001,1.8160327122699997,-1.7193749999999994,18.581791666666664,-24.248291666666667,0.135912,0.498708,0.029997333333333338,18.5,False
1607123538.8640993,5.212365230333334,-1.127517949308333,1.8232510604466658,-1.5997916666666687,15.140125,-21.982041666666667,0.13446533333333333,0.499044,0.030076666666666675,18.5,False
1607123538.8925562,4.811806727093333,-1.0568898022316666,1.9864415617666658,-2.089791666666669,11.983124999999996,-20.064041666666657,0.133868,0.49955733333333335,0.030296000000000007,18.5,False
1607123538.9068263,4.771547486848332,-1.094576758181667,2.1223140050699993,-0.22283333333333388,11.897375,-21.026249999999997,0.13246799999999997,0.499856,0.030356666666666674,18.5,False
1607123538.925424,4.771547486848332,-1.184606708506667,2.1117058248766654,1.689916666666665,12.906541666666664,-21.623875,0.131068,0.5001546666666666,0.030356666666666674,18.5,False
1607123538.9377081,4.771547486848332,-1.314536975686667,1.9942780557816664,2.7177499999999997,13.84191666666666,-21.048708333333327,0.13024666666666668,0.5004346666666666,0.030632000000000006,18.5,False
1607123538.949774,4.771547486848332,-1.3306486478599997,1.9551155258949997,1.296458333333333,13.929124999999994,-19.999000000000002,0.12942533333333334,0.5007146666666665,0.030632000000000006,18.5,False
1607123538.962228,4.771547486848332,-1.3152149420900003,2.106740717981666,-3.787583333333339,13.59283333333333,-20.48316666666667,0.12852933333333333,0.5012466666666665,0.030524666666666676,18.5,False
1607123538.974346,4.771547486848332,-1.3647663100983334,2.407438758048333,-9.974124999999999,13.68995833333333,-22.73483333333333,0.12763333333333332,0.5017786666666665,0.030524666666666676,18.5,False
1607123538.9866378,4.771547486848332,-1.5271193235083333,2.7159932323183327,-13.114500000000005,14.590333333333332,-25.498375000000003,0.12678399999999998,0.5019839999999999,0.029815333333333343,18.5,False
1607123538.9987266,4.771547486848332,-1.7590037736366668,2.9111079751599993,-12.43141666666667,15.436749999999993,-27.407625000000007,0.12593466666666667,0.5021893333333333,0.029815333333333343,18.5,False
1607123539.0110006,4.771547486848332,-1.953939054783333,3.036751101848333,-10.198125000000001,15.837499999999997,-28.154000000000007,0.12443200000000001,0.5019653333333333,0.029423333333333343,18.5,False
1607123539.0245807,4.771547486848333,-2.103251185023333,3.124069186559999,-8.250666666666667,16.58970833333333,-28.617166666666673,0.12292933333333335,0.5017413333333332,0.029423333333333343,18.5,False
1607123539.0367606,4.771547486848333,-2.3021545636483327,3.135076170519999,-7.7834166666666675,18.106666666666666,-29.337875000000007,0.12141733333333335,0.5020213333333332,0.02943733333333334,18.5,False
1607123539.0488245,4.771547486848333,-2.502832619035,3.1319655011399994,-8.23375,19.905666666666665,-29.631583333333342,0.11990533333333336,0.5023013333333332,0.02943733333333334,18.5,False
1607123539.0611563,4.771547486848333,-2.6363720603033327,3.1095327892649993,-8.907499999999999,21.822791666666664,-29.49129166666667,0.11891600000000004,0.5023106666666666,0.029460666666666677,18.5,False
1607123539.0731444,4.771547486848333,-2.744228538998333,3.046581614696666,-9.940000000000001,23.98666666666667,-29.18854166666666,0.11792666666666672,0.5023199999999999,0.029460666666666677,18.5,False
1607123539.0863872,4.771547486848334,-2.83226447049,3.0269804095649997,-11.503041666666668,25.524625,-29.197875000000014,0.11653600000000003,0.5022639999999999,0.02877933333333334,18.5,False
1607123539.0984852,4.517290145410001,-2.846521705148333,3.067558692823333,-12.742916666666666,26.64754166666667,-28.821625000000008,0.11514533333333335,0.5022079999999999,0.02877933333333334,18.5,False
1607123539.110747,3.9153955605683346,-2.793181701356666,3.1566713944849996,-12.474291666666664,27.897625000000005,-28.631458333333345,0.11417466666666669,0.5020399999999999,0.027916000000000007,18.5,False
1607123539.123089,3.349891819435001,-2.7311876558283332,3.1006793456449993,-9.16329166666666,29.756708333333336,-28.373624999999993,0.11320400000000001,0.501872,0.027916000000000007,18.5,False
1607123539.13553,3.349891819435001,-2.5788844973383322,2.847438953811666,-0.5372499999999955,31.008541666666666,-29.046208333333333,0.11223333333333337,0.5023479999999999,0.028266000000000006,18.5,False
1607123539.1478221,3.349891819435001,-2.6255644782266683,2.5064617333116654,2.8093333333333335,32.6795,-29.046208333333336,0.11127200000000002,0.5028239999999999,0.028266000000000006,18.5,False
1607123539.1600997,3.3498918194350003,-3.1430123654766677,1.9753149366766658,0.7974166666666662,37.231541666666665,-29.046208333333333,0.1103106666666667,0.5032999999999999,0.028266000000000006,18.5,False
1607123539.1724808,3.3498918194350003,-3.7527434443333347,1.8515860680683327,-7.345625000000002,37.793,-29.04620833333335,0.10956400000000002,0.5036919999999999,0.029362666666666672,18.5,False
1607123539.1847236,3.3498918194350003,-3.752743444333333,1.8515860680683327,-7.345624999999996,30.964499999999997,-17.427083333333336,0.10881733333333335,0.504084,0.029362666666666672,18.5,False
1607123539.1966248,3.3498918194350003,-3.7527434443333334,2.0793628393999994,-7.345624999999997,22.253,-5.860166666666663,0.10937733333333335,0.5043826666666666,0.026548666666666675,18.5,False
1607123539.2087626,3.3498918194350003,-3.775016634701666,2.2500508515333326,-15.108624999999998,20.91366666666666,-5.8601666666666725,0.1087706666666667,0.5053533333333333,0.026548666666666675,18.5,False
1607123539.2207978,3.3498918194350003,-3.6819757159383326,2.534078894153333,-15.768958333333337,21.776708333333325,-4.94900000000001,0.10856533333333336,0.5043920000000001,0.02646933333333334,18.5,False
1607123539.2329395,3.3498918194350003,-3.6393635334699996,2.5621347391383336,-9.755958333333338,22.040083333333335,-7.327541666666673,0.10836000000000001,0.5034306666666667,0.02646933333333334,18.5,False
1607123539.2449396,3.040699259138333,-3.6640295464383335,2.426361996776666,-3.3104166666666712,20.330333333333332,-8.235208333333338,0.10803333333333334,0.5033000000000001,0.028620666666666676,18.5,False
1607123539.2603414,2.647259403133333,-3.5940793657650003,2.318066833938333,1.2279166666666645,18.344083333333327,-9.240583333333337,0.10698800000000003,0.5027493333333334,0.028620666666666676,18.5,False
1607123539.2725434,2.329612202983333,-3.690131252966667,2.204587222133333,3.5291666666666663,15.608249999999986,-9.877291666666673,0.10551333333333335,0.5025346666666668,0.02954933333333334,18.5,False
1607123539.2847514,1.7628322897966653,-3.7489348683616672,2.213699888201666,1.4950833333333315,10.124624999999988,-6.6424166666666755,0.10400133333333336,0.5023573333333335,0.02954933333333334,18.5,False
1607123539.2967923,1.2739985728050003,-3.7162329594950005,2.425464688301666,-1.831958333333334,4.728791666666655,-2.7340833333333365,0.10284400000000002,0.5022173333333335,0.029796666666666676,18.5,False
1607123539.3088822,0.915653448266666,-3.6177483693166668,2.7290739958649994,-4.663458333333335,0.5264583333333206,0.0804999999999931,0.10113600000000002,0.5020773333333336,0.029796666666666676,18.5,False
1607123539.3211162,0.7668398227349994,-3.5302308827216673,2.9875387170416663,-4.6001666666666665,-2.2554583333333484,2.147833333333327,0.10006266666666667,0.502142666666667,0.03008600000000001,18.5,False
1607123539.3336031,0.7668398227349994,-3.3929825664233335,3.047299461476666,0.44070833333333276,-2.9435000000000078,4.252208333333335,0.09898933333333335,0.5020306666666668,0.03008600000000001,18.5,False
1607123539.345603,0.7668398227349994,-3.260400254194999,2.805424976993332,8.767791666666666,-2.300666666666669,6.585833333333331,0.09843866666666669,0.5018626666666669,0.03078600000000001,18.5,False
1607123539.357762,0.7668398227349995,-3.119143960041666,2.3789841092966664,15.393,-2.282000000000008,8.492458333333328,0.09799066666666668,0.5019093333333334,0.03078600000000001,18.5,False
1607123539.3699238,0.7668398227349993,-3.012543713211666,2.0185053846066667,16.498125000000005,-3.4877500000000103,8.498291666666663,0.09742133333333332,0.5021053333333334,0.030538666666666676,18.5,False
1607123539.382546,0.7668398227350003,-3.078924600173333,1.8768303464983336,12.832749999999999,-4.926833333333334,6.299999999999991,0.09683333333333331,0.5025346666666668,0.030538666666666676,18.5,False
1607123539.394734,0.7668398227349997,-3.3482966043683335,1.9937596108850002,6.864958333333331,-6.003083333333337,2.791541666666659,0.09636666666666666,0.502824,0.029852666666666677,18.5,False
1607123539.4070058,0.7668398227350003,-3.71892488492,2.2925832732483333,1.7791666666666706,-6.2113333333333385,-0.11520833333334153,0.09506933333333333,0.5033186666666667,0.029852666666666677,18.5,False
1607123539.4309616,0.7668398227350003,-4.0245282113166665,2.58855548868,0.8216249999999964,-5.5022916666666735,0.691833333333333,0.09371600000000001,0.5035426666666667,0.029152666666666674,18.5,False
1607123539.4434524,0.7668398227350003,-4.245565198991666,2.771785879275,1.97808333333333,-4.24929166666667,3.795749999999994,0.09171866666666666,0.503776,0.029152666666666674,18.5,False
1607123539.4555233,0.7668398227350003,-4.476831503281667,2.7709085109883334,4.109291666666661,-3.59070833333334,8.066041666666669,0.09055200000000001,0.503776,0.02912000000000001,18.5,False
1607123539.4675934,0.7668398227350003,-4.738885458358333,2.58365020235,6.743624999999996,-4.204666666666679,13.689374999999995,0.08987066666666668,0.50386,0.02912000000000001,18.5,False
1607123539.4797316,1.0210971641733337,-4.977509692143332,2.3700509049233327,8.676791666666666,-6.38195833333335,20.865541666666665,0.0899266666666667,0.5039159999999999,0.02886333333333334,18.5,False
1607123539.4923742,1.8462022172183343,-5.08187663788,2.2310677922399997,8.574708333333332,-8.87745833333334,28.883749999999996,0.0909906666666667,0.5042706666666666,0.02886333333333334,18.5,False
1607123539.5045562,3.1528428783250013,-5.062913518774999,2.218664995096667,3.6184166666666626,-10.28270833333334,35.42816666666666,0.09201733333333337,0.5044293333333333,0.02838733333333334,18.5,False
1607123539.5181801,4.213860299541667,-5.100999278491667,2.442892412905,-9.87554166666667,-10.323250000000012,39.409125,0.09304400000000003,0.504196,0.02838733333333334,18.5,False
1607123539.530599,4.477629110815001,-5.124189717523332,2.948535708661667,-24.29175,-10.247708333333325,40.56295833333333,0.09493866666666669,0.5037013333333333,0.027570666666666674,18.5,False
1607123539.5427809,4.477629110815001,-4.711328118081665,3.9180874859933326,-30.981416666666664,-14.782249999999996,40.81991666666666,0.09683333333333334,0.5032066666666667,0.027570666666666674,18.5,False
1607123539.554884,4.477629110815001,-3.624986657681667,4.649114730481667,-12.984999999999996,-19.917041666666645,40.819916666666664,0.09926,0.5026373333333334,0.027066666666666676,18.5,False
1607123539.5668938,4.477629110815001,-2.597668154748334,4.940500702596667,6.018541666666664,-16.333041666666652,29.200791666666653,0.10168666666666666,0.5020680000000001,0.027066666666666676,18.5,False
1607123539.5789769,4.477629110815,-2.3304696310816664,4.6284566953683335,11.718874999999999,-2.993666666666648,10.08758333333332,0.10299333333333333,0.502824,0.02803266666666667,18.5,False
1607123539.5909617,4.477629110815,-3.0048268603266663,3.874179191283334,0.36866666666666864,12.696250000000012,-9.025625000000014,0.10429999999999999,0.50358,0.02803266666666667,18.5,False
1607123539.6030529,4.477629110815,-3.7992439635266653,3.3558339955583327,-17.66041666666667,21.404833333333354,-7.168583333333342,0.1033853333333333,0.5020026666666667,0.02516733333333334,18.5,False
1607123539.6150508,4.477629110815,-4.166522292438333,3.26333146188,-24.25004166666666,25.137875000000008,-2.4397916666666655,0.10247066666666664,0.5004253333333335,0.02516733333333334,18.5,False
1607123539.6271517,4.454099688581666,-3.8078381846983325,3.222832939375001,-21.096833333333333,25.063499999999998,1.6598749999999995,0.10244266666666664,0.49848400000000015,0.02583933333333334,18.5,False
1607123539.6391356,4.183072648754999,-3.673022571376666,3.0968109491083338,-14.929541666666665,22.596583333333328,3.125208333333338,0.10241466666666663,0.4965426666666668,0.02583933333333334,18.5,False
1607123539.6516154,3.6416765953166665,-3.5438300911649994,2.963391148970001,-10.091083333333328,19.47779166666667,6.433874999999996,0.10228399999999997,0.4955253333333335,0.027813333333333343,18.5,False
1607123539.6638203,2.9420750876416664,-3.321756213696666,2.8936004898033336,-6.754708333333328,16.401583333333335,10.168666666666672,0.1021533333333333,0.4945080000000002,0.027813333333333343,18.5,False
1607123539.6761403,2.3584457153133327,-3.074896682129999,2.86337116429,-4.5823749999999945,13.37904166666666,12.929583333333332,0.10166799999999997,0.4934533333333336,0.027813333333333343,18.5,False
1607123539.6886213,1.9457037570016653,-2.917269493354999,2.8473193126816665,-4.298583333333326,10.191999999999997,15.603000000000002,0.1020693333333333,0.49297733333333343,0.028686000000000007,18.5,False
1607123539.7011232,1.515414432956665,-2.8373292783266657,2.8478377575783327,-7.766208333333329,7.216708333333327,19.572000000000003,0.10183599999999997,0.4922960000000001,0.028686000000000007,18.5,False
1607123539.713208,1.081236772186665,-2.6879573275216653,2.9445077906183332,-14.440124999999997,3.998458333333323,24.547250000000002,0.10217199999999996,0.4916520000000001,0.028639333333333343,18.5,False
1607123539.725535,0.8088537995533327,-2.424706961144999,3.2465019429266664,-21.46083333333333,1.1293333333333293,28.581291666666672,0.1019853333333333,0.49106400000000006,0.028639333333333343,18.5,False
1607123539.737694,0.7641678374983327,-2.1823539121416657,3.6013176541299994,-24.350375000000003,-0.020416666666674743,31.033333333333328,0.10291866666666663,0.4904760000000001,0.028070000000000005,18.5,False
1607123539.7502038,0.7641678374983326,-1.9759530227033335,3.815156233816666,-20.66604166666667,0.6924166666666617,33.343041666666664,0.1039733333333333,0.4897386666666667,0.028070000000000005,18.5,False
1607123539.762894,0.7641678374983326,-1.740818321876667,3.757469268968332,-11.661124999999998,2.1869166666666597,35.971541666666674,0.10560666666666665,0.48891733333333337,0.028196000000000006,18.5,False
1607123539.775121,0.7641678374983321,-1.4574881858483337,3.4812178997983323,-1.42858333333333,3.0762083333333226,38.47754166666667,0.10711866666666667,0.48823600000000006,0.028196000000000006,18.5,False
1607123539.7870839,0.7641678374983321,-1.1939985372116666,3.2408389294399984,4.915166666666672,2.6098333333333277,39.68620833333333,0.10949866666666667,0.4879093333333334,0.02886333333333334,18.5,False
1607123539.7995317,0.7641678374983321,-1.0373085372883335,3.3027930945916655,3.2643333333333393,1.2048749999999933,37.788916666666665,0.1119346666666667,0.48785333333333336,0.02886333333333334,18.5,False
1607123539.8117528,0.7641678374983321,-1.0001799066116672,3.6537005288816657,-1.1675416666666658,0.608708333333325,34.781541666666676,0.11441733333333337,0.4875266666666666,0.028774666666666674,18.5,False
1607123539.8241506,0.7641678374983325,-1.0132407299700001,4.062873193481666,-3.027208333333329,1.7631249999999987,33.265750000000004,0.11606933333333337,0.4874333333333331,0.028774666666666674,18.5,False
1607123539.8364606,0.764167837498333,-0.9577272456500004,4.335176405361666,-0.9756249999999983,3.2622916666666604,33.817875,0.11801066666666672,0.4871999999999998,0.028354666666666674,18.5,False
1607123539.8487225,0.764167837498333,-0.8305886048366669,4.37826715235,4.11075,4.2434583333333284,35.14904166666667,0.11921466666666672,0.4869946666666665,0.028354666666666674,18.5,False
1607123539.8638854,0.764167837498333,-0.7878567812383334,4.213740658411667,9.292791666666666,3.1403749999999993,36.336125,0.12116533333333337,0.4867706666666666,0.028868000000000008,18.5,False
1607123539.8762205,0.764167837498333,-0.792801947945,4.0297525406600005,13.5485,-0.3082916666666738,38.4195,0.12315333333333338,0.48674266666666655,0.028868000000000008,18.5,False
1607123539.8883123,1.0097910773883327,-0.7762914720049998,3.9087155974766663,16.967124999999996,-4.272625000000002,41.77045833333333,0.12516933333333335,0.48651866666666665,0.02895200000000001,18.5,False
1607123539.9005601,2.0526629272216663,-0.7494320383199998,3.865864132748334,18.44470833333333,-7.158666666666668,45.589833333333324,0.12762400000000002,0.48655600000000004,0.02895200000000001,18.5,False
1607123539.9128292,3.147498907851666,-0.7261817787233333,3.9074593656116665,15.670374999999996,-7.969499999999991,47.31708333333334,0.12935066666666667,0.48684533333333335,0.028574000000000006,18.5,False
1607123539.9249892,3.673042511565,-0.8644869250033332,4.171866262911666,5.248833333333328,-7.601708333333332,47.317083333333336,0.132216,0.48743333333333344,0.028574000000000006,18.5,False
1607123539.946965,3.673042511565,-0.9995019402083333,4.840580418858334,3.0318749999999985,-9.260708333333339,47.31708333333334,0.13363466666666665,0.4877413333333334,0.02803266666666667,18.5,False
1607123539.96568,3.6730425115650007,-0.27244279319833314,5.219563638321666,16.44475,-12.860750000000014,47.31708333333335,0.13522133333333333,0.4883386666666667,0.029484000000000007,18.5,False
1607123539.9858668,3.673042511565,0.0036889348416668357,5.219563638321665,16.444749999999992,-10.738291666666667,47.31708333333335,0.13680799999999999,0.4882546666666668,0.02848533333333334,18.5,False
1607123540.0079727,3.673042511565,0.003688934841666954,4.9093940087966645,16.44475,-13.557541666666676,48.26033333333335,0.137312,0.49044800000000005,0.02848533333333334,18.5,False
1607123540.0317125,3.673042511565,0.08628119491833353,5.041637337823331,20.98279166666667,-18.771375000000013,48.26033333333335,0.137732,0.4913253333333334,0.025358666666666675,18.5,False
1607123540.0445964,3.673042511565,-0.28388846130166634,5.136692215608331,20.982791666666664,-19.403708333333338,45.08204166666667,0.137732,0.4927720000000001,0.027090000000000006,18.5,False
1607123540.0727143,3.6730425115650007,-0.4375276124099995,5.195316369308331,19.36229166666667,-18.018000000000004,45.65604166666666,0.137732,0.4942186666666667,0.027090000000000006,18.5,False
1607123540.0933192,4.2166918062850005,-0.5138985337266663,5.372185839824997,13.283083333333336,-14.925166666666666,44.02620833333333,0.13811466666666664,0.49473200000000006,0.02931600000000001,18.5,False
1607123540.105454,5.118686225543334,-0.5337390211183329,5.586303582148332,6.286583333333337,-8.633041666666665,41.68645833333332,0.13918799999999995,0.4956560000000001,0.029740666666666676,18.5,False
1607123540.117781,6.015575956588334,-0.5509673438383328,5.7370713461366645,0.6378750000000011,-0.2776666666666653,38.343083333333325,0.14100799999999994,0.4967200000000001,0.029428000000000006,18.5,False
1607123540.130124,6.786663039438333,-0.5627121147666665,5.786144149625,-2.312333333333333,9.202666666666664,33.71229166666667,0.1419413333333333,0.4972053333333334,0.029428000000000006,18.5,False
1607123540.142709,7.365765989015001,-0.7548358293583332,5.6327044004,-0.2598749999999973,18.17316666666666,28.151083333333336,0.14374266666666666,0.49709333333333344,0.028826000000000008,18.5,False
1607123540.1548219,7.799943649785001,-1.0541779366183333,5.381278565704998,5.614000000000001,23.369791666666664,23.967125,0.14497466666666664,0.496944,0.028826000000000008,18.5,False
1607123540.166888,8.072326622418334,-1.2844073511149998,5.258387185006665,11.980791666666672,23.431333333333328,21.641958333333335,0.14653333333333332,0.49692533333333333,0.02895200000000001,18.5,False
1607123540.1791227,8.117012584473333,-1.357627722675,5.368875768561666,15.280708333333337,21.19454166666666,20.32333333333334,0.146972,0.49690666666666666,0.02895200000000001,18.5,False
1607123540.1913757,8.117012584473333,-1.3376077735883334,5.703512009171665,13.576208333333332,18.241124999999993,19.570541666666667,0.14741066666666666,0.496888,0.02895200000000001,18.5,False
1607123540.2030938,8.117012584473333,-1.2561919846233331,6.176074532483333,7.3954999999999975,15.659291666666663,18.734625000000005,0.14779333333333333,0.49734533333333325,0.029740666666666676,18.5,False
1607123540.2151794,8.117012584473333,-1.1130812529549998,6.6495543044583325,-0.2592916666666639,14.66645833333333,18.2805,0.14817599999999997,0.4978026666666666,0.029740666666666676,18.5,False
1607123540.2270145,8.117012584473335,-0.8263214045333335,6.9992453872599985,-5.761000000000002,15.343124999999999,18.810458333333333,0.1479053333333333,0.4976066666666667,0.029390666666666673,18.5,False
1607123540.2391067,8.117012584473335,-0.37888351852166685,7.105387009758332,-7.111999999999997,17.82229166666666,18.575666666666667,0.14763466666666666,0.4974106666666666,0.029390666666666673,18.5,False
1607123540.2512515,8.117012584473335,0.18697914600166646,6.941079857891665,-6.613833333333334,20.76695833333333,15.31366666666667,0.14771866666666666,0.49732666666666664,0.02822400000000001,18.5,False
1607123540.2633753,8.018069369963333,0.8266005671699997,6.714220335223333,-7.599666666666669,22.902833333333326,6.797875000000005,0.14780266666666667,0.49724266666666667,0.02822400000000001,18.5,False
1607123540.2751834,7.090013124553334,1.310090313688333,6.595416693133331,-10.671499999999998,25.045416666666668,-5.438708333333332,0.146608,0.4969533333333333,0.027724666666666675,18.5,False
1607123540.2873614,5.783372463446667,1.459342623363333,6.667081730003332,-12.723083333333335,26.937750000000005,-17.985333333333337,0.14541333333333334,0.496664,0.027724666666666675,18.5,False
1607123540.2993624,4.476731802339999,1.6293327289049995,6.776334021881666,-6.2448749999999995,30.68362500000001,-29.209541666666667,0.1422306666666667,0.49635599999999996,0.027780666666666676,18.5,False
1607123540.31151,3.1700911412333324,1.4869597842049997,6.082315766939999,2.4117916666666663,40.060125000000006,-38.64904166666667,0.139048,0.496048,0.027780666666666676,18.5,False
1607123540.32371,1.8634504801266663,0.7063014109549995,5.227619474408332,-5.007916666666665,48.94487500000001,-45.99641666666667,0.13379333333333335,0.49563733333333343,0.02810733333333334,18.5,False
1607123540.3362381,0.5568098190199996,-0.34071799805166686,4.257309969919999,-11.182500000000001,48.75295833333333,-44.84316666666667,0.12853866666666666,0.4952266666666667,0.02810733333333334,18.5,False
1607123540.3485959,-0.5380261616100006,-1.349970690355,3.5580275052583326,-17.334333333333333,39.06583333333334,-27.714166666666664,0.12362000000000001,0.49269733333333343,0.025041333333333343,18.5,False
1607123540.3611019,-1.0635697653233331,-1.5929418851966664,3.4638300555716652,-14.244124999999997,26.006458333333338,-8.600958333333336,0.11870133333333334,0.4901680000000002,0.025041333333333343,18.5,False
1607123540.3731618,-1.0635697653233331,-1.7574484389466662,3.371327521893333,-12.826624999999998,13.088833333333332,7.259291666666666,0.1155,0.48897333333333354,0.02551733333333334,18.5,False
1607123540.3852656,-1.063569765323334,-2.0913269524,3.7164124211899985,-14.157208333333337,-1.5350416666666709,22.980416666666674,0.11414666666666667,0.48759200000000014,0.02551733333333334,18.5,False
1607123540.3972478,-0.9309675129066673,-1.6561522822133328,4.456951135513332,1.198458333333331,-19.708500000000004,38.79604166666666,0.11279333333333334,0.48689200000000016,0.02551733333333334,18.5,False
1607123540.4098096,-0.4816153688149998,-0.9603394103216665,5.329414135849998,13.470041666666672,-24.436125000000008,34.75004166666668,0.113708,0.48701333333333346,0.027323333333333342,18.5,False
1607123540.4222057,0.36438700160333254,-0.7040282294850001,5.522475039293332,8.308125000000002,-20.108375000000013,29.449,0.11470666666666668,0.4884506666666668,0.027323333333333342,18.5,False
1607123540.4346497,1.4600205897666656,-0.7938587779266667,5.733502052424998,-1.5496250000000005,-14.256958333333342,26.96925,0.11568666666666667,0.48860933333333345,0.02784133333333334,18.5,False
1607123540.4469523,2.7666612508733324,-0.958903716761667,6.029095404278332,-10.297,-7.386166666666671,23.625291666666676,0.11666666666666667,0.4887680000000001,0.02784133333333334,18.5,False
1607123540.4591594,3.529652617259999,-1.1113065761933334,6.206702661763332,-10.122291666666667,-1.4160416666666673,20.195583333333328,0.11748800000000001,0.4884880000000001,0.02772000000000001,18.5,False
1607123540.4715643,3.9342988591083325,-1.5265809384233335,6.251707666831666,-5.172416666666667,0.6028750000000024,15.43791666666667,0.11761866666666666,0.48779733333333347,0.02772000000000001,18.5,False
1607123540.4842503,4.109872217383332,-2.021436592291667,6.409175334099998,0.9172916666666677,-1.7348333333333341,12.743500000000006,0.11732,0.4869480000000001,0.027864666666666673,18.5,False
1607123540.4965422,4.109872217383333,-2.3205194771033333,6.761618162891666,5.334000000000001,-6.960625000000002,13.490458333333333,0.11702133333333328,0.48609866666666685,0.027864666666666673,18.5,False
1607123540.5087461,4.109872217383332,-2.20761813076,7.279225571648333,6.8285,-11.771375000000004,15.926750000000002,0.11597599999999995,0.48601466666666676,0.02854600000000001,18.5,False
1607123540.524011,4.109872217383333,-1.9070796121999998,7.844848953911667,5.077624999999999,-12.99520833333334,17.31216666666667,0.11493066666666664,0.48593066666666673,0.02854600000000001,18.5,False
1607123540.537704,4.109872217383332,-1.5778072822516662,8.164011608375,-0.5594166666666657,-8.42975,16.852208333333337,0.11429599999999995,0.485688,0.028476000000000008,18.5,False
1607123540.5499148,4.109872217383332,-1.2713265875683333,8.094420351091665,-8.383958333333332,-1.9215000000000013,15.845374999999997,0.11366133333333331,0.4854453333333334,0.028476000000000008,18.5,False
1607123540.5622108,4.109872217383333,-0.8086344574816668,7.856254741638333,-14.918749999999996,4.672791666666667,13.184791666666671,0.11312933333333329,0.4851466666666667,0.027654666666666675,18.5,False
1607123540.574447,4.109872217383333,-0.27674987387833394,7.598547747618332,-18.27058333333333,10.538791666666668,7.571375000000002,0.11207466666666663,0.4844560000000001,0.027654666666666675,18.5,False
1607123540.5865247,3.4937403380716665,0.1670190174799993,7.3837121585149985,-17.63679166666667,15.239291666666668,-1.3337916666666578,0.11110399999999997,0.48321466666666674,0.026880000000000008,18.5,False
1607123540.5990026,2.187099676965001,0.501196633758333,7.116433874094999,-12.409541666666666,18.808125000000004,-11.992458333333337,0.10991866666666664,0.48227200000000003,0.026880000000000008,18.5,False
1607123540.6111076,0.8804590158583344,0.5867001613316665,6.674698881946666,-2.1320833333333336,20.62987500000001,-21.54220833333334,0.10751999999999999,0.4811053333333334,0.026567333333333342,18.5,False
1607123540.6233056,-0.4261816452483322,0.17004992610666694,5.831508078083333,6.055000000000001,24.67266666666666,-28.370416666666667,0.10472000000000001,0.48009733333333326,0.026567333333333342,18.5,False
1607123540.6355965,-1.6338790918449988,-0.688275480701667,4.83541591008,4.460749999999998,28.472208333333324,-31.009416666666674,0.10067866666666667,0.47895866666666664,0.026740000000000007,18.5,False
1607123540.6479776,-2.0124635075416655,-1.8004394849933334,3.9471204002066664,-3.195208333333333,24.593333333333327,-24.516916666666678,0.0976266666666667,0.47816533333333333,0.026740000000000007,18.5,False
1607123540.6602793,-2.0124635075416655,-2.7081766784916668,3.2350961551999995,-8.145083333333337,15.38191666666666,-5.497916666666665,0.09388400000000002,0.47668133333333335,0.025372666666666675,18.5,False
1607123540.6730032,-2.0124635075416655,-3.051108037448333,3.160938594788333,-13.65408333333333,2.6296666666666537,13.615291666666671,0.09138266666666668,0.47523466666666664,0.025372666666666675,18.5,False
1607123540.68505,-2.0124635075416664,-2.977448981745,3.9232320545833326,-18.24725,-14.082541666666678,29.614083333333344,0.08976800000000001,0.4744973333333334,0.02628733333333334,18.5,False
1607123540.6972072,-2.012463507541667,-2.5728226800849994,4.690091817506667,-4.287791666666666,-30.762375000000013,44.94379166666668,0.09019733333333332,0.4740586666666667,0.02628733333333334,18.5,False
1607123540.709313,-1.7179868062349997,-1.970908155055,5.559763191476666,10.113250000000004,-40.53729166666667,54.096,0.09099066666666666,0.4741426666666667,0.027104000000000007,18.5,False
1607123540.721605,-0.9610173767249995,-1.3957334225799998,6.219324800978332,22.62341666666667,-40.847916666666684,49.26775000000001,0.092176,0.47609333333333337,0.027104000000000007,18.5,False
1607123540.733728,0.33403803496000023,-1.6728222796599996,6.331807403366666,22.37870833333334,-35.40133333333334,43.15762500000001,0.09378133333333333,0.4783240000000001,0.028028000000000008,18.5,False
1607123540.746847,1.640678696066667,-2.135873333136667,6.404270047769999,13.31545833333334,-27.528958333333346,39.372375000000005,0.09511599999999999,0.4795000000000001,0.028028000000000008,18.5,False
1607123540.7589,2.947319357173334,-2.700140782593334,6.638726782193332,6.253916666666664,-19.604375000000005,35.499041666666685,0.09700133333333333,0.48056400000000016,0.027766666666666672,18.5,False
