time,accX,accY,accZ,gyroX,gyroY,gyroZ,temp
1.5735626220703125e-05,-2.4562323989,0.45044885445,4.046263016599999,275.7825,266.245,175.455,16.5
0.006616830825805664,-0.7387839777499999,-0.07597211755,5.590231799249999,-263.44500000000005,-85.46125,-159.99375,16.5
0.01204371452331543,-0.1746760498,-0.25184457865,9.87458066455,-46.30500000000001,12.013750000000002,19.53,16.5
0.017558813095092773,-0.15912270289999997,-0.28474588939999995,9.900303507499999,-20.168750000000003,-3.2812500000000004,-1.8375000000000001,16.5
0.022954463958740234,-0.16151552549999998,-0.24825534474999997,9.8979106849,-0.5950000000000001,0.8750000000000001,2.2225,16.5
0.028403282165527344,-0.17228322719999997,-0.27816562724999994,9.896714273599999,10.998750000000001,3.1500000000000004,1.7062500000000003,16.5
0.03388237953186035,-0.16869399329999998,-0.2679961312,9.8991070962,17.648750000000003,4.69875,2.1175,16.5
0.03947734832763672,-0.15912270289999997,-0.2715853651,9.87697348715,14.79625,4.0425,2.1875,16.5
0.044840097427368164,-0.17527425545,-0.24346969954999997,9.86620578545,8.5225,2.2837500000000004,1.0150000000000001,16.5
0.050359249114990234,-0.17706887240000002,-0.24765713909999998,9.896116067949999,4.357500000000001,0.8400000000000001,0.36750000000000005,16.5
0.05576801300048828,-0.18005990065000002,-0.26919254249999996,9.89491965665,0.23625000000000002,0.14,-0.0175,16.5
0.061242103576660156,-0.20338992099999997,-0.2524427843,9.934401229549998,-0.7350000000000001,-0.23625000000000002,-0.13125,16.5
0.06664705276489258,-0.18305092890000002,-0.26620151425,9.870393224999999,-1.6450000000000002,-0.49000000000000005,-0.10500000000000001,16.5
0.07205462455749512,-0.16869399329999998,-0.2524427843,9.8572327007,-2.1,-0.8400000000000001,-0.42875,16.5
0.07758378982543945,-0.18484554585,-0.25663022385,9.87697348715,-1.3562500000000002,-0.5425000000000001,-0.1925,16.5
0.08301448822021484,-0.18544375149999998,-0.2500499617,9.8739824589,-2.3887500000000004,-0.48125000000000007,-0.4025,16.5
0.0885305404663086,-0.19262221929999998,-0.24227328824999997,9.870991430649998,-1.9775000000000003,-0.5075000000000001,-0.45500000000000007,16.5
0.09412646293640137,-0.16570296504999998,-0.2739781877,9.8919286284,-2.1787500000000004,-0.56,-0.44625000000000004,16.5
0.09966254234313965,-0.16929219894999997,-0.27337998204999997,9.8500542329,-2.07375,-0.60375,-0.20125,16.5
0.10505819320678711,-0.19740786449999997,-0.26021945775,9.8763752815,-1.9862500000000003,-0.5337500000000001,-0.385,16.5
0.11054444313049316,-0.1890329854,-0.26859433685,9.869795019349999,-2.555,-0.6212500000000001,-0.43750000000000006,16.5
0.11609029769897461,-0.19202401365,-0.2835494781,9.870991430649998,-2.2925000000000004,-0.6212500000000001,-0.34125000000000005,16.5
0.12153220176696777,-0.1698904046,-0.24047867129999997,9.89970530185,-1.9512500000000002,-0.5950000000000001,-0.56,16.5
0.12704086303710938,-0.19860427579999998,-0.2596212521,9.878169898449999,-2.00375,-0.5687500000000001,-0.42875,17.5
0.13251185417175293,-0.1734796385,-0.2560320182,9.86740219675,-1.8112500000000002,-0.6212500000000001,-0.34125000000000005,17.5
0.13797974586486816,-0.19322042494999997,-0.2703889538,9.8763752815,-1.7587500000000003,-0.6212500000000001,-0.30625,17.5
0.14333271980285645,-0.17527425545,-0.26021945775,9.9122676205,-2.1787500000000004,-0.43750000000000006,-0.48125000000000007,16.5
0.14878487586975098,-0.19800607015,-0.24526431649999997,9.898508890549998,-2.2925000000000004,-0.5687500000000001,-0.63875,16.5
0.15417051315307617,-0.17886348935000002,-0.2536391956,9.8859465719,-2.31875,-0.49875,-0.5337500000000001,16.5
0.1596665382385254,-0.2009970984,-0.2608176634,9.90688376965,-1.9512500000000002,-0.46375000000000005,-0.49000000000000005,17.5
0.16508936882019043,-0.20877377184999998,-0.2584248408,9.83150985775,-1.9512500000000002,-0.5775,-0.30625,17.5
0.17050743103027344,-0.19322042494999997,-0.26261228035,9.8632147572,-1.8987500000000002,-0.63875,-0.27125000000000005,17.5
0.1760404109954834,-0.20578274359999998,-0.26261228035,9.856634495049999,-1.9162500000000002,-0.63875,-0.2625,17.5
0.18147635459899902,-0.17407784415000002,-0.23808584869999996,9.84108114815,-2.1437500000000003,-0.74375,-0.42875,17.5
0.18709421157836914,-0.19322042494999997,-0.26500510294999996,9.888339394499999,-1.9862500000000003,-0.44625000000000004,-0.2625,17.5
0.195145845413208,-0.17228322719999997,-0.2703889538,9.9098747979,-2.3275,-0.41125000000000006,-0.42875,16.5
0.20059585571289062,-0.17228322719999997,-0.25124637299999997,9.88175913235,-2.23125,-0.49000000000000005,-0.47250000000000003,16.5
0.20607995986938477,-0.17766707805,-0.26021945775,9.88175913235,-1.8550000000000002,-0.44625000000000004,-0.29750000000000004,16.5
0.21151471138000488,-0.16749758199999998,-0.27936203854999997,9.861420140249999,-2.19625,-0.56,-0.5162500000000001,16.5
0.21690869331359863,-0.19082760235,-0.24885355039999998,9.90090171315,-2.1437500000000003,-0.7087500000000001,-0.35875,16.5
0.22226858139038086,-0.17766707805,-0.25184457865,9.8572327007,-2.2750000000000004,-0.5162500000000001,-0.35000000000000003,16.5
0.22777152061462402,-0.19860427579999998,-0.25064816735,9.894321451,-2.4762500000000003,-0.47250000000000003,-0.22750000000000004,17.5
0.23316454887390137,-0.21236300575,-0.2656033086,9.859625523299998,-1.9862500000000003,-0.45500000000000007,-0.42000000000000004,17.5
0.23856258392333984,-0.19322042494999997,-0.25902304644999996,9.855438083749998,-2.23125,-0.385,-0.21000000000000002,17.5
0.24393033981323242,-0.18484554585,-0.27218357075,9.853643466800001,-2.1612500000000003,-0.56,-0.36750000000000005,16.5
0.24945735931396484,-0.19082760235,-0.25124637299999997,9.864411168499998,-2.1,-0.42875,-0.27125000000000005,16.5
0.2548351287841797,-0.18185451760000002,-0.27218357075,9.91525864875,-2.3975000000000004,-0.60375,-0.34125000000000005,16.5
0.26026415824890137,-0.19441683624999997,-0.24586252214999998,9.8799645154,-2.1350000000000002,-0.44625000000000004,-0.36750000000000005,16.5
0.26568603515625,-0.17407784415000002,-0.2644068973,9.9098747979,-2.23125,-0.28,-0.25375000000000003,16.5
0.2711920738220215,-0.179461695,-0.24945175605,9.869795019349999,-1.8550000000000002,-0.46375000000000005,-0.34125000000000005,16.5
0.2766289710998535,-0.17647066675,-0.23748764304999997,9.8500542329,-2.1175,-0.35875,-0.30625,17.5
0.28203558921813965,-0.19381863059999999,-0.23748764304999997,9.890732217099998,-1.8725000000000003,-0.39375000000000004,-0.18375000000000002,17.5
0.28755688667297363,-0.16450655374999998,-0.27098715944999996,9.894321451,-1.6362500000000002,-0.41125000000000006,-0.23625000000000002,17.5
0.2930264472961426,-0.17048861024999998,-0.2667997199,9.880562721050001,-2.205,-0.6825000000000001,-0.43750000000000006,16.5
0.29848647117614746,-0.17168502154999998,-0.26021945775,9.886544777549998,-2.1612500000000003,-0.49000000000000005,-0.44625000000000004,16.5
0.303882360458374,-0.17527425545,-0.2620140747,9.88893760015,-2.5112500000000004,-0.5775,-0.31500000000000006,16.5
0.30939221382141113,-0.20338992099999997,-0.26919254249999996,9.895517862299998,-2.3275,-0.44625000000000004,-0.29750000000000004,16.5
0.3148791790008545,-0.18424734019999997,-0.2703889538,9.8811609267,-1.9512500000000002,-0.45500000000000007,-0.3325,16.5
0.3202991485595703,-0.17766707805,-0.28235306679999994,9.864411168499998,-1.8725000000000003,-0.42000000000000004,-0.34125000000000005,16.5
0.3257021903991699,-0.17886348935000002,-0.24705893344999996,9.878169898449999,-1.9075000000000002,-0.37625000000000003,-0.2625,16.5
0.33124303817749023,-0.20817556619999997,-0.2620140747,9.871589636299998,-2.31,-0.60375,-0.41125000000000006,16.5
0.3366689682006836,-0.20518453794999997,-0.2656033086,9.9026963301,-2.0125,-0.5775,-0.14,16.5
0.34203600883483887,-0.17288143285000002,-0.24765713909999998,9.87697348715,-1.9075000000000002,-0.36750000000000005,-0.16625,16.5
0.34755778312683105,-0.20338992099999997,-0.28235306679999994,9.9338030239,-1.93375,-0.42000000000000004,-0.20125,16.5
0.35290074348449707,-0.16091731985,-0.2644068973,9.870393224999999,-2.2837500000000004,-0.5337500000000001,-0.25375000000000003,16.5
0.35830259323120117,-0.18185451760000002,-0.2656033086,9.895517862299998,-2.1612500000000003,-0.46375000000000005,-0.39375000000000004,17.5
0.3642704486846924,-0.18963119104999998,-0.25184457865,9.890732217099998,-2.1787500000000004,-0.5775,-0.35000000000000003,17.5
0.3699195384979248,-0.1746760498,-0.24945175605,9.888339394499999,-2.52875,-0.74375,-0.35000000000000003,17.5
0.3752765655517578,-0.17407784415000002,-0.2715853651,9.8620183459,-2.4062500000000004,-0.6300000000000001,-0.3325,16.5
0.3807811737060547,-0.18005990065000002,-0.23988046564999999,9.870991430649998,-2.31875,-0.5337500000000001,-0.37625000000000003,16.5
0.38627123832702637,-0.20159530404999998,-0.26261228035,9.858429112,-1.6712500000000001,-0.5950000000000001,-0.24500000000000002,16.5
0.3917262554168701,-0.18364913454999998,-0.2524427843,9.9098747979,-2.6162500000000004,-0.7175,-0.42875,17.5
0.3972599506378174,-0.19980068709999999,-0.23748764304999997,9.88175913235,-1.995,-0.58625,-0.385,17.5
0.40265393257141113,-0.18125631194999997,-0.25902304644999996,9.8859465719,-2.10875,-0.5950000000000001,-0.27125000000000005,17.5
0.4080808162689209,-0.20279171534999998,-0.28295127244999996,9.873384253249998,-2.1175,-0.43750000000000006,-0.42000000000000004,17.5
0.4135019779205322,-0.1890329854,-0.27098715944999996,9.844670382049998,-2.0125,-0.525,-0.11375000000000002,17.5
0.41903066635131836,-0.18424734019999997,-0.27457639335,9.895517862299998,-2.0475000000000003,-0.5075000000000001,-0.39375000000000004,17.5
0.4244837760925293,-0.18364913454999998,-0.2524427843,9.891330422749999,-2.2750000000000004,-0.49875,-0.48125000000000007,17.5
0.43001580238342285,-0.16630117069999997,-0.25304098994999996,9.8811609267,-2.21375,-0.49875,-0.4025,17.5
0.4354233741760254,-0.19262221929999998,-0.24526431649999997,9.86620578545,-2.2662500000000003,-0.5425000000000001,-0.4025,17.5
0.4409215450286865,-0.1698904046,-0.25304098994999996,9.8763752815,-2.31,-0.45500000000000007,-0.46375000000000005,17.5
0.44646620750427246,-0.20219350969999997,-0.2548356069,9.880562721050001,-2.19625,-0.6212500000000001,-0.48125000000000007,17.5
0.4518892765045166,-0.17647066675,-0.26919254249999996,9.8763752815,-2.0475000000000003,-0.7612500000000001,-0.46375000000000005,17.5
0.45745110511779785,-0.16510475939999997,-0.27816562724999994,9.89731247925,-2.0650000000000004,-0.42875,-0.44625000000000004,17.5
0.46294426918029785,-0.19561324754999998,-0.28115665549999996,9.880562721050001,-1.6362500000000002,-0.47250000000000003,-0.21000000000000002,17.5
0.4684000015258789,-0.1950150419,-0.24825534474999997,9.85902731765,-1.8550000000000002,-0.5162500000000001,-0.36750000000000005,17.5
0.47380995750427246,-0.18484554585,-0.2608176634,9.896714273599999,-2.5112500000000004,-0.7087500000000001,-0.55125,17.5
0.4794158935546875,-0.17766707805,-0.2656033086,9.83390268035,-1.9687500000000002,-0.47250000000000003,-0.32375000000000004,17.5
0.4848158359527588,-0.17048861024999998,-0.24287149389999999,9.8608219346,-1.9862500000000003,-0.6562500000000001,-0.3325,17.5
0.4902017116546631,-0.20638094924999997,-0.26380869165,9.8811609267,-2.0125,-0.525,-0.25375000000000003,17.5
0.49567079544067383,-0.16510475939999997,-0.27218357075,9.888339394499999,-2.0825,-0.42000000000000004,-0.43750000000000006,17.5
0.5012636184692383,-0.19740786449999997,-0.26620151425,9.8680004024,-2.3975000000000004,-0.5162500000000001,-0.30625,17.5
0.5066626071929932,-0.16091731985,-0.26380869165,9.873384253249998,-2.10875,-0.46375000000000005,-0.5075000000000001,17.5
0.5121054649353027,-0.20039889274999997,-0.24885355039999998,9.91884788265,-1.61,-0.42875,-0.17500000000000002,17.5
0.5176353454589844,-0.18843477974999998,-0.26321048599999997,9.863812962849998,-2.6250000000000004,-0.5075000000000001,-0.46375000000000005,17.5
0.5230903625488281,-0.17168502154999998,-0.26141586904999997,9.834500885999999,-2.0562500000000004,-0.6125,-0.39375000000000004,17.5
0.5285642147064209,-0.17228322719999997,-0.2715853651,9.8979106849,-1.8025000000000002,-0.60375,-0.32375000000000004,16.5
0.5340440273284912,-0.19441683624999997,-0.2596212521,9.889535805799998,-2.1612500000000003,-0.5337500000000001,-0.45500000000000007,16.5
0.5396089553833008,-0.1806581063,-0.25124637299999997,9.92363352785,-1.9425000000000001,-0.665,-0.21875000000000003,16.5
0.5479648113250732,-0.1746760498,-0.26141586904999997,9.879366309749999,-2.1612500000000003,-0.49000000000000005,-0.49875,16.5
0.5533638000488281,-0.18005990065000002,-0.24945175605,9.910473003549999,-2.02125,-0.42000000000000004,-0.385,16.5
0.5587196350097656,-0.1806581063,-0.24586252214999998,9.8668039911,-2.1437500000000003,-0.48125000000000007,-0.36750000000000005,17.5
0.5640506744384766,-0.20817556619999997,-0.2703889538,9.890732217099998,-1.995,-0.48125000000000007,-0.31500000000000006,17.5
0.5696465969085693,-0.17527425545,-0.25782663515,9.846464998999998,-0.28875,-0.46375000000000005,-0.37625000000000003,17.5
0.5749533176422119,-0.20398812665,-0.25722842949999997,9.886544777549998,-1.8025000000000002,-0.42875,-0.35000000000000003,16.5
0.5803563594818115,-0.16929219894999997,-0.2907279459,9.847661410299999,-1.88125,-0.5687500000000001,-0.385,16.5
0.585761308670044,-0.16749758199999998,-0.2536391956,9.898508890549998,-1.82875,-0.5950000000000001,-0.35000000000000003,16.5
0.591306209564209,-0.18305092890000002,-0.24945175605,9.87218784195,-2.2925000000000004,-0.5337500000000001,-0.37625000000000003,17.5
0.5967981815338135,-0.19381863059999999,-0.24825534474999997,9.9242317335,-1.9512500000000002,-0.6300000000000001,-0.35875,17.5
0.6022181510925293,-0.14536397295,-0.26321048599999997,9.8751788702,-2.2662500000000003,-0.5775,-0.43750000000000006,17.5
0.6077229976654053,-0.18723836844999997,-0.23808584869999996,9.835697297299998,-2.09125,-0.69125,-0.27125000000000005,17.5
0.613131046295166,-0.18185451760000002,-0.24586252214999998,9.913464031799998,-2.33625,-0.6562500000000001,-0.30625,17.5
0.6185417175292969,-0.17108681589999997,-0.27517459899999996,9.8979106849,-2.2925000000000004,-0.5950000000000001,-0.6562500000000001,17.5
0.6238718032836914,-0.1734796385,-0.24406790519999996,9.9146604431,-1.8725000000000003,-0.5337500000000001,-0.35000000000000003,17.5
0.6296336650848389,-0.17168502154999998,-0.2309073809,9.89491965665,-2.1175,-0.44625000000000004,-0.39375000000000004,16.5
0.6350345611572266,-0.15613167464999997,-0.23748764304999997,9.882357337999998,-2.2925000000000004,-0.6212500000000001,-0.44625000000000004,16.5
0.6404273509979248,-0.19381863059999999,-0.2596212521,9.88295554365,-2.4062500000000004,-0.41125000000000006,-0.45500000000000007,16.5
0.6459224224090576,-0.18843477974999998,-0.25663022385,9.884750160599998,-2.1700000000000004,-0.44625000000000004,-0.21000000000000002,17.5
0.6514663696289062,-0.19262221929999998,-0.24526431649999997,9.863812962849998,-2.1350000000000002,-0.63875,-0.43750000000000006,17.5
0.656867265701294,-0.19022939669999997,-0.27457639335,9.910473003549999,-2.2750000000000004,-0.45500000000000007,-0.36750000000000005,17.5
0.6622953414916992,-0.18664016279999998,-0.25423740125,9.891330422749999,-2.1350000000000002,-0.525,-0.39375000000000004,17.5
0.6678271293640137,-0.17647066675,-0.2548356069,9.871589636299998,-2.2662500000000003,-0.42875,-0.35875,17.5
0.6732058525085449,-0.18963119104999998,-0.26141586904999997,9.89491965665,-2.5375,-0.6125,-0.41125000000000006,17.5
0.6786611080169678,-0.1782652837,-0.27337998204999997,9.842875765099999,-2.1437500000000003,-0.6212500000000001,-0.31500000000000006,16.5
0.6840958595275879,-0.19920248144999997,-0.25902304644999996,9.877571692799998,-2.0562500000000004,-0.49875,-0.39375000000000004,16.5
0.6896107196807861,-0.17168502154999998,-0.26859433685,9.878768104099999,-1.8550000000000002,-0.48125000000000007,-0.27125000000000005,16.5
0.6950657367706299,-0.18963119104999998,-0.23928225999999997,9.877571692799998,-2.3712500000000003,-0.41125000000000006,-0.32375000000000004,17.5
0.7005236148834229,-0.17766707805,-0.25124637299999997,9.878768104099999,-2.1700000000000004,-0.56,-0.36750000000000005,17.5
0.7059066295623779,-0.1782652837,-0.23629123174999997,9.851250644199999,-2.65125,-0.69125,-0.42875,17.5
0.7113986015319824,-0.1746760498,-0.24167508259999998,9.880562721050001,-2.0825,-0.5075000000000001,-0.385,16.5
0.7168064117431641,-0.19980068709999999,-0.2608176634,9.8811609267,-2.345,-0.45500000000000007,-0.5075000000000001,16.5
0.7226455211639404,-0.18005990065000002,-0.24287149389999999,9.859625523299998,-2.1175,-0.5162500000000001,-0.5162500000000001,16.5
0.7281723022460938,-0.20877377184999998,-0.2584248408,9.87458066455,-2.1875,-0.665,-0.5075000000000001,17.5
0.7335782051086426,-0.20159530404999998,-0.24586252214999998,9.8751788702,-1.7587500000000003,-0.49000000000000005,-0.36750000000000005,17.5
0.7390949726104736,-0.18723836844999997,-0.23928225999999997,9.880562721050001,-2.4062500000000004,-0.5687500000000001,-0.5337500000000001,17.5
0.7445039749145508,-0.20219350969999997,-0.27577280465,9.858429112,-2.4675000000000002,-0.48125000000000007,-0.49000000000000005,17.5
0.7499268054962158,-0.19740786449999997,-0.25722842949999997,9.900303507499999,-2.0825,-0.6212500000000001,-0.25375000000000003,17.5
0.7552728652954102,-0.1806581063,-0.27517459899999996,9.891330422749999,-2.205,-0.45500000000000007,-0.5162500000000001,17.5
0.7609469890594482,-0.19142580799999998,-0.26261228035,9.853643466800001,-2.1700000000000004,-0.48125000000000007,-0.36750000000000005,17.5
0.7664597034454346,-0.17407784415000002,-0.2644068973,9.851250644199999,-1.9775000000000003,-0.47250000000000003,-0.35000000000000003,17.5
0.7718355655670166,-0.19561324754999998,-0.26500510294999996,9.914062237449999,-2.0387500000000003,-0.43750000000000006,-0.55125,17.5
0.777449369430542,-0.1782652837,-0.26141586904999997,9.894321451,-1.995,-0.5075000000000001,-0.385,17.5
0.7828824520111084,-0.18544375149999998,-0.2620140747,9.8751788702,-1.77625,-0.5075000000000001,-0.42000000000000004,17.5
0.788304328918457,-0.19381863059999999,-0.25064816735,9.8572327007,-2.1525000000000003,-0.5687500000000001,-0.30625,17.5
0.7937264442443848,-0.2009970984,-0.2524427843,9.84706320465,-1.9512500000000002,-0.74375,-0.41125000000000006,17.5
0.7992532253265381,-0.18424734019999997,-0.2560320182,9.841679353799998,-2.21375,-0.9537500000000001,-0.5337500000000001,17.5
0.8046360015869141,-0.1806581063,-0.26620151425,9.884750160599998,-2.1787500000000004,-0.49875,-0.42000000000000004,17.5
0.8100600242614746,-0.18305092890000002,-0.24526431649999997,9.87458066455,-2.0125,-0.45500000000000007,-0.24500000000000002,17.5
0.8154778480529785,-0.19980068709999999,-0.25124637299999997,9.86740219675,-2.415,-0.6212500000000001,-0.58625,17.5
0.8209738731384277,-0.17587246110000002,-0.2500499617,9.89013401145,-1.9600000000000002,-0.6212500000000001,-0.42875,17.5
0.8264317512512207,-0.18723836844999997,-0.23928225999999997,9.896116067949999,-1.8725000000000003,-0.69125,-0.07875000000000001,17.5
0.8318576812744141,-0.17647066675,-0.26739792554999997,9.88175913235,-1.9862500000000003,-0.56,-0.14875000000000002,17.5
0.837378740310669,-0.19800607015,-0.23928225999999997,9.878169898449999,-2.19625,-0.41125000000000006,-0.14875000000000002,17.5
0.8427727222442627,-0.19980068709999999,-0.2775674216,9.8739824589,-2.205,-0.60375,-0.49000000000000005,16.5
0.8482344150543213,-0.1746760498,-0.26859433685,9.891330422749999,-2.2837500000000004,-0.7525000000000001,-0.58625,16.5
0.8536472320556641,-0.18364913454999998,-0.24765713909999998,9.88774118885,-2.4937500000000004,-0.55125,-0.48125000000000007,16.5
0.8591632843017578,-0.18245272324999998,-0.24705893344999996,9.8739824589,-2.1612500000000003,-0.77875,-0.44625000000000004,17.5
0.8645901679992676,-0.18424734019999997,-0.27517459899999996,9.8811609267,-2.0125,-0.60375,-0.47250000000000003,17.5
0.8700292110443115,-0.19561324754999998,-0.2584248408,9.90688376965,-2.02125,-0.58625,-0.29750000000000004,17.5
0.8753871917724609,-0.20338992099999997,-0.24765713909999998,9.851848849849999,-4.348750000000001,-0.525,-0.47250000000000003,17.5
0.8809189796447754,-0.21296121140000002,-0.2667997199,9.9122676205,-2.4762500000000003,-0.47250000000000003,-0.5425000000000001,17.5
0.8863799571990967,-0.20039889274999997,-0.23270199784999998,9.86500937415,-2.44125,-0.5950000000000001,-0.5687500000000001,17.5
0.8917708396911621,-0.17647066675,-0.25304098994999996,9.8751788702,-1.93375,-0.525,-0.23625000000000002,17.5
0.9098715782165527,-0.16809578764999997,-0.25423740125,9.870991430649998,-2.21375,-0.6825000000000001,-0.5075000000000001,16.5
0.9153125286102295,-0.17766707805,-0.26500510294999996,9.889535805799998,-2.2662500000000003,-0.58625,-0.32375000000000004,16.5
0.9208493232727051,-0.16809578764999997,-0.2656033086,9.88295554365,-2.0650000000000004,-0.55125,-0.39375000000000004,16.5
0.9263381958007812,-0.1746760498,-0.25423740125,9.8333044747,-2.2487500000000002,-0.49875,-0.44625000000000004,17.5
0.9317882061004639,-0.19441683624999997,-0.25124637299999997,9.92841917305,-2.1437500000000003,-0.56,-0.42000000000000004,17.5
0.9373562335968018,-0.17587246110000002,-0.23509482044999996,9.90209812445,-2.4062500000000004,-0.56,-0.46375000000000005,17.5
0.9427580833435059,-0.19800607015,-0.2608176634,9.884750160599998,-1.77625,-0.36750000000000005,-0.37625000000000003,17.5
0.9482290744781494,-0.18305092890000002,-0.26321048599999997,9.883553749299999,-1.65375,-0.5337500000000001,-0.27125000000000005,17.5
0.9536540508270264,-0.20039889274999997,-0.25663022385,9.9110712092,-2.205,-0.6125,-0.44625000000000004,17.5
0.9591429233551025,-0.19920248144999997,-0.26141586904999997,9.87697348715,-2.0125,-0.63875,-0.42875,17.5
0.9645688533782959,-0.20638094924999997,-0.25782663515,9.88893760015,-1.7500000000000002,-0.58625,-0.16625,17.5
0.9700107574462891,-0.17587246110000002,-0.23988046564999999,9.87218784195,-2.0387500000000003,-0.58625,-0.3325,17.5
0.9753866195678711,-0.18604195715,-0.25722842949999997,9.8321080634,-2.07375,-0.6475000000000001,-0.35000000000000003,17.5
0.9808773994445801,-0.1698904046,-0.26859433685,9.898508890549998,-1.8462500000000002,-0.46375000000000005,-0.28,17.5
0.9864513874053955,-0.18005990065000002,-0.24885355039999998,9.870991430649998,-1.9600000000000002,-0.5337500000000001,-0.49875,17.5
0.9919133186340332,-0.18604195715,-0.2919243572,9.851250644199999,-2.0650000000000004,-0.5425000000000001,-0.525,17.5
0.9975123405456543,-0.1698904046,-0.24227328824999997,9.8739824589,-2.2837500000000004,-0.49000000000000005,-0.2625,17.5
1.0029582977294922,-0.1950150419,-0.2679961312,9.878169898449999,-2.0387500000000003,-0.525,-0.35000000000000003,17.5
1.0084331035614014,-0.19262221929999998,-0.23688943739999999,9.88415195495,-2.24,-0.5950000000000001,-0.30625,17.5
1.013880968093872,-0.17647066675,-0.2584248408,9.888339394499999,-2.0650000000000004,-0.55125,-0.34125000000000005,17.5
1.0194380283355713,-0.19441683624999997,-0.25902304644999996,9.87577707585,-1.9425000000000001,-0.5162500000000001,-0.27125000000000005,17.5
1.02485990524292,-0.19262221929999998,-0.24945175605,9.864411168499998,-1.82875,-0.42000000000000004,-0.28,17.5
1.0303149223327637,-0.19381863059999999,-0.28534409504999997,9.887142983199999,-2.12625,-0.6475000000000001,-0.385,17.5
1.0357577800750732,-0.18185451760000002,-0.2715853651,9.878768104099999,-2.1700000000000004,-0.48125000000000007,-0.5075000000000001,17.5
1.041257619857788,-0.179461695,-0.24167508259999998,9.904490947049998,-2.1612500000000003,-0.5162500000000001,-0.2625,17.5
1.0467743873596191,-0.1890329854,-0.24406790519999996,9.8668039911,-2.2225,-0.49875,-0.41125000000000006,16.5
1.0522074699401855,-0.19322042494999997,-0.24705893344999996,9.8979106849,-1.9600000000000002,-0.49000000000000005,-0.34125000000000005,16.5
1.057739496231079,-0.19262221929999998,-0.24586252214999998,9.9158568544,-2.66,-0.7962500000000001,-0.5075000000000001,16.5
1.0631773471832275,-0.17706887240000002,-0.2656033086,9.889535805799998,-2.0825,-0.56,-0.22750000000000004,16.5
1.068648338317871,-0.17706887240000002,-0.27996024419999993,9.89013401145,-2.0125,-0.5075000000000001,-0.28,16.5
1.0740320682525635,-0.1734796385,-0.25543381255,9.892526834049999,-2.21375,-0.6475000000000001,-0.31500000000000006,16.5
1.0795531272888184,-0.20757736054999998,-0.25124637299999997,9.853643466800001,-2.345,-0.5950000000000001,-0.46375000000000005,17.5
1.084942102432251,-0.19740786449999997,-0.25782663515,9.851848849849999,-2.2662500000000003,-0.35875,-0.385,17.5
1.090364933013916,-0.17587246110000002,-0.24765713909999998,9.8572327007,-2.1875,-0.63875,-0.42875,17.5
1.0963718891143799,-0.17168502154999998,-0.23389840915,9.865607579799999,-1.995,-0.6125,-0.30625,17.5
1.1019768714904785,-0.18544375149999998,-0.25304098994999996,9.8500542329,-2.3887500000000004,-0.5162500000000001,-0.525,17.5
1.1075055599212646,-0.19142580799999998,-0.26380869165,9.905687358349997,-2.3887500000000004,-0.5425000000000001,-0.34125000000000005,17.5
1.112947702407837,-0.19800607015,-0.2560320182,9.887142983199999,-2.0125,-0.37625000000000003,-0.39375000000000004,17.5
1.1184003353118896,-0.19322042494999997,-0.24526431649999997,9.904490947049998,-1.93375,-0.43750000000000006,-0.32375000000000004,17.5
1.1237964630126953,-0.18245272324999998,-0.25184457865,9.868598608049998,-2.09125,-0.47250000000000003,-0.5075000000000001,17.5
1.1293444633483887,-0.17108681589999997,-0.2620140747,9.880562721050001,-2.2750000000000004,-0.5425000000000001,-0.48125000000000007,16.5
1.1347813606262207,-0.19262221929999998,-0.2548356069,9.882357337999998,-2.0650000000000004,-0.49875,-0.39375000000000004,16.5
1.1401841640472412,-0.19202401365,-0.25304098994999996,9.87697348715,-2.1525000000000003,-0.5950000000000001,-0.32375000000000004,16.5
1.1456241607666016,-0.19800607015,-0.26261228035,9.8560362894,-2.3800000000000003,-0.7087500000000001,-0.42000000000000004,17.5
1.1511788368225098,-0.1698904046,-0.2596212521,9.895517862299998,-2.24,-0.5162500000000001,-0.42000000000000004,17.5
1.1565937995910645,-0.16869399329999998,-0.28235306679999994,9.8057870148,-2.09125,-0.6125,-0.45500000000000007,17.5
1.1620197296142578,-0.18364913454999998,-0.23988046564999999,9.86740219675,-1.995,-0.6475000000000001,-0.4025,17.5
1.1675677299499512,-0.2009970984,-0.27337998204999997,9.904490947049998,-1.8375000000000001,-0.5162500000000001,-0.31500000000000006,17.5
1.1729896068572998,-0.18484554585,-0.2584248408,9.9014999188,-1.7412500000000002,-0.47250000000000003,-0.1925,17.5
1.1784496307373047,-0.18364913454999998,-0.2763710103,9.890732217099998,-2.19625,-0.6737500000000001,-0.34125000000000005,17.5
1.183912754058838,-0.1878365741,-0.24765713909999998,9.871589636299998,-1.9425000000000001,-0.49000000000000005,-0.31500000000000006,17.5
1.1894164085388184,-0.16630117069999997,-0.2656033086,9.793224696149998,-1.8025000000000002,-0.7175,-0.17500000000000002,17.5
1.1947953701019287,-0.17407784415000002,-0.24227328824999997,9.83509909165,-1.8550000000000002,-0.32375000000000004,-0.14875000000000002,17.5
1.2003042697906494,-0.179461695,-0.25543381255,9.878169898449999,-1.8987500000000002,-0.45500000000000007,-0.35000000000000003,17.5
1.2057123184204102,-0.1806581063,-0.27517459899999996,9.9290173787,-2.31,-0.3325,-0.4025,17.5
1.2112352848052979,-0.16331014244999997,-0.26021945775,9.88534836625,-2.0300000000000002,-0.42000000000000004,-0.37625000000000003,17.5
1.216705322265625,-0.1746760498,-0.25663022385,9.83509909165,-2.3975000000000004,-0.6212500000000001,-0.35875,17.5
1.2221250534057617,-0.17647066675,-0.25184457865,9.82911703515,-1.9687500000000002,-0.6125,-0.22750000000000004,17.5
1.2276499271392822,-0.19980068709999999,-0.23688943739999999,9.8632147572,-2.09125,-0.4025,-0.45500000000000007,16.5
1.2330868244171143,-0.1890329854,-0.26021945775,9.887142983199999,-1.9250000000000003,-0.5337500000000001,-0.31500000000000006,16.5
1.2385528087615967,-0.18125631194999997,-0.24107687694999996,9.92004429395,-1.6800000000000002,-0.32375000000000004,-0.18375000000000002,16.5
1.2440037727355957,-0.18723836844999997,-0.2656033086,9.8572327007,-1.82875,-0.58625,-0.25375000000000003,17.5
1.2495834827423096,-0.17706887240000002,-0.2679961312,9.88893760015,-2.0300000000000002,-0.47250000000000003,-0.42875,17.5
1.2550156116485596,-0.19202401365,-0.2560320182,9.870393224999999,-2.1437500000000003,-0.6125,-0.44625000000000004,17.5
1.2633543014526367,-0.15254244074999998,-0.24466611084999998,9.89013401145,-2.45875,-0.45500000000000007,-0.5075000000000001,16.5
1.268982172012329,-0.19381863059999999,-0.26739792554999997,9.871589636299998,-2.0475000000000003,-0.42875,-0.63875,16.5
1.2743761539459229,-0.18843477974999998,-0.2835494781,9.851250644199999,-1.82875,-0.43750000000000006,-0.3325,16.5
1.279820203781128,-0.17587246110000002,-0.23808584869999996,9.8859465719,-2.3800000000000003,-0.385,-0.44625000000000004,17.5
1.2852370738983154,-0.19740786449999997,-0.2524427843,9.907481975299998,-1.8987500000000002,-0.42875,-0.28875,17.5
1.2906222343444824,-0.21296121140000002,-0.25423740125,9.89970530185,-1.8200000000000003,-0.385,-0.48125000000000007,17.5
1.2961349487304688,-0.17647066675,-0.28534409504999997,9.873384253249998,-1.9862500000000003,-0.32375000000000004,-0.3325,17.5
1.301616907119751,-0.17407784415000002,-0.26261228035,9.8739824589,-2.0825,-0.42875,-0.42000000000000004,17.5
1.307100772857666,-0.15373885204999999,-0.24526431649999997,9.88175913235,-2.1,-0.55125,-0.2625,17.5
1.312499761581421,-0.1782652837,-0.25423740125,9.891330422749999,-1.8900000000000001,-0.45500000000000007,-0.29750000000000004,16.5
1.3179545402526855,-0.19202401365,-0.25543381255,9.879366309749999,-2.0650000000000004,-0.525,-0.35000000000000003,16.5
1.323338508605957,-0.16570296504999998,-0.25184457865,9.82911703515,-1.9687500000000002,-0.6475000000000001,-0.37625000000000003,16.5
1.328803539276123,-0.19920248144999997,-0.26261228035,9.9086783866,-2.3800000000000003,-0.32375000000000004,-0.48125000000000007,17.5
1.334247350692749,-0.19142580799999998,-0.26620151425,9.904490947049998,-1.9775000000000003,-0.7175,-0.28,17.5
1.3397493362426758,-0.19202401365,-0.24466611084999998,9.87697348715,-1.88125,-0.48125000000000007,-0.45500000000000007,17.5
1.345177173614502,-0.20159530404999998,-0.2560320182,9.914062237449999,-1.7587500000000003,-0.44625000000000004,-0.2625,17.5
1.3506262302398682,-0.18664016279999998,-0.2667997199,9.85902731765,-1.9512500000000002,-0.6825000000000001,-0.39375000000000004,17.5
1.3561370372772217,-0.19561324754999998,-0.2596212521,9.843473970749999,-2.1437500000000003,-0.49000000000000005,-0.39375000000000004,17.5
1.3615930080413818,-0.18125631194999997,-0.24526431649999997,9.873384253249998,-2.44125,-0.60375,-0.35000000000000003,16.5
1.3671109676361084,-0.18185451760000002,-0.26500510294999996,9.8452685877,-2.21375,-0.45500000000000007,-0.42000000000000004,16.5
1.3725287914276123,-0.1890329854,-0.2596212521,9.91884788265,-2.4062500000000004,-0.5950000000000001,-0.5162500000000001,16.5
1.3780267238616943,-0.16570296504999998,-0.28115665549999996,9.882357337999998,-1.8987500000000002,-0.7525000000000001,-0.32375000000000004,17.5
1.3834576606750488,-0.17766707805,-0.24825534474999997,9.880562721050001,-1.9862500000000003,-0.6300000000000001,-0.37625000000000003,17.5
1.3889834880828857,-0.023928225999999997,-0.2775674216,9.8811609267,-2.4675000000000002,-0.5950000000000001,-0.4025,17.5
1.3943846225738525,-0.1806581063,-0.24466611084999998,9.884750160599998,-1.995,-0.5775,-0.29750000000000004,17.5
1.3998334407806396,-0.18245272324999998,-0.2560320182,9.870393224999999,-2.31875,-0.55125,-0.44625000000000004,17.5
1.405191421508789,-0.18544375149999998,-0.23509482044999996,9.9038927414,-2.45875,-0.7612500000000001,-0.5337500000000001,17.5
1.410642385482788,-0.1890329854,-0.25782663515,9.90688376965,-2.345,-0.63875,-0.48125000000000007,16.5
1.4161643981933594,-0.17228322719999997,-0.2679961312,9.852447055499999,-1.9687500000000002,-0.44625000000000004,-0.37625000000000003,16.5
1.421640157699585,-0.16271193679999998,-0.25184457865,9.844670382049998,-1.7675,-0.55125,-0.39375000000000004,16.5
1.427198886871338,-0.18424734019999997,-0.23389840915,9.865607579799999,-2.45,-0.5775,-0.47250000000000003,16.5
1.4327080249786377,-0.17647066675,-0.26919254249999996,9.853643466800001,-1.9425000000000001,-0.43750000000000006,-0.28875,16.5
1.4381740093231201,-0.18604195715,-0.26321048599999997,9.90209812445,-1.8900000000000001,-0.6212500000000001,-0.21000000000000002,16.5
1.4436066150665283,-0.20458633229999998,-0.26021945775,9.877571692799998,-1.9425000000000001,-0.63875,-0.46375000000000005,16.5
1.4491536617279053,-0.18604195715,-0.2703889538,9.87577707585,-2.07375,-0.49875,-0.37625000000000003,16.5
1.454535722732544,-0.18604195715,-0.26500510294999996,9.851848849849999,-2.2575000000000003,-0.46375000000000005,-0.3325,16.5
1.4604237079620361,-0.19680965884999999,-0.2715853651,9.84945602725,-2.1787500000000004,-0.74375,-0.42875,16.5
1.4659392833709717,-0.18484554585,-0.2715853651,9.89372324535,-1.9075000000000002,-0.5687500000000001,-0.30625,16.5
1.4714584350585938,-0.18484554585,-0.26919254249999996,9.865607579799999,-2.0650000000000004,-0.47250000000000003,-0.28,16.5
1.4768741130828857,-0.18484554585,-0.26859433685,9.89491965665,-2.1175,-0.4025,-0.41125000000000006,16.5
1.4823031425476074,-0.17168502154999998,-0.25423740125,9.9218389109,-2.21375,-0.49875,-0.5075000000000001,16.5
1.4879190921783447,-0.19381863059999999,-0.25064816735,9.8620183459,-1.8375000000000001,-0.7000000000000001,-0.24500000000000002,16.5
1.4933249950408936,-0.19262221929999998,-0.25782663515,9.88415195495,-2.1175,-0.47250000000000003,-0.28,16.5
1.4988269805908203,-0.14656038424999998,-0.24406790519999996,9.89491965665,-2.2225,-0.7525000000000001,-0.28875,16.5
1.504260778427124,-0.15254244074999998,-0.26321048599999997,9.890732217099998,-2.2837500000000004,-0.5162500000000001,-0.525,16.5
1.5097777843475342,-0.17228322719999997,-0.2667997199,9.89372324535,-2.1787500000000004,-0.5162500000000001,-0.30625,16.5
1.515228509902954,-0.17228322719999997,-0.2560320182,9.906285564,-2.24,-0.63875,-0.29750000000000004,17.5
1.520660638809204,-0.17288143285000002,-0.2548356069,9.852447055499999,-1.7675,-0.5687500000000001,-0.28,17.5
1.52614164352417,-0.18604195715,-0.25423740125,9.8739824589,-1.9162500000000002,-0.56,-0.28875,17.5
1.5315885543823242,-0.17168502154999998,-0.2895315346,9.9158568544,-1.6887500000000002,-0.41125000000000006,-0.385,16.5
1.5371043682098389,-0.1734796385,-0.26021945775,9.889535805799998,-1.995,-0.44625000000000004,-0.34125000000000005,16.5
1.542513370513916,-0.19082760235,-0.2309073809,9.88774118885,-2.24,-0.525,-0.31500000000000006,16.5
1.5479602813720703,-0.20458633229999998,-0.25663022385,9.860223728949999,-1.9687500000000002,-0.5775,-0.32375000000000004,17.5
1.5533921718597412,-0.1878365741,-0.26021945775,9.9158568544,-2.0300000000000002,-0.60375,-0.45500000000000007,17.5
1.5588111877441406,-0.19142580799999998,-0.2524427843,9.87577707585,-2.1700000000000004,-0.60375,-0.4025,17.5
1.5642311573028564,-0.16450655374999998,-0.25184457865,9.89013401145,-2.00375,-0.55125,-0.2625,17.5
1.5697438716888428,-0.19441683624999997,-0.26021945775,9.904490947049998,-2.4937500000000004,-0.6475000000000001,-0.45500000000000007,17.5
1.5751607418060303,-0.17288143285000002,-0.26380869165,9.871589636299998,-2.1175,-0.35875,-0.37625000000000003,17.5
1.5805928707122803,-0.16749758199999998,-0.25423740125,9.911669414849998,-2.12625,-0.7962500000000001,-0.37625000000000003,16.5
1.5862486362457275,-0.17766707805,-0.2596212521,9.90209812445,-2.205,-0.42000000000000004,-0.4025,16.5
1.5916824340820312,-0.20398812665,-0.26380869165,9.8273224182,-2.1612500000000003,-0.4025,-0.48125000000000007,16.5
1.5973045825958252,-0.1782652837,-0.27098715944999996,9.8727860476,-2.1787500000000004,-0.39375000000000004,-0.5075000000000001,17.5
1.602818489074707,-0.18185451760000002,-0.26859433685,9.87697348715,-2.44125,-0.55125,-0.5687500000000001,17.5
1.6082491874694824,-0.18723836844999997,-0.23988046564999999,9.861420140249999,-1.995,-0.42875,-0.28,17.5
1.6165950298309326,-0.20638094924999997,-0.2620140747,9.92482993915,-2.19625,-0.6125,-0.43750000000000006,17.5
1.6220202445983887,-0.18125631194999997,-0.26321048599999997,9.846464998999998,-2.31,-0.60375,-0.43750000000000006,17.5
1.627535104751587,-0.17766707805,-0.25902304644999996,9.88534836625,-2.44125,-0.7962500000000001,-0.36750000000000005,17.5
1.632951021194458,-0.17108681589999997,-0.25722842949999997,9.8261260069,-2.2750000000000004,-0.7175,-0.4025,17.5
1.638383150100708,-0.1878365741,-0.24586252214999998,9.892526834049999,-2.07375,-0.6212500000000001,-0.29750000000000004,17.5
1.6437687873840332,-0.18664016279999998,-0.26859433685,9.9086783866,-2.2750000000000004,-0.42875,-0.5162500000000001,16.5
1.6493136882781982,-0.14297115034999996,-0.2667997199,9.88415195495,-2.02125,-0.5687500000000001,-0.23625000000000002,16.5
1.6548078060150146,-0.1950150419,-0.26141586904999997,9.89013401145,-2.10875,-0.41125000000000006,-0.28,16.5
1.6602036952972412,-0.17407784415000002,-0.25722842949999997,9.892526834049999,-2.2662500000000003,-0.39375000000000004,-0.45500000000000007,16.5
1.66558837890625,-0.18963119104999998,-0.2608176634,9.89731247925,-2.2662500000000003,-0.47250000000000003,-0.385,17.5
1.6714115142822266,-0.16689937635,-0.26261228035,9.89372324535,-2.1437500000000003,-0.46375000000000005,-0.46375000000000005,17.5
1.6768624782562256,-0.18723836844999997,-0.24287149389999999,9.8811609267,-2.02125,-0.46375000000000005,-0.36750000000000005,17.5
1.6823062896728516,-0.1459621786,-0.2656033086,9.87697348715,-2.2487500000000002,-0.5687500000000001,-0.36750000000000005,17.5
1.6878302097320557,-0.19860427579999998,-0.2536391956,9.89013401145,-2.0125,-0.6475000000000001,-0.36750000000000005,17.5
1.6932132244110107,-0.17527425545,-0.2679961312,9.9026963301,-1.9425000000000001,-0.56,-0.31500000000000006,17.5
1.6986711025238037,-0.16929219894999997,-0.26979074815,9.888339394499999,-1.93375,-0.6562500000000001,-0.30625,17.5
1.7041220664978027,-0.16869399329999998,-0.2584248408,9.873384253249998,-2.2662500000000003,-0.49875,-0.37625000000000003,17.5
1.709656000137329,-0.20578274359999998,-0.26380869165,9.8811609267,-2.0825,-0.42875,-0.525,17.5
1.715073823928833,-0.19322042494999997,-0.24586252214999998,9.90209812445,-2.1875,-0.525,-0.28875,16.5
1.7205326557159424,-0.18305092890000002,-0.25782663515,9.883553749299999,-2.3887500000000004,-0.5162500000000001,-0.44625000000000004,16.5
1.7260386943817139,-0.17886348935000002,-0.24227328824999997,9.86620578545,-2.1437500000000003,-0.6125,-0.31500000000000006,16.5
1.731499433517456,-0.19082760235,-0.23629123174999997,9.90329453575,-2.0825,-0.6562500000000001,-0.1925,16.5
1.737032413482666,-0.17527425545,-0.25423740125,9.891330422749999,-2.2487500000000002,-0.45500000000000007,-0.30625,16.5
1.7424583435058594,-0.18723836844999997,-0.24945175605,9.870991430649998,-2.21375,-0.5162500000000001,-0.32375000000000004,16.5
1.7480041980743408,-0.18424734019999997,-0.2943171798,9.894321451,-2.07375,-0.5687500000000001,-0.525,17.5
1.753441333770752,-0.19262221929999998,-0.27098715944999996,9.878169898449999,-2.4325,-0.525,-0.48125000000000007,17.5
1.7589809894561768,-0.16510475939999997,-0.25184457865,9.83509909165,-1.9512500000000002,-0.6562500000000001,-0.5425000000000001,17.5
1.7644500732421875,-0.17706887240000002,-0.23868405434999998,9.9170532657,-1.9512500000000002,-0.6475000000000001,-0.35000000000000003,17.5
1.7699360847473145,-0.18664016279999998,-0.25184457865,9.898508890549998,-2.2225,-0.58625,-0.34125000000000005,17.5
1.775324821472168,-0.21236300575,-0.2596212521,9.837491914249998,-2.1175,-0.5425000000000001,-0.34125000000000005,17.5
1.7808687686920166,-0.20219350969999997,-0.2715853651,9.896714273599999,-2.0475000000000003,-0.6125,-0.35875,16.5
1.7863786220550537,-0.19322042494999997,-0.24765713909999998,9.87697348715,-1.9775000000000003,-0.7000000000000001,-0.6125,16.5
1.7917876243591309,-0.18125631194999997,-0.24945175605,9.89731247925,-2.0300000000000002,-0.7000000000000001,-0.43750000000000006,16.5
1.7973275184631348,-0.19262221929999998,-0.23389840915,9.869795019349999,-2.3537500000000002,-0.6475000000000001,-0.36750000000000005,16.5
1.8028194904327393,-0.18424734019999997,-0.26919254249999996,9.85902731765,-1.93375,-0.5775,-0.32375000000000004,16.5
1.8082554340362549,-0.18424734019999997,-0.23748764304999997,9.861420140249999,-2.0825,-0.55125,-0.34125000000000005,16.5
1.8136954307556152,-0.1806581063,-0.2667997199,9.8680004024,-1.82875,-0.6125,-0.32375000000000004,17.5
1.819230318069458,-0.20398812665,-0.24705893344999996,9.89013401145,-2.1700000000000004,-0.5775,-0.44625000000000004,17.5
1.8245742321014404,-0.20518453794999997,-0.2560320182,9.89731247925,-2.44125,-0.5337500000000001,-0.28,17.5
1.8300509452819824,-0.1950150419,-0.23808584869999996,9.888339394499999,-2.3712500000000003,-0.46375000000000005,-0.43750000000000006,16.5
1.8355131149291992,-0.20219350969999997,-0.2703889538,9.904490947049998,-2.1875,-0.49875,-0.2625,16.5
1.841486930847168,-0.17228322719999997,-0.24705893344999996,9.84706320465,-2.205,-0.77,-0.32375000000000004,16.5
1.847113847732544,-0.18305092890000002,-0.26380869165,9.86500937415,-2.07375,-0.7262500000000001,-0.4025,16.5
1.852590799331665,-0.17706887240000002,-0.2787638329,9.943374314299998,-2.10875,-0.385,-0.5162500000000001,16.5
1.858008861541748,-0.1746760498,-0.27577280465,9.89731247925,-1.9687500000000002,-0.6475000000000001,-0.22750000000000004,16.5
1.8634614944458008,-0.1890329854,-0.26620151425,9.873384253249998,-2.44125,-0.5337500000000001,-0.49000000000000005,17.5
1.8690216541290283,-0.16091731985,-0.26141586904999997,9.86740219675,-1.6450000000000002,-0.4025,-0.2625,17.5
1.8744244575500488,-0.19740786449999997,-0.2548356069,9.89372324535,-2.1787500000000004,-0.7000000000000001,-0.39375000000000004,17.5
1.8798954486846924,-0.17228322719999997,-0.24825534474999997,9.89013401145,-2.23125,-0.5162500000000001,-0.34125000000000005,16.5
1.8853273391723633,-0.18484554585,-0.24586252214999998,9.907481975299998,-2.1787500000000004,-0.49875,-0.42000000000000004,16.5
1.890848159790039,-0.20398812665,-0.26021945775,9.89013401145,-1.7587500000000003,-0.45500000000000007,-0.39375000000000004,16.5
1.896381139755249,-0.21296121140000002,-0.24586252214999998,9.910473003549999,-2.1875,-0.45500000000000007,-0.525,16.5
1.9018568992614746,-0.16929219894999997,-0.24107687694999996,9.918249676999999,-2.0562500000000004,-0.5775,-0.37625000000000003,16.5
1.907392978668213,-0.19262221929999998,-0.27816562724999994,9.8680004024,-2.12625,-0.6737500000000001,-0.5425000000000001,16.5
1.9128339290618896,-0.1746760498,-0.23449661479999998,9.9122676205,-2.3625000000000003,-0.35000000000000003,-0.36750000000000005,16.5
1.9183309078216553,-0.19022939669999997,-0.2715853651,9.84108114815,-2.0300000000000002,-0.56,-0.2625,16.5
1.923738718032837,-0.1806581063,-0.25304098994999996,9.87697348715,-1.9075000000000002,-0.5162500000000001,-0.24500000000000002,16.5
1.9293148517608643,-0.18544375149999998,-0.27816562724999994,9.85304526115,-1.9425000000000001,-0.42875,-0.385,16.5
1.9347686767578125,-0.18484554585,-0.2548356069,9.916455060049998,-2.1787500000000004,-0.5425000000000001,-0.2625,16.5
1.9402155876159668,-0.1531406464,-0.22971096959999998,9.9122676205,-1.8550000000000002,-0.665,-0.22750000000000004,16.5
1.9456424713134766,-0.17886348935000002,-0.24646072779999997,9.9026963301,-2.1875,-0.6825000000000001,-0.35000000000000003,17.5
1.951209306716919,-0.19142580799999998,-0.24885355039999998,9.86620578545,-2.0387500000000003,-0.56,-0.47250000000000003,17.5
1.9566442966461182,-0.18843477974999998,-0.27517459899999996,9.8799645154,-1.9687500000000002,-0.49000000000000005,-0.42875,17.5
1.9620649814605713,-0.18484554585,-0.2596212521,9.890732217099998,-2.1350000000000002,-0.6212500000000001,-0.41125000000000006,17.5
1.9705581665039062,-0.18723836844999997,-0.25902304644999996,9.841679353799998,-2.45,-0.6212500000000001,-0.56,17.5
1.9760539531707764,-0.19800607015,-0.26500510294999996,9.8763752815,-2.3537500000000002,-0.60375,-0.56,17.5
1.9815058708190918,-0.19621145319999997,-0.2524427843,9.861420140249999,-1.77625,-0.42000000000000004,-0.22750000000000004,16.5
1.9871087074279785,-0.19441683624999997,-0.2787638329,9.88534836625,-1.8375000000000001,-0.8400000000000001,-0.36750000000000005,16.5
1.9925358295440674,-0.18424734019999997,-0.2620140747,9.883553749299999,-1.9512500000000002,-0.55125,-0.16625,16.5
1.9980077743530273,-0.16630117069999997,-0.24167508259999998,9.860223728949999,-2.415,-0.60375,-0.49000000000000005,16.5
2.0034875869750977,-0.18604195715,-0.26021945775,9.8931250397,-2.31875,-0.47250000000000003,-0.34125000000000005,16.5
2.0090174674987793,-0.17647066675,-0.2656033086,9.89970530185,-2.3625000000000003,-0.55125,-0.49000000000000005,16.5
2.014439344406128,-0.1806581063,-0.2560320182,9.906285564,-2.45,-0.6125,-0.48125000000000007,16.5
2.019878387451172,-0.19980068709999999,-0.26380869165,9.9086783866,-2.0125,-0.49000000000000005,-0.30625,16.5
2.025245428085327,-0.18604195715,-0.22911276394999996,9.8991070962,-2.1875,-0.6212500000000001,-0.35875,16.5
2.03062105178833,-0.18723836844999997,-0.24346969954999997,9.88175913235,-1.9075000000000002,-0.49000000000000005,-0.30625,17.5
2.036151885986328,-0.1890329854,-0.25423740125,9.851250644199999,-2.2487500000000002,-0.6212500000000001,-0.34125000000000005,17.5
2.041653871536255,-0.18424734019999997,-0.26979074815,9.850652438549998,-2.21375,-0.39375000000000004,-0.36750000000000005,17.5
2.0472049713134766,-0.18664016279999998,-0.25064816735,9.868598608049998,-1.82875,-0.42875,-0.30625,16.5
2.0526347160339355,-0.19082760235,-0.2608176634,9.8739824589,-2.02125,-0.56,-0.23625000000000002,16.5
2.058051824569702,-0.19142580799999998,-0.2620140747,9.87458066455,-1.9862500000000003,-0.6562500000000001,-0.35000000000000003,16.5
2.0635018348693848,-0.18125631194999997,-0.25782663515,9.8404829425,-2.21375,-0.6825000000000001,-0.41125000000000006,16.5
2.069068670272827,-0.18723836844999997,-0.25124637299999997,9.878768104099999,-2.30125,-0.6125,-0.385,16.5
2.074458599090576,-0.1782652837,-0.2560320182,9.896116067949999,-2.0475000000000003,-0.47250000000000003,-0.3325,16.5
2.0799155235290527,-0.17407784415000002,-0.2679961312,9.9110712092,-2.42375,-0.5775,-0.3325,16.5
2.085329294204712,-0.18185451760000002,-0.25124637299999997,9.832706269049998,-2.31,-0.5337500000000001,-0.6125,16.5
2.090825319290161,-0.18484554585,-0.24526431649999997,9.85424167245,-2.5987500000000003,-0.7875000000000001,-0.5425000000000001,16.5
2.0963451862335205,-0.18484554585,-0.24227328824999997,9.88175913235,-2.1175,-0.47250000000000003,-0.21000000000000002,16.5
2.1017560958862305,-0.16331014244999997,-0.22731814699999997,9.88175913235,-2.5200000000000005,-0.6125,-0.44625000000000004,16.5
2.107274293899536,-0.1746760498,-0.25902304644999996,9.90209812445,-1.9687500000000002,-0.47250000000000003,-0.43750000000000006,16.5
2.112701177597046,-0.18245272324999998,-0.24765713909999998,9.93559764085,-2.415,-0.48125000000000007,-0.6475000000000001,17.5
2.118155002593994,-0.18005990065000002,-0.25663022385,9.896116067949999,-1.7500000000000002,-0.5162500000000001,-0.21000000000000002,17.5
2.1235530376434326,-0.19621145319999997,-0.2620140747,9.892526834049999,-2.0562500000000004,-0.42875,-0.48125000000000007,17.5
2.1291048526763916,-0.17527425545,-0.25064816735,9.880562721050001,-2.31875,-0.48125000000000007,-0.56,17.5
2.134530782699585,-0.19441683624999997,-0.24825534474999997,9.905687358349997,-2.30125,-0.4025,-0.42000000000000004,17.5
2.1399636268615723,-0.17886348935000002,-0.24765713909999998,9.869196813699999,-1.6187500000000001,-0.46375000000000005,-0.22750000000000004,17.5
2.1453983783721924,-0.17288143285000002,-0.24885355039999998,9.882357337999998,-2.00375,-0.49000000000000005,-0.31500000000000006,17.5
2.150975465774536,-0.16450655374999998,-0.27696921594999996,9.878169898449999,-1.9250000000000003,-0.4025,-0.22750000000000004,17.5
2.15645432472229,-0.19441683624999997,-0.28235306679999994,9.82911703515,-2.4062500000000004,-0.6562500000000001,-0.5687500000000001,17.5
2.161851406097412,-0.19740786449999997,-0.2656033086,9.864411168499998,-2.0387500000000003,-0.37625000000000003,-0.48125000000000007,17.5
2.1675002574920654,-0.18664016279999998,-0.25423740125,9.878169898449999,-2.10875,-0.43750000000000006,-0.35000000000000003,17.5
2.172940254211426,-0.18185451760000002,-0.2644068973,9.868598608049998,-2.02125,-0.6212500000000001,-0.16625,17.5
2.1783881187438965,-0.19860427579999998,-0.24825534474999997,9.87697348715,-2.30125,-0.5950000000000001,-0.4025,17.5
2.1838247776031494,-0.16510475939999997,-0.25184457865,9.914062237449999,-2.02125,-0.6125,-0.25375000000000003,17.5
2.1893529891967773,-0.16031911419999997,-0.25722842949999997,9.913464031799998,-2.30125,-0.28,-0.3325,17.5
2.1947479248046875,-0.18005990065000002,-0.27098715944999996,9.887142983199999,-2.1525000000000003,-0.5950000000000001,-0.35000000000000003,17.5
2.200227737426758,-0.18664016279999998,-0.2739781877,9.89372324535,-1.9512500000000002,-0.36750000000000005,-0.29750000000000004,17.5
2.2056868076324463,-0.16929219894999997,-0.2524427843,9.88893760015,-2.0387500000000003,-0.42875,-0.20125,17.5
2.2117795944213867,-0.1746760498,-0.26141586904999997,9.898508890549998,-1.93375,-0.44625000000000004,-0.42875,17.5
2.2174105644226074,-0.18843477974999998,-0.2679961312,9.898508890549998,-2.2662500000000003,-0.5337500000000001,-0.3325,17.5
2.222827434539795,-0.1746760498,-0.2500499617,9.88534836625,-1.8725000000000003,-0.49875,-0.22750000000000004,17.5
2.2282912731170654,-0.1782652837,-0.26141586904999997,9.85902731765,-2.31875,-0.7525000000000001,-0.37625000000000003,17.5
2.2337334156036377,-0.20219350969999997,-0.24346969954999997,9.916455060049998,-2.24,-0.5162500000000001,-0.31500000000000006,17.5
2.239262104034424,-0.20877377184999998,-0.2679961312,9.864411168499998,-1.9075000000000002,-0.7350000000000001,-0.34125000000000005,17.5
2.2446370124816895,-0.18245272324999998,-0.28295127244999996,9.879366309749999,-1.9862500000000003,-0.6562500000000001,-0.32375000000000004,17.5
2.2501349449157715,-0.1483550012,-0.24047867129999997,9.870393224999999,-2.52875,-0.56,-0.42000000000000004,17.5
2.2555530071258545,-0.16331014244999997,-0.23629123174999997,9.883553749299999,-2.31,-0.60375,-0.41125000000000006,17.5
2.261143684387207,-0.19381863059999999,-0.27696921594999996,9.88893760015,-1.9512500000000002,-0.6212500000000001,-0.56,17.5
2.2666146755218506,-0.1698904046,-0.2608176634,9.90688376965,-2.4762500000000003,-0.5425000000000001,-0.60375,17.5
2.2720396518707275,-0.16809578764999997,-0.24406790519999996,9.88893760015,-1.995,-0.8137500000000001,-0.41125000000000006,17.5
2.2775495052337646,-0.17288143285000002,-0.2536391956,9.92482993915,-2.4062500000000004,-0.55125,-0.46375000000000005,17.5
2.282980442047119,-0.17527425545,-0.26380869165,9.905687358349997,-2.07375,-0.48125000000000007,-0.31500000000000006,17.5
2.288442373275757,-0.18544375149999998,-0.2536391956,9.92482993915,-2.07375,-0.43750000000000006,-0.2625,17.5
2.293849229812622,-0.19621145319999997,-0.24287149389999999,9.9242317335,-2.19625,-0.30625,-0.28875,17.5
2.29941725730896,-0.19202401365,-0.2727817764,9.930213789999998,-2.0562500000000004,-0.5337500000000001,-0.32375000000000004,16.5
2.304903030395508,-0.21296121140000002,-0.2656033086,9.888339394499999,-1.6187500000000001,-0.28,-0.13125,16.5
2.3103652000427246,-0.17886348935000002,-0.2536391956,9.90209812445,-2.12625,-0.3325,-0.37625000000000003,16.5
2.3158209323883057,-0.16689937635,-0.23210379219999996,9.991230766299998,-2.4937500000000004,-0.39375000000000004,-0.5950000000000001,16.5
2.3242077827453613,-0.1471585899,-0.25722842949999997,9.8548398781,-1.9162500000000002,-0.42000000000000004,-0.35875,16.5
2.32975172996521,-0.17228322719999997,-0.23449661479999998,9.84108114815,-2.21375,-0.32375000000000004,-0.44625000000000004,16.5
2.3351948261260986,-0.2009970984,-0.2727817764,9.823733184299998,-1.5312500000000002,-0.28,-0.47250000000000003,16.5
2.3406057357788086,-0.19322042494999997,-0.2727817764,9.896714273599999,-2.0650000000000004,-0.29750000000000004,-0.39375000000000004,16.5
2.346120595932007,-0.18604195715,-0.30927232104999997,9.91884788265,-2.4675000000000002,-0.7262500000000001,-0.5337500000000001,17.5
2.3515565395355225,-0.17706887240000002,-0.25902304644999996,9.886544777549998,-2.1612500000000003,-0.28875,-0.49875,17.5
2.357048511505127,-0.15912270289999997,-0.26141586904999997,9.92602635045,-1.82875,-0.45500000000000007,-0.22750000000000004,17.5
2.362450361251831,-0.15852449724999998,-0.25184457865,9.884750160599998,-1.8637500000000002,-0.25375000000000003,-0.35875,17.5
2.367950201034546,-0.20757736054999998,-0.24167508259999998,9.944570725599998,-1.7675,-0.21000000000000002,-0.30625,17.5
2.3733842372894287,-0.19680965884999999,-0.27098715944999996,9.953543810349998,-2.3625000000000003,-0.25375000000000003,-0.6475000000000001,17.5
2.3788251876831055,-0.15553346899999998,-0.2667997199,9.9349994352,-1.995,-0.14,-0.42875,16.5
2.38423490524292,-0.020937197749999997,-0.27218357075,9.9397850804,-1.5225000000000002,-0.21875000000000003,-0.24500000000000002,16.5
2.389737844467163,-0.16450655374999998,-0.22612173569999997,9.894321451,-1.6887500000000002,-0.10500000000000001,-0.34125000000000005,16.5
2.3951637744903564,-0.179461695,-0.2787638329,9.846464998999998,-1.6362500000000002,-0.36750000000000005,-0.30625,16.5
2.4006097316741943,-0.15972090854999998,-0.24466611084999998,9.864411168499998,-1.8025000000000002,-0.35875,-0.30625,17.5
2.406190872192383,-0.18664016279999998,-0.3152543775499999,9.79083187355,-2.0825,-0.20125,-0.13125,17.5
2.4116365909576416,-0.16869399329999998,-0.26321048599999997,9.771689292749999,-1.8900000000000001,-0.385,-0.32375000000000004,17.5
2.417217493057251,-0.20398812665,-0.2656033086,9.71545796165,-2.02125,-0.34125000000000005,-0.31500000000000006,17.5
2.422656536102295,-0.1950150419,-0.2548356069,9.789635462249999,-2.1437500000000003,-0.47250000000000003,-0.42000000000000004,17.5
2.4281094074249268,-0.30209385325,-0.2620140747,9.729216691599998,-2.5200000000000005,-0.39375000000000004,-0.30625,17.5
2.4335482120513916,-0.15553346899999998,-0.22133609049999997,9.8273224182,-2.12625,-0.6300000000000001,-0.35000000000000003,17.5
2.4390790462493896,-0.14536397295,-0.2237289131,9.870991430649998,-2.45875,-0.5775,-0.42000000000000004,17.5
2.444463014602661,-0.17766707805,-0.2141576227,9.839286531199999,-2.1875,-0.7612500000000001,-0.44625000000000004,17.5
2.449887275695801,-0.20458633229999998,-0.22791635265,9.853643466800001,-1.6975000000000002,-0.69125,-0.45500000000000007,17.5
2.4552581310272217,-0.19980068709999999,-0.28235306679999994,9.99182897195,-2.5112500000000004,-0.385,-0.43750000000000006,17.5
2.4606430530548096,-0.15912270289999997,-0.25782663515,9.86740219675,-2.3625000000000003,-0.47250000000000003,-0.31500000000000006,17.5
2.4662599563598633,-0.20338992099999997,-0.27577280465,9.8811609267,-1.8987500000000002,-0.525,-0.15750000000000003,17.5
2.471752643585205,-0.20518453794999997,-0.27816562724999994,9.938588669099998,-2.205,-0.44625000000000004,-0.385,17.5
2.477276563644409,-0.19621145319999997,-0.2584248408,9.9038927414,-2.5025000000000004,-0.5950000000000001,-0.5075000000000001,17.5
2.4827375411987305,-0.1878365741,-0.31345976059999997,9.8560362894,-2.0562500000000004,-0.49000000000000005,-0.21000000000000002,17.5
2.488213539123535,-0.19980068709999999,-0.27457639335,9.977472036350001,-2.0300000000000002,-0.5075000000000001,-0.36750000000000005,17.5
2.4936466217041016,-0.18125631194999997,-0.2835494781,9.87218784195,-2.3975000000000004,-0.6737500000000001,-0.49875,17.5
2.499209403991699,-0.1698904046,-0.23988046564999999,9.8763752815,-2.1875,-0.5775,-0.35000000000000003,17.5
2.504671096801758,-0.16450655374999998,-0.23748764304999997,9.949954576449999,-2.42375,-0.5337500000000001,-0.32375000000000004,17.5
2.5101490020751953,-0.13100703735,-0.24526431649999997,9.917651471349998,-1.77625,-0.28,-0.3325,17.5
2.5155701637268066,-0.1639083481,-0.22492532440000002,9.932008406949999,-2.0475000000000003,-0.36750000000000005,-0.35875,16.5
2.5211398601531982,-0.16271193679999998,-0.25124637299999997,9.7974121357,-2.21375,-0.55125,-0.49000000000000005,16.5
2.52656888961792,-0.17886348935000002,-0.2560320182,9.88295554365,-2.44125,-0.48125000000000007,-0.44625000000000004,16.5
2.532003879547119,-0.18484554585,-0.27218357075,9.7878408453,-2.42375,-0.58625,-0.5337500000000001,17.5
2.537590742111206,-0.1950150419,-0.23808584869999996,9.84706320465,-1.9862500000000003,-0.44625000000000004,-0.42875,17.5
2.5430028438568115,-0.19262221929999998,-0.28534409504999997,9.905089152699999,-2.4325,-0.5425000000000001,-0.28,17.5
2.548466682434082,-0.1734796385,-0.23569302609999998,9.80159957525,-1.82875,-0.6212500000000001,-0.23625000000000002,17.5
2.5539193153381348,-0.18723836844999997,-0.2225325018,9.848857821599998,-2.0475000000000003,-0.6475000000000001,-0.28,17.5
2.5594515800476074,-0.19322042494999997,-0.3002992363,10.0055877019,-2.345,-0.46375000000000005,-0.5075000000000001,17.5
2.5648865699768066,-0.17108681589999997,-0.2883351233,9.851250644199999,-2.31875,-0.35000000000000003,-0.30625,17.5
2.5703554153442383,-0.16091731985,-0.2596212521,9.91525864875,-2.0825,-0.63875,-0.36750000000000005,17.5
2.5757341384887695,-0.18364913454999998,-0.24167508259999998,9.94397251995,-2.10875,-0.6825000000000001,-0.4025,17.5
2.590480089187622,-0.16151552549999998,-0.2715853651,9.888339394499999,-2.09125,-0.6737500000000001,-0.35000000000000003,17.5
2.5965278148651123,-0.16689937635,-0.25902304644999996,9.841679353799998,-2.0562500000000004,-0.49875,-0.42000000000000004,17.5
2.602041721343994,-0.17108681589999997,-0.27337998204999997,9.88175913235,-2.24,-0.46375000000000005,-0.56,17.5
2.6075708866119385,-0.18305092890000002,-0.24466611084999998,9.8608219346,-1.8025000000000002,-0.385,-0.20125,17.5
2.612912654876709,-0.17288143285000002,-0.2644068973,9.842875765099999,-2.3800000000000003,-0.6825000000000001,-0.49875,17.5
2.618351459503174,-0.18424734019999997,-0.2309073809,9.91884788265,-2.02125,-0.6300000000000001,-0.48125000000000007,17.5
2.623748540878296,-0.16091731985,-0.22612173569999997,9.87697348715,-2.0300000000000002,-0.6737500000000001,-0.385,17.5
2.629275321960449,-0.20518453794999997,-0.25782663515,9.9038927414,-2.2837500000000004,-0.55125,-0.49875,17.5
2.6347084045410156,-0.1519442351,-0.25543381255,9.8727860476,-1.9250000000000003,-0.6300000000000001,-0.31500000000000006,16.5
2.6401731967926025,-0.16271193679999998,-0.26141586904999997,9.9086783866,-1.9425000000000001,-0.47250000000000003,-0.47250000000000003,16.5
2.645620107650757,-0.18364913454999998,-0.2727817764,9.86740219675,-2.45875,-0.5687500000000001,-0.37625000000000003,16.5
2.6512012481689453,-0.16271193679999998,-0.27996024419999993,9.856634495049999,-1.8025000000000002,-0.525,-0.28875,16.5
2.6567230224609375,-0.17587246110000002,-0.2620140747,9.93081199565,-2.2837500000000004,-0.39375000000000004,-0.36750000000000005,16.5
2.6621181964874268,-0.16749758199999998,-0.28414768374999994,9.90329453575,-1.8550000000000002,-0.28875,-0.47250000000000003,16.5
2.667792797088623,-0.1806581063,-0.25663022385,9.88175913235,-1.9162500000000002,-0.41125000000000006,-0.29750000000000004,16.5
2.673210859298706,-0.16450655374999998,-0.2608176634,9.910473003549999,-1.88125,-0.5425000000000001,-0.21000000000000002,16.5
2.678666591644287,-0.16749758199999998,-0.2584248408,9.86740219675,-2.00375,-0.49000000000000005,-0.29750000000000004,16.5
2.687093734741211,-0.15553346899999998,-0.2727817764,9.886544777549998,-2.1700000000000004,-0.6562500000000001,-0.28,16.5
2.6924965381622314,-0.16869399329999998,-0.26979074815,9.8680004024,-2.0125,-0.41125000000000006,-0.2625,16.5
2.697932481765747,-0.16630117069999997,-0.27098715944999996,9.904490947049998,-2.0562500000000004,-0.46375000000000005,-0.28875,16.5
2.7033002376556396,-0.16510475939999997,-0.26021945775,9.877571692799998,-2.2487500000000002,-0.6825000000000001,-0.28,16.5
2.7087414264678955,-0.17886348935000002,-0.24047867129999997,9.8763752815,-2.1525000000000003,-0.6300000000000001,-0.30625,16.5
2.7141692638397217,-0.16211373114999997,-0.23688943739999999,9.91525864875,-1.7412500000000002,-0.60375,-0.23625000000000002,16.5
2.7197160720825195,-0.16929219894999997,-0.27218357075,9.930213789999998,-2.12625,-0.6125,-0.32375000000000004,16.5
2.725114107131958,-0.16689937635,-0.26500510294999996,9.895517862299998,-2.0650000000000004,-0.5687500000000001,-0.385,16.5
2.7305898666381836,-0.16091731985,-0.28115665549999996,9.869196813699999,-2.5812500000000003,-0.6212500000000001,-0.37625000000000003,17.5
2.736142873764038,-0.17886348935000002,-0.27098715944999996,9.92004429395,-2.1437500000000003,-0.44625000000000004,-0.5687500000000001,17.5
2.741581678390503,-0.1878365741,-0.25902304644999996,9.878768104099999,-2.6250000000000004,-0.63875,-0.43750000000000006,17.5
2.747116804122925,-0.18484554585,-0.28594230069999993,9.880562721050001,-1.9775000000000003,-0.55125,-0.28875,16.5
2.752560615539551,-0.19621145319999997,-0.31405796625,9.895517862299998,-2.2225,-0.44625000000000004,-0.525,16.5
2.75797176361084,-0.18125631194999997,-0.26380869165,9.8380901199,-2.31,-0.6212500000000001,-0.44625000000000004,16.5
2.7633965015411377,-0.16869399329999998,-0.24825534474999997,9.892526834049999,-2.0475000000000003,-0.5687500000000001,-0.48125000000000007,16.5
2.7689473628997803,-0.19082760235,-0.26620151425,9.891330422749999,-2.1875,-0.55125,-0.42000000000000004,16.5
2.7743523120880127,-0.17048861024999998,-0.24646072779999997,9.90688376965,-2.1612500000000003,-0.47250000000000003,-0.43750000000000006,16.5
2.779853343963623,-0.17587246110000002,-0.2500499617,9.88893760015,-1.54875,-0.31500000000000006,-0.34125000000000005,16.5
2.7852652072906494,-0.18484554585,-0.2679961312,9.869795019349999,-1.6187500000000001,-0.42875,-0.44625000000000004,16.5
2.7907681465148926,-0.20219350969999997,-0.24107687694999996,9.905089152699999,-2.42375,-0.41125000000000006,-0.37625000000000003,16.5
2.7962632179260254,-0.16809578764999997,-0.25902304644999996,9.864411168499998,-2.1,-0.5950000000000001,-0.37625000000000003,16.5
2.801732063293457,-0.17048861024999998,-0.23509482044999996,9.878169898449999,-1.93375,-0.39375000000000004,-0.28,16.5
2.8072848320007324,-0.16869399329999998,-0.23509482044999996,9.851848849849999,-2.21375,-0.5075000000000001,-0.42000000000000004,16.5
2.8127267360687256,-0.18185451760000002,-0.25304098994999996,9.870991430649998,-2.1175,-0.525,-0.37625000000000003,16.5
2.81821346282959,-0.17766707805,-0.2620140747,9.8919286284,-2.5900000000000003,-0.5162500000000001,-0.3325,17.5
2.823617458343506,-0.17228322719999997,-0.26141586904999997,9.892526834049999,-2.0300000000000002,-0.55125,-0.385,17.5
2.8291707038879395,-0.15912270289999997,-0.27936203854999997,9.898508890549998,-2.0825,-0.5425000000000001,-0.44625000000000004,17.5
2.834623336791992,-0.1698904046,-0.2703889538,9.88175913235,-2.1,-0.74375,-0.3325,17.5
2.8400323390960693,-0.18125631194999997,-0.28055844984999995,9.88175913235,-2.21375,-0.5950000000000001,-0.56,17.5
2.845431327819824,-0.17108681589999997,-0.2739781877,9.85902731765,-2.2925000000000004,-0.5775,-0.4025,17.5
2.850987195968628,-0.17647066675,-0.28654050634999995,9.8991070962,-2.0475000000000003,-0.49875,-0.34125000000000005,16.5
2.85646915435791,-0.18185451760000002,-0.28713871199999996,9.895517862299998,-2.5112500000000004,-0.63875,-0.5950000000000001,16.5
2.861901044845581,-0.18364913454999998,-0.28414768374999994,9.900303507499999,-2.1700000000000004,-0.6825000000000001,-0.15750000000000003,16.5
2.867504835128784,-0.18544375149999998,-0.25423740125,9.907481975299998,-2.12625,-0.6475000000000001,-0.30625,16.5
2.8728578090667725,-0.16689937635,-0.26021945775,9.8380901199,-1.9775000000000003,-0.60375,-0.4025,16.5
2.878323793411255,-0.1950150419,-0.23928225999999997,9.877571692799998,-2.1787500000000004,-0.5687500000000001,-0.46375000000000005,16.5
2.883774757385254,-0.17886348935000002,-0.24885355039999998,9.882357337999998,-1.9162500000000002,-0.5075000000000001,-0.23625000000000002,17.5
2.8893375396728516,-0.17168502154999998,-0.23928225999999997,9.880562721050001,-2.2487500000000002,-0.3325,-0.4025,17.5
2.894749641418457,-0.19441683624999997,-0.24406790519999996,9.88175913235,-2.00375,-0.41125000000000006,-0.44625000000000004,17.5
2.900226593017578,-0.18364913454999998,-0.26321048599999997,9.879366309749999,-2.09125,-0.6212500000000001,-0.35000000000000003,17.5
2.905682325363159,-0.19322042494999997,-0.25423740125,9.8811609267,-2.1875,-0.47250000000000003,-0.31500000000000006,17.5
2.9112393856048584,-0.1806581063,-0.2608176634,9.88534836625,-1.995,-0.5950000000000001,-0.14875000000000002,17.5
2.9166982173919678,-0.18185451760000002,-0.2596212521,9.862616551549998,-1.6187500000000001,-0.385,-0.2625,17.5
2.922116994857788,-0.19860427579999998,-0.2715853651,9.87458066455,-1.8025000000000002,-0.44625000000000004,-0.37625000000000003,17.5
2.927622079849243,-0.16869399329999998,-0.26620151425,9.888339394499999,-2.23125,-0.42875,-0.31500000000000006,17.5
2.933053970336914,-0.17168502154999998,-0.2703889538,9.89372324535,-2.00375,-0.525,-0.28875,17.5
2.9385058879852295,-0.17228322719999997,-0.27996024419999993,9.90209812445,-2.1350000000000002,-0.44625000000000004,-0.41125000000000006,17.5
2.943920850753784,-0.17527425545,-0.2524427843,9.871589636299998,-2.6162500000000004,-0.41125000000000006,-0.46375000000000005,17.5
2.9494736194610596,-0.179461695,-0.27457639335,9.8560362894,-2.0300000000000002,-0.48125000000000007,-0.27125000000000005,17.5
2.955352783203125,-0.19202401365,-0.24586252214999998,9.856634495049999,-2.0562500000000004,-0.665,-0.35875,17.5
2.960984468460083,-0.18544375149999998,-0.26321048599999997,9.88534836625,-1.4875,-0.6825000000000001,-0.3325,17.5
2.9664506912231445,-0.1782652837,-0.25304098994999996,9.870393224999999,-2.2925000000000004,-0.5075000000000001,-0.39375000000000004,17.5
2.9719064235687256,-0.16510475939999997,-0.2500499617,9.862616551549998,-2.30125,-0.43750000000000006,-0.41125000000000006,17.5
2.9774463176727295,-0.18185451760000002,-0.25902304644999996,9.84586679335,-2.44125,-0.74375,-0.35875,17.5
2.982882261276245,-0.1531406464,-0.25722842949999997,9.878169898449999,-2.5025000000000004,-0.55125,-0.44625000000000004,17.5
2.988422155380249,-0.1734796385,-0.24586252214999998,9.859625523299998,-2.30125,-0.36750000000000005,-0.385,17.5
2.9938321113586426,-0.16091731985,-0.2500499617,9.88415195495,-2.00375,-0.44625000000000004,-0.3325,17.5
2.999385118484497,-0.19381863059999999,-0.27218357075,9.843473970749999,-2.1175,-0.6475000000000001,-0.41125000000000006,16.5
3.0048270225524902,-0.19980068709999999,-0.2584248408,9.883553749299999,-2.2575000000000003,-0.58625,-0.49000000000000005,16.5
3.0102899074554443,-0.17108681589999997,-0.24167508259999998,9.88774118885,-2.1700000000000004,-0.665,-0.37625000000000003,16.5
3.01572585105896,-0.19142580799999998,-0.25543381255,9.8668039911,-2.21375,-0.49875,-0.30625,17.5
3.0212507247924805,-0.1579262916,-0.24406790519999996,9.92004429395,-2.0562500000000004,-0.63875,-0.44625000000000004,17.5
3.0266897678375244,-0.20518453794999997,-0.27996024419999993,9.85424167245,-2.12625,-0.63875,-0.385,17.5
3.0321335792541504,-0.19202401365,-0.24825534474999997,9.8572327007,-1.8987500000000002,-0.31500000000000006,-0.35000000000000003,17.5
3.0406084060668945,-0.16809578764999997,-0.28414768374999994,9.878768104099999,-1.995,-0.44625000000000004,-0.3325,17.5
3.046206474304199,-0.16091731985,-0.2620140747,9.85424167245,-2.5725000000000002,-0.5162500000000001,-0.41125000000000006,17.5
3.0516722202301025,-0.1519442351,-0.2620140747,9.8763752815,-1.9775000000000003,-0.48125000000000007,-0.5337500000000001,17.5
3.057197332382202,-0.16331014244999997,-0.25722842949999997,9.886544777549998,-0.00875,-0.6125,-0.5075000000000001,17.5
3.0626232624053955,-0.1746760498,-0.27577280465,9.88534836625,-2.4062500000000004,-0.5775,-0.39375000000000004,17.5
3.0680758953094482,-0.17168502154999998,-0.25663022385,9.911669414849998,-2.1,-0.6212500000000001,-0.41125000000000006,17.5
3.0734918117523193,-0.16689937635,-0.2500499617,9.891330422749999,-2.5812500000000003,-0.6475000000000001,-0.49000000000000005,17.5
3.0789990425109863,-0.20817556619999997,-0.2500499617,9.894321451,-2.2487500000000002,-0.5075000000000001,-0.44625000000000004,17.5
3.0843615531921387,-0.17048861024999998,-0.2667997199,9.892526834049999,-2.23125,-0.385,-0.5687500000000001,16.5
3.089925765991211,-0.17407784415000002,-0.26859433685,9.877571692799998,-2.345,-0.4025,-0.36750000000000005,16.5
3.095301628112793,-0.16689937635,-0.26380869165,9.9086783866,-2.2225,-0.56,-0.5162500000000001,16.5
3.1008543968200684,-0.1806581063,-0.25782663515,9.86740219675,-2.0387500000000003,-0.7175,-0.525,17.5
3.106325387954712,-0.19262221929999998,-0.25304098994999996,9.8608219346,-2.1175,-0.42875,-0.42875,17.5
3.1117355823516846,-0.18604195715,-0.27457639335,9.90090171315,-2.1437500000000003,-0.58625,-0.37625000000000003,17.5
3.11725115776062,-0.17228322719999997,-0.26919254249999996,9.835697297299998,-2.07375,-0.6125,-0.2625,16.5
3.122603178024292,-0.1782652837,-0.23988046564999999,9.869196813699999,-1.9425000000000001,-0.47250000000000003,-0.23625000000000002,16.5
3.128042221069336,-0.18723836844999997,-0.27337998204999997,9.906285564,-2.45875,-0.63875,-0.45500000000000007,16.5
3.133476972579956,-0.15553346899999998,-0.2620140747,9.8620183459,-2.345,-0.5337500000000001,-0.42000000000000004,16.5
3.1390278339385986,-0.17706887240000002,-0.24705893344999996,9.894321451,-2.7212500000000004,-0.5337500000000001,-0.5425000000000001,16.5
3.1444380283355713,-0.15972090854999998,-0.25423740125,9.8979106849,-1.9687500000000002,-0.45500000000000007,-0.37625000000000003,16.5
3.1499199867248535,-0.22133609049999997,-0.25722842949999997,9.861420140249999,-2.07375,-0.42000000000000004,-0.35875,16.5
3.155409812927246,-0.179461695,-0.2703889538,9.853643466800001,-2.1437500000000003,-0.5075000000000001,-0.2625,16.5
3.1609346866607666,-0.17766707805,-0.26919254249999996,9.8727860476,-2.2225,-0.5075000000000001,-0.36750000000000005,16.5
3.1664316654205322,-0.16570296504999998,-0.26321048599999997,9.86740219675,-2.23125,-0.69125,-0.385,16.5
3.171863555908203,-0.17168502154999998,-0.26919254249999996,9.89372324535,-2.0475000000000003,-0.35000000000000003,-0.29750000000000004,16.5
3.177384376525879,-0.18424734019999997,-0.25722842949999997,9.895517862299998,-1.88125,-0.5075000000000001,-0.4025,16.5
3.182823419570923,-0.16091731985,-0.24705893344999996,9.869196813699999,-2.09125,-0.56,-0.5687500000000001,17.5
3.1882691383361816,-0.19022939669999997,-0.26261228035,9.841679353799998,-1.6800000000000002,-0.6475000000000001,-0.30625,17.5
3.193671226501465,-0.16929219894999997,-0.24586252214999998,9.889535805799998,-1.9250000000000003,-0.5425000000000001,-0.31500000000000006,17.5
3.199223279953003,-0.19022939669999997,-0.25124637299999997,9.89491965665,-2.2750000000000004,-0.6212500000000001,-0.39375000000000004,17.5
3.2046492099761963,-0.19441683624999997,-0.27816562724999994,9.843473970749999,-2.0650000000000004,-0.44625000000000004,-0.42875,17.5
3.210170030593872,-0.16809578764999997,-0.25064816735,9.8380901199,-2.3275,-0.5075000000000001,-0.41125000000000006,17.5
3.2156150341033936,-0.1806581063,-0.24287149389999999,9.848857821599998,-2.0475000000000003,-0.6125,-0.30625,16.5
3.2211668491363525,-0.16510475939999997,-0.2596212521,9.8799645154,-1.9600000000000002,-0.5950000000000001,-0.37625000000000003,16.5
3.2266056537628174,-0.19262221929999998,-0.25543381255,9.868598608049998,-2.2925000000000004,-0.525,-0.25375000000000003,16.5
3.2320594787597656,-0.18245272324999998,-0.23569302609999998,9.88295554365,-2.3537500000000002,-0.5337500000000001,-0.41125000000000006,17.5
3.2376344203948975,-0.16689937635,-0.24586252214999998,9.870393224999999,-2.2837500000000004,-0.34125000000000005,-0.44625000000000004,17.5
3.2430434226989746,-0.18245272324999998,-0.26321048599999997,9.86740219675,-1.8987500000000002,-0.6825000000000001,-0.31500000000000006,17.5
3.2485203742980957,-0.18544375149999998,-0.2596212521,9.882357337999998,-1.88125,-0.43750000000000006,-0.21000000000000002,17.5
3.253950357437134,-0.1890329854,-0.26919254249999996,9.871589636299998,-2.44125,-0.55125,-0.28875,17.5
3.2594404220581055,-0.19202401365,-0.26321048599999997,9.8919286284,-2.4762500000000003,-0.7000000000000001,-0.41125000000000006,17.5
3.2648673057556152,-0.18245272324999998,-0.26859433685,9.904490947049998,-2.19625,-0.5775,-0.22750000000000004,16.5
3.2703440189361572,-0.19980068709999999,-0.24945175605,9.8548398781,-2.2225,-0.47250000000000003,-0.47250000000000003,16.5
3.2757391929626465,-0.1806581063,-0.25663022385,9.8811609267,-2.5987500000000003,-0.4025,-0.3325,16.5
3.281291961669922,-0.15433705769999997,-0.2620140747,9.869795019349999,-2.1350000000000002,-0.7087500000000001,-0.4025,17.5
3.2867608070373535,-0.16450655374999998,-0.25722842949999997,9.890732217099998,-1.9687500000000002,-0.5075000000000001,-0.28,17.5
3.2921228408813477,-0.17886348935000002,-0.26500510294999996,9.855438083749998,-1.9687500000000002,-0.6737500000000001,-0.44625000000000004,17.5
3.297785758972168,-0.16809578764999997,-0.2548356069,9.8799645154,-1.9687500000000002,-0.44625000000000004,-0.44625000000000004,17.5
3.3032565116882324,-0.16929219894999997,-0.26321048599999997,9.8799645154,-2.09125,-0.69125,-0.5162500000000001,16.5
3.308706521987915,-0.19322042494999997,-0.27816562724999994,9.895517862299998,-2.3625000000000003,-0.5162500000000001,-0.37625000000000003,16.5
3.3141984939575195,-0.15972090854999998,-0.24586252214999998,9.86620578545,-2.21375,-0.665,-0.49875,16.5
3.319734573364258,-0.18185451760000002,-0.24765713909999998,9.91884788265,-2.1700000000000004,-0.5162500000000001,-0.5425000000000001,16.5
3.3256912231445312,-0.16630117069999997,-0.25124637299999997,9.900303507499999,-2.2487500000000002,-0.48125000000000007,-0.35875,16.5
3.331321954727173,-0.16271193679999998,-0.25902304644999996,9.890732217099998,-2.87,-0.7875000000000001,-0.60375,16.5
3.3367671966552734,-0.17168502154999998,-0.2667997199,9.8799645154,-2.30125,-0.49000000000000005,-0.47250000000000003,16.5
3.3421568870544434,-0.17048861024999998,-0.25124637299999997,9.880562721050001,-2.4762500000000003,-0.47250000000000003,-0.49000000000000005,16.5
3.3477089405059814,-0.1806581063,-0.25902304644999996,9.88893760015,-2.66875,-0.58625,-0.39375000000000004,16.5
3.3531320095062256,-0.17048861024999998,-0.26141586904999997,9.855438083749998,-2.0475000000000003,-0.6475000000000001,-0.31500000000000006,17.5
3.3585636615753174,-0.19381863059999999,-0.2667997199,9.8931250397,-2.07375,-0.56,-0.28,17.5
3.3639707565307617,-0.1782652837,-0.26739792554999997,9.878169898449999,-2.10875,-0.5337500000000001,-0.46375000000000005,17.5
3.3695285320281982,-0.1890329854,-0.27517459899999996,9.89372324535,-1.8725000000000003,-0.5425000000000001,-0.35000000000000003,17.5
3.374950647354126,-0.17168502154999998,-0.2560320182,9.888339394499999,-2.30125,-0.5950000000000001,-0.4025,17.5
3.3804304599761963,-0.179461695,-0.26739792554999997,9.911669414849998,-2.3275,-0.7000000000000001,-0.5075000000000001,17.5
3.3858802318573,-0.17407784415000002,-0.24825534474999997,9.850652438549998,-2.1612500000000003,-0.23625000000000002,-0.3325,16.5
3.3942642211914062,-0.18664016279999998,-0.23688943739999999,9.8548398781,-2.0562500000000004,-0.5425000000000001,-0.34125000000000005,16.5
3.399815082550049,-0.19680965884999999,-0.2560320182,9.886544777549998,-1.9512500000000002,-0.5425000000000001,-0.37625000000000003,17.5
3.4052388668060303,-0.1890329854,-0.26500510294999996,9.88893760015,-2.2225,-0.46375000000000005,-0.27125000000000005,17.5
3.410670042037964,-0.19740786449999997,-0.2584248408,9.846464998999998,-2.31875,-0.49000000000000005,-0.46375000000000005,17.5
3.416182041168213,-0.16271193679999998,-0.25423740125,9.88774118885,-1.9075000000000002,-0.60375,-0.2625,17.5
3.421597957611084,-0.17766707805,-0.25423740125,9.8668039911,-2.1787500000000004,-0.49875,-0.1925,17.5
3.4270436763763428,-0.16809578764999997,-0.25124637299999997,9.846464998999998,-1.7675,-0.49875,-0.37625000000000003,17.5
3.4324686527252197,-0.18544375149999998,-0.23509482044999996,9.88534836625,-2.2225,-0.74375,-0.3325,16.5
3.437960624694824,-0.19381863059999999,-0.2667997199,9.8739824589,-2.23125,-0.5425000000000001,-0.42000000000000004,16.5
3.443342447280884,-0.16151552549999998,-0.26380869165,9.863812962849998,-2.24,-0.7000000000000001,-0.49875,16.5
3.448779344558716,-0.1890329854,-0.26380869165,9.84227755945,-0.061250000000000006,-0.55125,-0.63875,16.5
3.4541995525360107,-0.17168502154999998,-0.24705893344999996,9.89013401145,-2.09125,-0.5950000000000001,-0.39375000000000004,16.5
3.459691286087036,-0.18604195715,-0.28713871199999996,9.919446088299999,-2.0650000000000004,-0.55125,-0.3325,16.5
3.4651122093200684,-0.179461695,-0.23988046564999999,9.8727860476,-1.7587500000000003,-0.46375000000000005,-0.29750000000000004,17.5
3.4706010818481445,-0.17288143285000002,-0.2500499617,9.88175913235,-2.4762500000000003,-0.6125,-0.39375000000000004,17.5
3.4761109352111816,-0.1890329854,-0.27577280465,9.888339394499999,-2.1437500000000003,-0.5950000000000001,-0.18375000000000002,17.5
3.4815878868103027,-0.18185451760000002,-0.24047867129999997,9.8931250397,-2.3537500000000002,-0.5337500000000001,-0.385,17.5
3.4871227741241455,-0.18544375149999998,-0.2584248408,9.87697348715,-1.9075000000000002,-0.48125000000000007,-0.30625,17.5
3.4925718307495117,-0.16929219894999997,-0.27337998204999997,9.85902731765,-2.31,-0.5775,-0.28,17.5
3.4979987144470215,-0.19082760235,-0.26380869165,9.861420140249999,-2.1787500000000004,-0.5425000000000001,-0.39375000000000004,17.5
3.5033786296844482,-0.16271193679999998,-0.2667997199,9.873384253249998,-2.0475000000000003,-0.41125000000000006,-0.30625,17.5
3.5087966918945312,-0.16331014244999997,-0.2679961312,9.8632147572,-1.8987500000000002,-0.56,-0.29750000000000004,17.5
3.5142476558685303,-0.15852449724999998,-0.2727817764,9.9086783866,-1.9425000000000001,-0.42000000000000004,-0.5425000000000001,17.5
3.519792318344116,-0.16271193679999998,-0.2548356069,9.856634495049999,-2.2750000000000004,-0.5075000000000001,-0.29750000000000004,16.5
3.5252113342285156,-0.17527425545,-0.2775674216,9.859625523299998,-2.3537500000000002,-0.6125,-0.39375000000000004,16.5
3.5306332111358643,-0.17766707805,-0.2667997199,9.87697348715,-2.0825,-0.5950000000000001,-0.39375000000000004,16.5
3.5361571311950684,-0.17706887240000002,-0.26859433685,9.871589636299998,-2.2487500000000002,-0.58625,-0.5162500000000001,16.5
3.541600227355957,-0.19621145319999997,-0.2560320182,9.8859465719,-2.44125,-0.7350000000000001,-0.34125000000000005,16.5
3.547213077545166,-0.19202401365,-0.2548356069,9.87218784195,-2.1175,-0.6475000000000001,-0.3325,16.5
3.5526599884033203,-0.1531406464,-0.2727817764,9.853643466800001,-2.23125,-0.55125,-0.37625000000000003,16.5
3.558100938796997,-0.17228322719999997,-0.24047867129999997,9.8632147572,-2.1175,-0.60375,-0.4025,16.5
3.5635387897491455,-0.19022939669999997,-0.23210379219999996,9.911669414849998,-0.15750000000000003,-0.55125,-0.42000000000000004,16.5
3.569096565246582,-0.1698904046,-0.25663022385,9.86740219675,-1.88125,-0.6562500000000001,-0.42875,17.5
3.574411630630493,-0.179461695,-0.26500510294999996,9.8811609267,-2.3537500000000002,-0.6825000000000001,-0.32375000000000004,17.5
3.579955577850342,-0.18364913454999998,-0.26380869165,9.9038927414,-2.10875,-0.5687500000000001,-0.47250000000000003,17.5
3.5853805541992188,-0.16689937635,-0.26919254249999996,9.869196813699999,-1.9862500000000003,-0.6125,-0.385,17.5
3.5908994674682617,-0.16809578764999997,-0.25423740125,9.862616551549998,-2.5987500000000003,-0.6825000000000001,-0.48125000000000007,17.5
3.5964112281799316,-0.19441683624999997,-0.2500499617,9.888339394499999,-2.44125,-0.5075000000000001,-0.525,17.5
3.601851224899292,-0.1890329854,-0.26979074815,9.86740219675,-1.88125,-0.35875,-0.34125000000000005,16.5
3.6073622703552246,-0.19680965884999999,-0.27816562724999994,9.860223728949999,-2.3625000000000003,-0.665,-0.385,16.5
3.612809181213379,-0.17706887240000002,-0.26859433685,9.882357337999998,-2.5900000000000003,-0.6737500000000001,-0.43750000000000006,16.5
3.6182830333709717,-0.18185451760000002,-0.2596212521,9.86620578545,-2.1787500000000004,-0.7175,-0.31500000000000006,16.5
3.623706817626953,-0.16869399329999998,-0.26739792554999997,9.887142983199999,-1.9600000000000002,-0.5950000000000001,-0.41125000000000006,16.5
3.6292319297790527,-0.16630117069999997,-0.2536391956,9.877571692799998,-2.02125,-0.5687500000000001,-0.5075000000000001,16.5
3.634617805480957,-0.20398812665,-0.2703889538,9.891330422749999,-2.0562500000000004,-0.5337500000000001,-0.48125000000000007,17.5
3.640068531036377,-0.18723836844999997,-0.2608176634,9.89491965665,-1.8987500000000002,-0.6562500000000001,-0.27125000000000005,17.5
3.645481586456299,-0.16151552549999998,-0.2727817764,9.888339394499999,-2.33625,-0.665,-0.31500000000000006,17.5
3.6510205268859863,-0.041874395499999995,-0.23808584869999996,9.9110712092,-2.45875,-0.56,-0.42875,16.5
3.65645432472229,-0.15553346899999998,-0.24346969954999997,9.88534836625,-1.8550000000000002,-0.5775,-0.44625000000000004,16.5
3.6618034839630127,-0.17228322719999997,-0.2596212521,9.887142983199999,-2.205,-0.37625000000000003,-0.385,16.5
3.6674861907958984,-0.17048861024999998,-0.24945175605,9.8668039911,-2.0475000000000003,-0.55125,-0.22750000000000004,16.5
3.6729202270507812,-0.19980068709999999,-0.23270199784999998,9.858429112,-2.1525000000000003,-0.3325,-0.42875,16.5
3.6783251762390137,-0.1698904046,-0.2895315346,9.87218784195,-1.8900000000000001,-0.55125,-0.1925,16.5
3.683739185333252,-0.1806581063,-0.2500499617,9.89731247925,-1.6975000000000002,-0.63875,-0.29750000000000004,16.5
3.6892659664154053,-0.17288143285000002,-0.28654050634999995,9.869196813699999,-2.21375,-0.49000000000000005,-0.35000000000000003,16.5
3.695159673690796,-0.14775679555,-0.25663022385,9.86740219675,-2.415,-0.6562500000000001,-0.35000000000000003,16.5
3.7006936073303223,-0.17228322719999997,-0.24227328824999997,9.88295554365,-2.2837500000000004,-0.6825000000000001,-0.48125000000000007,16.5
3.7062747478485107,-0.18005990065000002,-0.24945175605,9.85902731765,-1.6187500000000001,-0.48125000000000007,-0.32375000000000004,16.5
3.7116997241973877,-0.20039889274999997,-0.28414768374999994,9.8991070962,-2.1350000000000002,-0.49875,-0.525,16.5
3.717369556427002,-0.17587246110000002,-0.22671994134999998,9.886544777549998,-1.8725000000000003,-0.525,-0.35875,16.5
3.7228243350982666,-0.18723836844999997,-0.24227328824999997,9.88175913235,-2.205,-0.43750000000000006,-0.28,16.5
3.7282586097717285,-0.17288143285000002,-0.24885355039999998,9.925428144799998,-2.31875,-0.5775,-0.37625000000000003,16.5
3.733708143234253,-0.17647066675,-0.26500510294999996,9.862616551549998,-2.1787500000000004,-0.5075000000000001,-0.32375000000000004,17.5
3.739244222640991,-0.20518453794999997,-0.24945175605,9.87697348715,-1.9075000000000002,-0.58625,-0.25375000000000003,17.5
3.7478089332580566,-0.19740786449999997,-0.2644068973,9.87697348715,-2.0475000000000003,-0.47250000000000003,-0.39375000000000004,17.5
3.7532410621643066,-0.19740786449999997,-0.26859433685,9.9290173787,-1.995,-0.63875,-0.31500000000000006,16.5
3.7586538791656494,-0.17108681589999997,-0.24167508259999998,9.878169898449999,-2.1175,-0.5687500000000001,-0.29750000000000004,16.5
3.7641208171844482,-0.19381863059999999,-0.24765713909999998,9.860223728949999,-1.8987500000000002,-0.7175,-0.34125000000000005,16.5
3.7696588039398193,-0.1698904046,-0.2560320182,9.87218784195,-2.3975000000000004,-0.56,-0.2625,16.5
3.7750375270843506,-0.1734796385,-0.2667997199,9.8919286284,-2.3537500000000002,-0.60375,-0.46375000000000005,16.5
3.7804787158966064,-0.17108681589999997,-0.2727817764,9.9098747979,-2.7125000000000004,-0.7000000000000001,-0.5337500000000001,16.5
3.7859256267547607,-0.18125631194999997,-0.25124637299999997,9.896116067949999,-1.93375,-0.5337500000000001,-0.31500000000000006,17.5
3.791454315185547,-0.17647066675,-0.26919254249999996,9.85902731765,-1.8900000000000001,-0.5687500000000001,-0.28,17.5
3.7968783378601074,-0.16869399329999998,-0.2596212521,9.88893760015,-1.8900000000000001,-0.49000000000000005,-0.28,17.5
3.8023183345794678,-0.19980068709999999,-0.25064816735,9.829715240799999,-2.205,-0.5162500000000001,-0.45500000000000007,16.5
3.807821273803711,-0.15493526335,-0.26021945775,9.890732217099998,-2.5025000000000004,-0.6475000000000001,-0.42000000000000004,16.5
3.8132760524749756,-0.15912270289999997,-0.24346969954999997,9.87697348715,-2.1437500000000003,-0.5075000000000001,-0.44625000000000004,16.5
3.8187990188598633,-0.18185451760000002,-0.2644068973,9.8668039911,-2.2925000000000004,-0.58625,-0.49875,16.5
3.8242061138153076,-0.14177473905,-0.2620140747,9.85902731765,-1.8987500000000002,-0.58625,-0.25375000000000003,16.5
3.8297228813171387,-0.20817556619999997,-0.26979074815,9.842875765099999,-2.0125,-0.5162500000000001,-0.5950000000000001,16.5
3.8351669311523438,-0.15672988029999999,-0.24885355039999998,9.8799645154,-1.8112500000000002,-0.41125000000000006,-0.3325,17.5
3.8406128883361816,-0.17706887240000002,-0.26261228035,9.851848849849999,-2.4850000000000003,-0.60375,-0.4025,17.5
3.8461086750030518,-0.16809578764999997,-0.2656033086,9.880562721050001,-2.0387500000000003,-0.6825000000000001,-0.32375000000000004,17.5
3.8515727519989014,-0.17288143285000002,-0.28115665549999996,9.864411168499998,-1.8462500000000002,-0.55125,-0.5687500000000001,17.5
3.857093572616577,-0.18424734019999997,-0.2620140747,9.8668039911,-1.6362500000000002,-0.5950000000000001,-0.32375000000000004,17.5
3.8625173568725586,-0.1734796385,-0.26739792554999997,9.860223728949999,-2.1700000000000004,-0.56,-0.5775,17.5
3.867971181869507,-0.17168502154999998,-0.27337998204999997,9.86620578545,-2.23125,-0.39375000000000004,-0.5337500000000001,17.5
3.8734731674194336,-0.18664016279999998,-0.25124637299999997,9.823733184299998,-1.9075000000000002,-0.49000000000000005,-0.46375000000000005,17.5
3.8790323734283447,-0.19082760235,-0.2596212521,9.90688376965,-2.0475000000000003,-0.49000000000000005,-0.28,17.5
3.884474992752075,-0.16211373114999997,-0.2667997199,9.858429112,-1.9687500000000002,-0.5337500000000001,-0.37625000000000003,17.5
3.889961004257202,-0.16271193679999998,-0.25782663515,9.921240705249998,-2.0825,-0.31500000000000006,-0.385,17.5
3.8953709602355957,-0.16151552549999998,-0.2584248408,9.878768104099999,-2.3887500000000004,-0.5075000000000001,-0.32375000000000004,17.5
3.900942802429199,-0.18424734019999997,-0.24586252214999998,9.84227755945,-2.0300000000000002,-0.49000000000000005,-0.44625000000000004,17.5
3.906439781188965,-0.179461695,-0.2548356069,9.879366309749999,-2.2225,-0.45500000000000007,-0.43750000000000006,17.5
3.911841630935669,-0.15074782379999999,-0.24765713909999998,9.87218784195,-2.2750000000000004,-0.7087500000000001,-0.35000000000000003,17.5
3.9174177646636963,-0.17108681589999997,-0.23629123174999997,9.88415195495,-1.9775000000000003,-0.5162500000000001,-0.30625,17.5
3.922807455062866,-0.17766707805,-0.24107687694999996,9.84227755945,-2.21375,-0.7000000000000001,-0.5162500000000001,17.5
3.928215503692627,-0.16809578764999997,-0.2560320182,9.863812962849998,-2.2662500000000003,-0.5950000000000001,-0.28875,17.5
3.9336702823638916,-0.15912270289999997,-0.24406790519999996,9.8727860476,-2.205,-0.49875,-0.4025,17.5
3.939209461212158,-0.1878365741,-0.2763710103,9.91884788265,-1.9775000000000003,-0.6300000000000001,-0.37625000000000003,17.5
3.9446301460266113,-0.18005990065000002,-0.27098715944999996,9.882357337999998,-2.1350000000000002,-0.5950000000000001,-0.35000000000000003,17.5
3.950120210647583,-0.1782652837,-0.28175486115,9.882357337999998,-4.43625,-0.7875000000000001,-0.48125000000000007,16.5
3.9555680751800537,-0.1746760498,-0.26500510294999996,9.887142983199999,-2.3712500000000003,-0.8137500000000001,-0.39375000000000004,16.5
3.9611361026763916,-0.16031911419999997,-0.2667997199,9.88774118885,-2.63375,-0.77875,-0.39375000000000004,16.5
3.966610908508301,-0.19022939669999997,-0.2715853651,9.868598608049998,-2.3887500000000004,-0.44625000000000004,-0.5337500000000001,16.5
3.9720849990844727,-0.18424734019999997,-0.25543381255,9.886544777549998,-2.415,-0.5162500000000001,-0.36750000000000005,16.5
3.977588653564453,-0.16749758199999998,-0.25902304644999996,9.859625523299998,-2.45875,-0.63875,-0.49000000000000005,16.5
3.983088493347168,-0.19621145319999997,-0.25423740125,9.837491914249998,-2.31,-0.47250000000000003,-0.37625000000000003,17.5
3.9885494709014893,-0.19322042494999997,-0.2608176634,9.835697297299998,-2.6862500000000002,-0.6475000000000001,-0.35000000000000003,17.5
3.993964433670044,-0.16031911419999997,-0.26979074815,9.90090171315,-2.3712500000000003,-0.56,-0.5425000000000001,17.5
3.9995124340057373,-0.17527425545,-0.2727817764,9.8739824589,-1.9600000000000002,-0.45500000000000007,-0.42875,17.5
4.0049402713775635,-0.19322042494999997,-0.2620140747,9.8500542329,-2.63375,-0.5687500000000001,-0.5162500000000001,16.5
4.010370254516602,-0.17527425545,-0.2739781877,9.905089152699999,-2.31,-0.56,-0.14875000000000002,16.5
4.015833377838135,-0.19621145319999997,-0.25902304644999996,9.860223728949999,-2.4762500000000003,-0.8925000000000001,-0.42000000000000004,16.5
4.021398305892944,-0.1950150419,-0.25722842949999997,9.864411168499998,-2.09125,-0.55125,-0.35875,16.5
4.026807069778442,-0.16570296504999998,-0.27218357075,9.8321080634,-2.1875,-0.7262500000000001,-0.35000000000000003,16.5
4.032248020172119,-0.16749758199999998,-0.25902304644999996,9.85902731765,-1.9250000000000003,-0.6125,-0.36750000000000005,16.5
4.037799835205078,-0.18305092890000002,-0.2500499617,9.878768104099999,-0.061250000000000006,-0.74375,-0.58625,17.5
4.0432116985321045,-0.18544375149999998,-0.2679961312,9.882357337999998,-1.9250000000000003,-0.6125,-0.385,17.5
4.048687696456909,-0.1746760498,-0.28235306679999994,9.923035322199999,-2.4325,-0.665,-0.47250000000000003,17.5
4.05413556098938,-0.16749758199999998,-0.2883351233,9.857830906349998,-2.1875,-0.7000000000000001,-0.43750000000000006,17.5
4.0601115226745605,-0.17048861024999998,-0.26620151425,9.88295554365,-2.0300000000000002,-0.6475000000000001,-0.47250000000000003,17.5
4.065664529800415,-0.17288143285000002,-0.2679961312,9.86500937415,-2.1350000000000002,-0.45500000000000007,-0.30625,17.5
4.0712363719940186,-0.18424734019999997,-0.2560320182,9.85902731765,-2.02125,-0.7612500000000001,-0.3325,17.5
4.076657295227051,-0.19202401365,-0.24765713909999998,9.85304526115,-2.10875,-0.6825000000000001,-0.56,17.5
4.082096338272095,-0.14356935599999998,-0.25423740125,9.87577707585,-2.3275,-0.7962500000000001,-0.32375000000000004,17.5
4.087641000747681,-0.19381863059999999,-0.25722842949999997,9.900303507499999,-1.8462500000000002,-0.6125,-0.36750000000000005,16.5
4.093034029006958,-0.18604195715,-0.25902304644999996,9.84945602725,-2.31875,-0.4025,-0.34125000000000005,16.5
4.1015589237213135,-0.1734796385,-0.25124637299999997,9.85304526115,-2.1787500000000004,-0.7000000000000001,-0.27125000000000005,17.5
4.107091903686523,-0.17228322719999997,-0.24167508259999998,9.88893760015,-2.33625,-0.5687500000000001,-0.5425000000000001,17.5
4.112497806549072,-0.16510475939999997,-0.26859433685,9.896714273599999,-2.415,-0.6125,-0.5425000000000001,17.5
4.117956876754761,-0.19142580799999998,-0.2608176634,9.88893760015,-2.33625,-0.63875,-0.36750000000000005,17.5
4.123365640640259,-0.19082760235,-0.25423740125,9.898508890549998,-2.42375,-0.5950000000000001,-0.55125,17.5
4.1287384033203125,-0.19621145319999997,-0.27218357075,9.868598608049998,-2.1,-0.60375,-0.37625000000000003,17.5
4.1341094970703125,-0.18484554585,-0.2584248408,9.8739824589,-1.9775000000000003,-0.69125,-0.5337500000000001,17.5
4.139719247817993,-0.1782652837,-0.27457639335,9.894321451,-1.8637500000000002,-0.60375,-0.21000000000000002,17.5
4.14505934715271,-0.15672988029999999,-0.2536391956,9.910473003549999,-2.44125,-0.48125000000000007,-0.31500000000000006,17.5
4.15049934387207,-0.179461695,-0.27098715944999996,9.84227755945,-2.33625,-0.7000000000000001,-0.4025,17.5
4.155920028686523,-0.16271193679999998,-0.25543381255,9.8739824589,-2.3275,-0.6737500000000001,-0.37625000000000003,17.5
4.161416053771973,-0.1878365741,-0.2715853651,9.88534836625,-2.30125,-0.58625,-0.44625000000000004,17.5
4.1668500900268555,-0.19082760235,-0.2727817764,9.841679353799998,-1.8987500000000002,-0.60375,-0.39375000000000004,16.5
4.172284841537476,-0.19920248144999997,-0.2656033086,9.8931250397,-1.9425000000000001,-0.35000000000000003,-0.22750000000000004,16.5
4.17779278755188,-0.18963119104999998,-0.25663022385,9.863812962849998,-2.12625,-0.6300000000000001,-0.27125000000000005,16.5
4.18323278427124,-0.17228322719999997,-0.27517459899999996,9.8859465719,-2.1175,-0.7612500000000001,-0.34125000000000005,16.5
4.188688516616821,-0.16271193679999998,-0.2739781877,9.8799645154,-2.205,-0.5162500000000001,-0.49875,17.5
4.194073438644409,-0.14536397295,-0.2763710103,9.88893760015,-2.5200000000000005,-0.5775,-0.29750000000000004,17.5
4.199625492095947,-0.2009970984,-0.2727817764,9.8404829425,-2.1787500000000004,-0.63875,-0.5075000000000001,17.5
4.205074310302734,-0.1890329854,-0.27517459899999996,9.869196813699999,-2.0562500000000004,-0.6125,-0.4025,16.5
4.210554361343384,-0.18185451760000002,-0.26021945775,9.905687358349997,-1.9775000000000003,-0.6125,-0.30625,16.5
4.216137170791626,-0.18125631194999997,-0.2763710103,9.8799645154,-2.0562500000000004,-0.7000000000000001,-0.27125000000000005,16.5
4.221626043319702,-0.1890329854,-0.2596212521,9.8919286284,-1.6887500000000002,-0.49875,-0.31500000000000006,17.5
4.227144241333008,-0.17288143285000002,-0.28055844984999995,9.878169898449999,-2.10875,-0.5075000000000001,-0.48125000000000007,17.5
4.232605934143066,-0.18424734019999997,-0.23928225999999997,9.871589636299998,-1.9250000000000003,-0.7525000000000001,-0.36750000000000005,17.5
4.238066911697388,-0.20039889274999997,-0.26261228035,9.870991430649998,-2.44125,-0.6475000000000001,-0.28875,17.5
4.2434468269348145,-0.18185451760000002,-0.2548356069,9.8751788702,-4.313750000000001,-0.665,-0.28875,17.5
4.248958587646484,-0.1483550012,-0.27936203854999997,9.877571692799998,-2.3537500000000002,-0.5775,-0.32375000000000004,17.5
4.254396677017212,-0.18005990065000002,-0.24705893344999996,9.90329453575,-2.4062500000000004,-0.7087500000000001,-0.29750000000000004,17.5
4.259838581085205,-0.16689937635,-0.25722842949999997,9.88893760015,-2.19625,-0.6825000000000001,-0.30625,17.5
4.265285491943359,-0.19262221929999998,-0.2500499617,9.8979106849,-2.00375,-0.6475000000000001,-0.43750000000000006,17.5
4.270836353302002,-0.16331014244999997,-0.27517459899999996,9.88175913235,-1.7675,-0.37625000000000003,-0.34125000000000005,17.5
4.2763752937316895,-0.20039889274999997,-0.26979074815,9.905687358349997,-2.415,-0.5687500000000001,-0.5337500000000001,17.5
4.281850337982178,-0.16450655374999998,-0.26979074815,9.89013401145,-1.7500000000000002,-0.5775,-0.28875,17.5
4.287426233291626,-0.17706887240000002,-0.23449661479999998,9.86740219675,-4.38375,-0.8137500000000001,-0.4025,16.5
4.292841196060181,-0.18305092890000002,-0.24466611084999998,9.8680004024,-2.3625000000000003,-0.77875,-0.35875,16.5
4.298302173614502,-0.16749758199999998,-0.2584248408,9.8859465719,-2.1612500000000003,-0.5162500000000001,-0.39375000000000004,16.5
4.303755044937134,-0.17587246110000002,-0.2644068973,9.84706320465,-2.0650000000000004,-0.47250000000000003,-0.47250000000000003,16.5
4.30927586555481,-0.179461695,-0.26919254249999996,9.89491965665,-2.1437500000000003,-0.5687500000000001,-0.43750000000000006,16.5
4.314698696136475,-0.2009970984,-0.2608176634,9.887142983199999,-2.3712500000000003,-0.5950000000000001,-0.36750000000000005,16.5
4.320204734802246,-0.19262221929999998,-0.27517459899999996,9.8739824589,-1.9862500000000003,-0.525,-0.17500000000000002,16.5
4.325620651245117,-0.0167497582,-0.2536391956,9.919446088299999,-2.2487500000000002,-0.5075000000000001,-0.44625000000000004,16.5
4.331148386001587,-0.18185451760000002,-0.2667997199,9.8931250397,-1.9600000000000002,-0.7175,-0.35875,16.5
4.336597442626953,-0.19262221929999998,-0.24765713909999998,9.879366309749999,-2.00375,-0.805,-0.23625000000000002,17.5
4.341954469680786,-0.18723836844999997,-0.25304098994999996,9.8572327007,-2.0562500000000004,-0.60375,-0.41125000000000006,17.5
4.347583532333374,-0.16271193679999998,-0.25663022385,9.884750160599998,-2.33625,-0.665,-0.35875,17.5
4.353008270263672,-0.19142580799999998,-0.25663022385,9.8632147572,-1.9775000000000003,-0.49000000000000005,-0.43750000000000006,16.5
4.358448028564453,-0.179461695,-0.26859433685,9.8727860476,-4.41875,-0.5337500000000001,-0.5162500000000001,16.5
4.36386513710022,-0.18185451760000002,-0.2620140747,9.884750160599998,-2.4762500000000003,-0.55125,-0.5425000000000001,16.5
4.369424104690552,-0.1531406464,-0.2703889538,9.913464031799998,-2.1525000000000003,-0.4025,-0.36750000000000005,16.5
4.37491774559021,-0.18005990065000002,-0.25124637299999997,9.88415195495,-2.345,-0.43750000000000006,-0.41125000000000006,16.5
4.380366802215576,-0.17647066675,-0.27577280465,9.92004429395,-2.09125,-0.47250000000000003,-0.44625000000000004,16.5
4.385803699493408,-0.20338992099999997,-0.2608176634,9.90209812445,-2.2750000000000004,-0.34125000000000005,-0.28,17.5
4.391327619552612,-0.17288143285000002,-0.25902304644999996,9.862616551549998,-2.205,-0.41125000000000006,-0.34125000000000005,17.5
4.396759510040283,-0.16570296504999998,-0.25423740125,9.846464998999998,-1.8987500000000002,-0.665,-0.27125000000000005,17.5
4.402202606201172,-0.17647066675,-0.24705893344999996,9.88295554365,-2.415,-0.56,-0.5337500000000001,16.5
4.407711505889893,-0.19022939669999997,-0.26380869165,9.878768104099999,-2.1612500000000003,-0.525,-0.385,16.5
4.413113355636597,-0.15732808594999997,-0.2560320182,9.896714273599999,-2.0562500000000004,-0.41125000000000006,-0.34125000000000005,16.5
4.418612241744995,-0.16689937635,-0.2596212521,9.879366309749999,-2.345,-0.6562500000000001,-0.32375000000000004,17.5
4.4240381717681885,-0.18604195715,-0.2548356069,9.850652438549998,-2.19625,-0.665,-0.35000000000000003,17.5
4.4296159744262695,-0.1734796385,-0.26500510294999996,9.86740219675,-1.7937500000000002,-0.42000000000000004,-0.27125000000000005,17.5
4.435547113418579,-0.18723836844999997,-0.26859433685,9.90209812445,-2.0650000000000004,-0.665,-0.43750000000000006,17.5
4.441195011138916,-0.18484554585,-0.25782663515,9.87577707585,-2.1175,-0.5425000000000001,-0.37625000000000003,17.5
4.446645975112915,-0.1734796385,-0.25304098994999996,9.898508890549998,-1.9775000000000003,-0.6300000000000001,-0.29750000000000004,17.5
4.454985618591309,-0.19202401365,-0.2596212521,9.890732217099998,-1.9162500000000002,-0.60375,-0.43750000000000006,17.5
4.4604387283325195,-0.17766707805,-0.2536391956,9.9098747979,-2.1525000000000003,-0.43750000000000006,-0.48125000000000007,17.5
4.465883493423462,-0.19860427579999998,-0.26380869165,9.896116067949999,-2.6950000000000003,-0.7612500000000001,-0.44625000000000004,17.5
4.4714515209198,-0.179461695,-0.2739781877,9.87458066455,-1.8637500000000002,-0.5775,-0.20125,16.5
4.47683048248291,-0.20039889274999997,-0.24346969954999997,9.878768104099999,-2.1787500000000004,-0.7175,-0.5162500000000001,16.5
4.482233285903931,-0.18723836844999997,-0.25064816735,9.869795019349999,-2.8437500000000004,-0.46375000000000005,-0.46375000000000005,16.5
4.487770318984985,-0.2117648001,-0.26919254249999996,9.882357337999998,-2.1700000000000004,-0.6125,-0.36750000000000005,17.5
4.493160247802734,-0.18963119104999998,-0.26919254249999996,9.889535805799998,-1.9162500000000002,-0.4025,-0.42000000000000004,17.5
4.4985949993133545,-0.1698904046,-0.24526431649999997,9.8727860476,-2.4937500000000004,-0.805,-0.39375000000000004,17.5
4.504008054733276,-0.19860427579999998,-0.24586252214999998,9.859625523299998,-2.1700000000000004,-0.6562500000000001,-0.5337500000000001,17.5
4.5095179080963135,-0.02691925425,-0.26979074815,9.850652438549998,-2.10875,-0.58625,-0.42875,17.5
4.514925003051758,-0.18185451760000002,-0.26859433685,9.892526834049999,-2.1175,-0.7262500000000001,-0.47250000000000003,17.5
4.520415782928467,-0.18364913454999998,-0.24945175605,9.88774118885,-1.9162500000000002,-0.5425000000000001,-0.12250000000000001,16.5
4.525840759277344,-0.16809578764999997,-0.25902304644999996,9.853643466800001,-2.0475000000000003,-0.6825000000000001,-0.37625000000000003,16.5
4.531402587890625,-0.17168502154999998,-0.27577280465,9.894321451,-2.09125,-0.385,-0.35875,16.5
4.536863327026367,-0.18664016279999998,-0.2584248408,9.9086783866,-2.1875,-0.42000000000000004,-0.21875000000000003,16.5
4.542297601699829,-0.17587246110000002,-0.26739792554999997,9.896714273599999,-2.1175,-0.6825000000000001,-0.32375000000000004,16.5
4.547830581665039,-0.18245272324999998,-0.26021945775,9.8620183459,-2.3712500000000003,-0.7087500000000001,-0.36750000000000005,16.5
4.553236484527588,-0.17527425545,-0.27337998204999997,9.863812962849998,-1.9250000000000003,-0.42875,-0.36750000000000005,16.5
4.558649301528931,-0.1782652837,-0.27457639335,9.894321451,-1.9162500000000002,-0.45500000000000007,-0.35000000000000003,16.5
4.564068078994751,-0.18843477974999998,-0.2500499617,9.873384253249998,-2.1175,-0.42875,-0.41125000000000006,16.5
4.5696070194244385,-0.17886348935000002,-0.26261228035,9.87577707585,-2.1175,-0.63875,-0.45500000000000007,17.5
4.57500696182251,-0.18245272324999998,-0.2596212521,9.869795019349999,-1.9687500000000002,-0.5775,-0.385,17.5
4.5804290771484375,-0.19322042494999997,-0.24945175605,9.888339394499999,-2.1525000000000003,-0.45500000000000007,-0.47250000000000003,17.5
4.585875988006592,-0.1782652837,-0.25064816735,9.8859465719,-2.10875,-0.6825000000000001,-0.44625000000000004,17.5
4.591387748718262,-0.17647066675,-0.25543381255,9.87218784195,-2.21375,-0.6475000000000001,-0.3325,17.5
4.596818685531616,-0.16331014244999997,-0.26859433685,9.8608219346,-2.21375,-0.55125,-0.35000000000000003,17.5
4.602268695831299,-0.16689937635,-0.2679961312,9.880562721050001,-2.5200000000000005,-0.7175,-0.44625000000000004,17.5
4.607794523239136,-0.16929219894999997,-0.2656033086,9.882357337999998,-2.1350000000000002,-0.69125,-0.30625,17.5
4.613199472427368,-0.15014961815,-0.25184457865,9.89731247925,-2.1525000000000003,-0.49875,-0.44625000000000004,17.5
4.618692398071289,-0.17706887240000002,-0.25782663515,9.85424167245,-2.2487500000000002,-0.6300000000000001,-0.25375000000000003,17.5
4.624146461486816,-0.18005990065000002,-0.2739781877,9.91525864875,-1.7500000000000002,-0.58625,-0.39375000000000004,17.5
4.62965726852417,-0.17587246110000002,-0.25663022385,9.8548398781,-2.12625,-0.8662500000000001,-0.3325,17.5
4.635089159011841,-0.16689937635,-0.28235306679999994,9.9014999188,-2.0125,-0.6475000000000001,-0.42000000000000004,16.5
4.640539169311523,-0.1531406464,-0.25782663515,9.8763752815,-2.6250000000000004,-0.6300000000000001,-0.55125,16.5
4.645925045013428,-0.19262221929999998,-0.24945175605,9.8751788702,-2.3625000000000003,-0.6300000000000001,-0.525,16.5
4.651406764984131,-0.17168502154999998,-0.28534409504999997,9.886544777549998,-2.4850000000000003,-0.6562500000000001,-0.41125000000000006,16.5
4.656968832015991,-0.18424734019999997,-0.26261228035,9.882357337999998,-2.31875,-0.665,-0.37625000000000003,16.5
4.662505626678467,-0.1890329854,-0.27098715944999996,9.860223728949999,-1.5925000000000002,-0.6125,-0.37625000000000003,16.5
4.668026447296143,-0.16869399329999998,-0.24646072779999997,9.856634495049999,-2.00375,-0.55125,-0.46375000000000005,16.5
4.673471689224243,-0.179461695,-0.25722842949999997,9.86740219675,-1.8025000000000002,-0.42875,-0.27125000000000005,16.5
4.678988456726074,-0.16570296504999998,-0.24227328824999997,9.871589636299998,-1.9687500000000002,-0.48125000000000007,-0.32375000000000004,16.5
4.684453248977661,-0.18604195715,-0.26859433685,9.8799645154,-1.7587500000000003,-0.5425000000000001,-0.4025,16.5
4.689910173416138,-0.19680965884999999,-0.25423740125,9.84586679335,-2.21375,-0.6212500000000001,-0.55125,16.5
4.69532036781311,-0.18245272324999998,-0.24885355039999998,9.8572327007,-2.02125,-0.6212500000000001,-0.31500000000000006,16.5
4.700873136520386,-0.17407784415000002,-0.2739781877,9.873384253249998,-2.12625,-0.6125,-0.49875,16.5
4.706435918807983,-0.17407784415000002,-0.27577280465,9.856634495049999,-2.345,-0.6212500000000001,-0.5162500000000001,17.5
4.711879014968872,-0.18424734019999997,-0.27457639335,9.910473003549999,-1.6712500000000001,-0.34125000000000005,-0.25375000000000003,17.5
4.717455148696899,-0.18604195715,-0.2608176634,9.8500542329,-1.8725000000000003,-0.525,-0.28,17.5
4.722923040390015,-0.16869399329999998,-0.25184457865,9.86620578545,-1.9775000000000003,-0.5425000000000001,-0.35875,16.5
4.728348970413208,-0.18185451760000002,-0.2548356069,9.8799645154,-1.9075000000000002,-0.43750000000000006,-0.37625000000000003,16.5
4.7337846755981445,-0.19142580799999998,-0.2596212521,9.89970530185,-2.2925000000000004,-0.5775,-0.5687500000000001,16.5
4.73932147026062,-0.1782652837,-0.26859433685,9.823134978649998,-1.93375,-0.6125,-0.17500000000000002,16.5
4.744706392288208,-0.179461695,-0.24765713909999998,9.860223728949999,-2.1787500000000004,-0.55125,-0.27125000000000005,16.5
4.750153303146362,-0.17288143285000002,-0.2596212521,9.8859465719,-2.33625,-0.49875,-0.36750000000000005,16.5
4.75558614730835,-0.15972090854999998,-0.27098715944999996,9.863812962849998,-1.9425000000000001,-0.49875,-0.41125000000000006,16.5
4.7612974643707275,-0.14895320685,-0.23449661479999998,9.841679353799998,-2.4062500000000004,-0.45500000000000007,-0.56,16.5
4.7667622566223145,-0.19621145319999997,-0.27816562724999994,9.87577707585,-1.8375000000000001,-0.44625000000000004,-0.3325,16.5
4.772242069244385,-0.1806581063,-0.24586252214999998,9.889535805799998,-2.1350000000000002,-0.6475000000000001,-0.35000000000000003,16.5
4.777765989303589,-0.19022939669999997,-0.2584248408,9.9170532657,-2.4850000000000003,-0.6300000000000001,-0.48125000000000007,16.5
4.783175945281982,-0.19142580799999998,-0.25184457865,9.8548398781,-2.0300000000000002,-0.5337500000000001,-0.24500000000000002,16.5
4.78868293762207,-0.1746760498,-0.23688943739999999,9.87218784195,-4.41875,-0.665,-0.28875,16.5
4.7940895557403564,-0.18005990065000002,-0.27696921594999996,9.841679353799998,-2.3275,-0.47250000000000003,-0.41125000000000006,16.5
4.799645662307739,-0.17587246110000002,-0.23868405434999998,9.860223728949999,-2.33625,-0.60375,-0.34125000000000005,16.5
4.808492422103882,-0.18005990065000002,-0.25722842949999997,9.871589636299998,-2.415,-0.46375000000000005,-0.385,16.5
4.8140294551849365,-0.18185451760000002,-0.25722842949999997,9.863812962849998,-2.12625,-0.5162500000000001,-0.49875,16.5
4.819607496261597,-0.14895320685,-0.28175486115,9.904490947049998,-2.24,-0.5775,-0.44625000000000004,17.5
4.824990510940552,-0.15732808594999997,-0.26919254249999996,9.8919286284,-1.7500000000000002,-0.6212500000000001,-0.28,17.5
4.830402135848999,-0.17647066675,-0.2548356069,9.8919286284,-2.3537500000000002,-0.55125,-0.32375000000000004,17.5
4.835801362991333,-0.15852449724999998,-0.2500499617,9.8620183459,-2.33625,-0.46375000000000005,-0.34125000000000005,17.5
4.8413002490997314,-0.17228322719999997,-0.27816562724999994,9.88175913235,-2.1612500000000003,-0.69125,-0.35875,17.5
4.846698999404907,-0.1734796385,-0.2715853651,9.88893760015,-2.10875,-0.5775,-0.22750000000000004,17.5
4.852114915847778,-0.17886348935000002,-0.25782663515,9.906285564,-2.31,-0.6125,-0.49875,17.5
4.857626914978027,-0.1806581063,-0.2608176634,9.85424167245,-0.23625000000000002,-0.5075000000000001,-0.41125000000000006,17.5
4.8630359172821045,-0.17527425545,-0.2608176634,9.8919286284,-2.0387500000000003,-0.5950000000000001,-0.42875,17.5
4.8684985637664795,-0.1782652837,-0.26500510294999996,9.884750160599998,-2.0825,-0.41125000000000006,-0.41125000000000006,17.5
4.87395167350769,-0.1806581063,-0.26021945775,9.853643466800001,-2.00375,-0.31500000000000006,-0.42875,16.5
4.879470586776733,-0.17647066675,-0.26859433685,9.8751788702,-2.0825,-0.60375,-0.35875,16.5
4.88489842414856,-0.18125631194999997,-0.26021945775,9.86740219675,-1.6800000000000002,-0.46375000000000005,-0.12250000000000001,16.5
4.890370607376099,-0.19022939669999997,-0.26380869165,9.8668039911,-2.0650000000000004,-0.37625000000000003,-0.30625,16.5
4.895766258239746,-0.17168502154999998,-0.25423740125,9.90209812445,-2.2662500000000003,-0.5162500000000001,-0.41125000000000006,16.5
4.901316404342651,-0.18604195715,-0.2703889538,9.848857821599998,-2.3625000000000003,-0.48125000000000007,-0.5162500000000001,16.5
4.906768083572388,-0.18604195715,-0.25124637299999997,9.851250644199999,-2.02125,-0.6300000000000001,-0.27125000000000005,16.5
4.912163972854614,-0.18305092890000002,-0.23808584869999996,9.898508890549998,-2.2662500000000003,-0.5775,-0.32375000000000004,16.5
4.917697906494141,-0.19621145319999997,-0.2500499617,9.839884736850001,-2.65125,-0.5950000000000001,-0.5775,16.5
4.923156023025513,-0.14117653339999997,-0.2500499617,9.886544777549998,-1.9250000000000003,-0.47250000000000003,-0.29750000000000004,17.5
4.928667783737183,-0.18005990065000002,-0.26321048599999997,9.877571692799998,-1.9425000000000001,-0.58625,-0.4025,17.5
4.9340996742248535,-0.16570296504999998,-0.28534409504999997,9.841679353799998,-2.0300000000000002,-0.60375,-0.385,17.5
4.939638614654541,-0.1782652837,-0.25423740125,9.87218784195,-2.30125,-0.58625,-0.43750000000000006,16.5
4.945035696029663,-0.16630117069999997,-0.25064816735,9.878768104099999,-1.9862500000000003,-0.34125000000000005,-0.41125000000000006,16.5
4.950519561767578,-0.19680965884999999,-0.25304098994999996,9.887142983199999,-2.00375,-0.49000000000000005,-0.37625000000000003,16.5
4.956061363220215,-0.1698904046,-0.25902304644999996,9.89372324535,-2.0300000000000002,-0.5775,-0.25375000000000003,17.5
4.96148943901062,-0.18424734019999997,-0.25124637299999997,9.91286582615,-2.2487500000000002,-0.7087500000000001,-0.44625000000000004,17.5
4.966935157775879,-0.1806581063,-0.28115665549999996,9.8931250397,-2.4675000000000002,-0.5950000000000001,-0.29750000000000004,17.5
4.972342252731323,-0.19202401365,-0.25423740125,9.87577707585,-2.31875,-0.5775,-0.4025,17.5
4.9778993129730225,-0.17168502154999998,-0.25782663515,9.86740219675,-2.21375,-0.60375,-0.35875,17.5
4.983337879180908,-0.15493526335,-0.25902304644999996,9.879366309749999,-2.10875,-0.63875,-0.23625000000000002,17.5
4.988749027252197,-0.16689937635,-0.24646072779999997,9.869795019349999,-2.345,-0.60375,-0.37625000000000003,16.5
4.994151830673218,-0.16331014244999997,-0.25124637299999997,9.87697348715,-2.0562500000000004,-0.525,-0.49875,16.5
4.99967885017395,-0.15613167464999997,-0.26261228035,9.8763752815,-1.88125,-0.55125,-0.55125,16.5
5.0050928592681885,-0.1746760498,-0.26321048599999997,9.8620183459,-2.21375,-0.5162500000000001,-0.37625000000000003,17.5
5.0105156898498535,-0.17228322719999997,-0.2715853651,9.857830906349998,-2.3537500000000002,-0.5687500000000001,-0.42000000000000004,17.5
5.01604437828064,-0.16211373114999997,-0.24705893344999996,9.8799645154,-1.8550000000000002,-0.5687500000000001,-0.28,17.5
5.02153754234314,-0.18544375149999998,-0.24287149389999999,9.8452685877,-2.24,-0.5950000000000001,-0.49000000000000005,16.5
5.027058362960815,-0.1782652837,-0.26859433685,9.88295554365,-2.19625,-0.6125,-0.35000000000000003,16.5
5.032502174377441,-0.1878365741,-0.2560320182,9.8811609267,-2.1525000000000003,-0.5337500000000001,-0.5075000000000001,16.5
5.038043260574341,-0.17288143285000002,-0.2715853651,9.9098747979,-1.8462500000000002,-0.58625,-0.44625000000000004,17.5
5.043461084365845,-0.16331014244999997,-0.2524427843,9.857830906349998,-2.3975000000000004,-0.58625,-0.60375,17.5
5.0489890575408936,-0.15074782379999999,-0.2679961312,9.87458066455,-1.9862500000000003,-0.5075000000000001,-0.35000000000000003,17.5
5.054425001144409,-0.16929219894999997,-0.25304098994999996,9.84586679335,-2.415,-0.6475000000000001,-0.43750000000000006,17.5
5.0598719120025635,-0.15373885204999999,-0.2667997199,9.87577707585,-1.8550000000000002,-0.5162500000000001,-0.30625,17.5
5.065293788909912,-0.18604195715,-0.25782663515,9.863812962849998,-2.2575000000000003,-0.45500000000000007,-0.5075000000000001,17.5
5.0708396434783936,-0.18544375149999998,-0.2536391956,9.9170532657,-2.0300000000000002,-0.58625,-0.36750000000000005,16.5
5.076313734054565,-0.17108681589999997,-0.2560320182,9.8763752815,-1.9775000000000003,-0.63875,-0.48125000000000007,16.5
5.081747770309448,-0.16570296504999998,-0.24945175605,9.823134978649998,-2.2750000000000004,-0.5162500000000001,-0.35000000000000003,16.5
5.087298393249512,-0.17228322719999997,-0.2667997199,9.8560362894,-2.07375,-0.6475000000000001,-0.28875,16.5
5.0927534103393555,-0.1746760498,-0.25543381255,9.891330422749999,-2.4062500000000004,-0.6562500000000001,-0.56,16.5
5.098206520080566,-0.179461695,-0.26021945775,9.8608219346,-2.19625,-0.665,-0.39375000000000004,16.5
5.1036272048950195,-0.17228322719999997,-0.2608176634,9.88774118885,-2.23125,-0.5687500000000001,-0.35000000000000003,17.5
5.109154224395752,-0.18125631194999997,-0.2500499617,9.861420140249999,-1.8375000000000001,-0.46375000000000005,-0.48125000000000007,17.5
5.11459493637085,-0.18305092890000002,-0.24346969954999997,9.86620578545,-2.45,-0.56,-0.36750000000000005,17.5
5.120064973831177,-0.179461695,-0.2596212521,9.878768104099999,-2.7212500000000004,-0.5950000000000001,-0.55125,16.5
5.125509738922119,-0.17168502154999998,-0.2727817764,9.87218784195,-2.63375,-0.6125,-0.37625000000000003,16.5
5.1310436725616455,-0.1950150419,-0.26021945775,9.8452685877,-2.0650000000000004,-0.58625,-0.23625000000000002,16.5
5.136501789093018,-0.19561324754999998,-0.25663022385,9.8811609267,-2.415,-0.525,-0.49000000000000005,16.5
5.141909599304199,-0.15852449724999998,-0.25902304644999996,9.870393224999999,-2.45,-0.6212500000000001,-0.41125000000000006,16.5
5.1475067138671875,-0.18245272324999998,-0.24107687694999996,9.851848849849999,-2.07375,-0.525,-0.34125000000000005,16.5
5.1529436111450195,-0.17706887240000002,-0.28295127244999996,9.883553749299999,-1.88125,-0.5075000000000001,-0.21875000000000003,16.5
5.161531448364258,-0.17288143285000002,-0.23629123174999997,9.851848849849999,-2.0475000000000003,-0.58625,-0.28875,16.5
5.166947364807129,-0.16510475939999997,-0.24586252214999998,9.87458066455,-2.1,-0.58625,-0.385,16.5
5.172387361526489,-0.20757736054999998,-0.2620140747,9.8632147572,-1.9687500000000002,-0.49875,-0.42875,17.5
5.177846193313599,-0.15493526335,-0.2727817764,9.910473003549999,-2.2837500000000004,-0.42875,-0.39375000000000004,17.5
5.18322229385376,-0.15553346899999998,-0.26979074815,9.880562721050001,-2.5112500000000004,-0.58625,-0.43750000000000006,17.5
5.189131021499634,-0.17168502154999998,-0.25184457865,9.8500542329,-2.1,-0.7000000000000001,-0.34125000000000005,16.5
5.1946070194244385,-0.18843477974999998,-0.24646072779999997,9.8979106849,-1.9775000000000003,-0.69125,-0.43750000000000006,16.5
5.200289726257324,-0.18723836844999997,-0.25782663515,9.850652438549998,-1.9600000000000002,-0.6300000000000001,-0.28875,16.5
5.205790758132935,-0.17048861024999998,-0.25543381255,9.891330422749999,-2.3537500000000002,-0.7525000000000001,-0.34125000000000005,17.5
5.211300849914551,-0.15672988029999999,-0.26321048599999997,9.842875765099999,-2.23125,-0.6125,-0.5425000000000001,17.5
5.216741561889648,-0.17886348935000002,-0.26500510294999996,9.8991070962,-2.2662500000000003,-0.5775,-0.46375000000000005,17.5
5.22221040725708,-0.18664016279999998,-0.26261228035,9.88175913235,-2.02125,-0.7525000000000001,-0.3325,16.5
5.22769832611084,-0.1698904046,-0.25722842949999997,9.857830906349998,-2.07375,-0.8400000000000001,-0.5162500000000001,16.5
5.2331273555755615,-0.20039889274999997,-0.27098715944999996,9.886544777549998,-2.205,-0.58625,-0.35000000000000003,16.5
5.238579511642456,-0.17886348935000002,-0.24765713909999998,9.829715240799999,-1.8375000000000001,-0.49875,-0.35875,17.5
5.243964195251465,-0.18245272324999998,-0.24287149389999999,9.8763752815,-1.9075000000000002,-0.42875,-0.35000000000000003,17.5
5.249506950378418,-0.1950150419,-0.2548356069,9.8620183459,-2.3887500000000004,-0.8487500000000001,-0.47250000000000003,17.5
5.254939079284668,-0.16211373114999997,-0.2715853651,9.87218784195,-2.4937500000000004,-0.69125,-0.42875,16.5
5.2603819370269775,-0.17527425545,-0.2620140747,9.8500542329,-2.24,-0.525,-0.48125000000000007,16.5
5.265804052352905,-0.1579262916,-0.2596212521,9.857830906349998,-1.8725000000000003,-0.525,-0.21875000000000003,16.5
5.271354913711548,-0.16630117069999997,-0.25543381255,9.868598608049998,-2.1437500000000003,-0.6475000000000001,-0.47250000000000003,17.5
5.276797533035278,-0.18245272324999998,-0.26021945775,9.898508890549998,-2.07375,-0.665,-0.42000000000000004,17.5
5.2822277545928955,-0.15613167464999997,-0.24945175605,9.8560362894,-2.0650000000000004,-0.28,-0.46375000000000005,17.5
5.287765741348267,-0.19262221929999998,-0.26141586904999997,9.90209812445,-2.0650000000000004,-0.35000000000000003,-0.5162500000000001,16.5
5.293188571929932,-0.1698904046,-0.2703889538,9.855438083749998,-1.9600000000000002,-0.58625,-0.42875,16.5
5.298611402511597,-0.16929219894999997,-0.26500510294999996,9.877571692799998,-2.4675000000000002,-0.56,-0.55125,16.5
5.304043531417847,-0.17048861024999998,-0.24945175605,9.811769071299999,-2.0475000000000003,-0.7525000000000001,-0.30625,16.5
5.309559345245361,-0.17168502154999998,-0.23808584869999996,9.905687358349997,-2.345,-0.69125,-0.4025,16.5
5.315019130706787,-0.1782652837,-0.2787638329,9.871589636299998,-2.555,-0.805,-0.42000000000000004,16.5
5.320448160171509,-0.15852449724999998,-0.27996024419999993,9.877571692799998,-2.2487500000000002,-0.7525000000000001,-0.35000000000000003,16.5
5.325911045074463,-0.19800607015,-0.2500499617,9.8811609267,-1.9862500000000003,-0.49875,-0.30625,16.5
5.331431865692139,-0.023928225999999997,-0.2715853651,9.88534836625,-2.3712500000000003,-0.6212500000000001,-0.4025,16.5
5.336874008178711,-0.17108681589999997,-0.26859433685,9.9014999188,-2.8175000000000003,-0.5775,-0.49875,17.5
5.342275857925415,-0.17407784415000002,-0.26261228035,9.855438083749998,-2.30125,-0.49875,-0.42875,17.5
5.347785711288452,-0.16510475939999997,-0.26620151425,9.8799645154,-1.9862500000000003,-0.48125000000000007,-0.6212500000000001,17.5
5.353233575820923,-0.18125631194999997,-0.26859433685,9.8739824589,-2.30125,-0.7175,-0.35875,17.5
5.35867166519165,-0.16091731985,-0.25782663515,9.861420140249999,-2.2575000000000003,-0.7525000000000001,-0.385,17.5
5.364070415496826,-0.18424734019999997,-0.24646072779999997,9.8560362894,-2.2225,-0.5687500000000001,-0.36750000000000005,17.5
5.369664430618286,-0.16630117069999997,-0.28654050634999995,9.8452685877,-2.2225,-0.49875,-0.21875000000000003,17.5
5.37508225440979,-0.15134602945,-0.26620151425,9.904490947049998,-2.1612500000000003,-0.49000000000000005,-0.36750000000000005,16.5
