window size: 30,acc threshold: 12
time,aX,aY,aZ,gX,gY,gZ,faX,faY,faZ,fgX,fgY,fgZ,temp
0.19306516647338867,2.8193432284499997,-9.925428144799998,3.1734809732500002,-1.0150000000000001,34.09,18.585,2.377010030651667,-9.723613498678331,3.3223145389699997,-12.754875000000002,20.146583333333332,17.995833333333337,0.10298400000000005,0.46766533333333354,-0.05215000000000001,16.5,False
0.2059319019317627,2.8007988532999994,-9.981061270249999,2.7960132080999998,10.158750000000001,31.185000000000002,17.141250000000003,2.3592433228466665,-9.748678315413333,3.264547813368333,-7.108791666666668,24.421833333333332,17.942750000000004,0.10437466666666671,0.4673200000000002,-0.05215000000000001,16.5,False
0.21869611740112305,2.7134608283999992,-10.405787281750001,2.5495524802999996,9.07375,31.097500000000004,18.025000000000002,2.3666411327183337,-9.796116023458332,3.272404247571666,-6.023208333333334,24.69279166666667,18.298000000000005,0.10596133333333338,0.4671240000000002,-0.052112666666666675,16.5,False
0.23118090629577637,2.44606290285,-10.67258700165,2.4909283265999997,-2.5200000000000005,34.265,21.700000000000003,2.368196467408333,-9.855218741678332,3.2731220943516663,-5.40925,25.358083333333337,18.675416666666667,0.10726800000000006,0.4671240000000002,-0.052112666666666675,16.5,False
0.26853108406066895,3.1322047833999997,-9.98345409285,1.59182523465,-22.093750000000004,38.40375,24.736250000000002,2.3691535964483337,-9.917113086265,3.2646076339333328,-6.3271250000000006,26.265750000000004,19.221708333333332,0.10875200000000003,0.4669280000000002,-0.052108000000000015,16.5,False
0.28402209281921387,3.1728827676,-10.309476172099998,1.1210373881,-0.6475000000000001,27.685000000000002,17.0275,2.386940244441667,-9.956993462931665,3.222832939375,-7.301291666666667,26.961666666666666,19.67670833333334,0.11036666666666671,0.4668066666666668,-0.05259800000000001,15.5,False
0.3040919303894043,3.2763723450499995,-11.049456561149999,0.5359922624,-5.31125,20.973750000000003,15.645000000000001,2.4155145343233335,-10.007482019791663,3.160220748008333,-7.651000000000001,27.329166666666666,19.951166666666673,0.11240133333333337,0.4665546666666668,-0.05235066666666668,16.5,False
0.32698822021484375,3.2015966387999995,-11.459825637049999,0.9200402897,-48.09875,24.403750000000002,40.31125,2.4370898181,-10.094381360548331,3.093361296526666,-8.800458333333333,27.554333333333332,20.561041666666668,0.11463200000000004,0.4663026666666668,-0.05242066666666668,16.5,False
0.3502180576324463,4.3860438258,-9.6167540294,0.77946196195,-43.74125,25.1825,39.55875,2.4781267256900006,-10.143374403283328,3.0278777180399987,-10.426791666666668,27.984249999999996,21.78195833333334,0.1171706666666667,0.4656866666666668,-0.05240200000000001,15.5,False
0.36693811416625977,5.003990262249999,-8.7493558369,0.5497509923499999,-18.865000000000002,14.087500000000002,33.048750000000005,2.55732915375,-10.134720361546664,2.952005301431666,-11.603958333333335,28.296916666666664,22.769833333333334,0.11999866666666668,0.46494000000000013,-0.052934000000000016,16.5,False
0.38873720169067383,5.76012220385,-7.612765101899999,0.62392849295,-10.36875,13.072500000000002,26.27625,2.6834508449583336,-10.071549844906663,2.870848734914999,-11.874625000000002,28.209124999999997,23.495208333333334,0.12308800000000003,0.46406266666666685,-0.05256066666666668,16.5,False
0.4011359214782715,7.1521467514,-6.532405698,0.7351947438499999,-7.236250000000001,13.265,28.60375,2.824408036286667,-9.98772129315333,2.786481798076666,-11.893,28.060375,23.905000000000005,0.12617733333333334,0.46318533333333356,-0.05256066666666668,16.5,False
0.4135711193084717,9.73460054245,-4.0725840652,1.2861421475,3.9200000000000004,15.058750000000002,26.503750000000004,3.0216364390916666,-9.841838875306662,2.707977276608333,-11.680666666666669,27.83695833333333,24.36845833333334,0.12932266666666667,0.4623080000000002,-0.052537333333333346,16.5,False
0.4261031150817871,13.62293726745,-1.2993026717999998,1.6378870696999999,37.48500000000001,24.45625,6.3875,3.332224812571667,-9.600841759109999,2.6484757546216664,-10.80391666666667,27.728749999999994,24.428833333333337,0.132468,0.46143066666666693,-0.052537333333333346,16.5,False
0.4385852813720703,17.441283931399997,0.5802594805,1.8705890675499997,88.69000000000001,32.08625,-23.07375,3.7711681783533333,-9.285986185326664,2.6018356541100003,-8.40116666666667,27.881583333333328,23.684791666666673,0.1357906666666667,0.4605346666666669,-0.052584000000000006,16.5,False
0.4510622024536133,19.5996099166,0.8859425676499999,1.7796618087499998,124.78375000000001,25.243750000000002,-58.48500000000001,4.350311008306666,-8.912925201798334,2.5513470972500008,-4.463958333333338,28.20825,21.754833333333337,0.13911333333333334,0.4596386666666669,-0.052584000000000006,16.5,False
0.46358203887939453,19.5996099166,0.36729826909999996,2.8983063742499997,108.57875000000001,-11.016250000000001,-96.40750000000001,4.9335415768683335,-8.54586621495833,2.509193539113334,0.0740833333333299,27.814208333333333,18.467750000000006,0.14233333333333334,0.4585280000000002,-0.052584000000000006,16.5,False
0.4761321544647217,19.5996099166,0.16211373114999997,4.90468812435,48.41375000000001,-44.6075,-125.04625000000001,5.512205842301667,-8.204370549561666,2.5063420921816673,3.2424583333333317,26.050499999999996,13.93729166666667,0.145236,0.45826666666666693,-0.05213600000000001,16.5,False
0.48862719535827637,19.5996099166,-1.53798672615,5.611168996999999,-10.526250000000001,-66.36875,-121.16125000000001,6.088337703816667,-7.881818063081666,2.5671397264100007,4.313749999999998,23.408875000000002,8.870750000000003,0.14813866666666667,0.45800533333333354,-0.05213600000000001,15.5,False
0.5011241436004639,19.5996099166,-2.1068802992999998,5.3814580274,-31.998750000000005,-86.83500000000001,-72.86125000000001,6.659424697683334,-7.6280592263516676,2.644587417896667,3.7989583333333323,20.061124999999997,4.457541666666667,0.15050933333333333,0.45766933333333354,-0.05190733333333334,16.5,False
0.5136630535125732,19.5996099166,1.4386845882499997,3.1800612353999997,-10.57,-102.73375000000001,-11.22625,7.227680184806667,-7.3519274983116665,2.6906891333233336,3.1115,16.063541666666666,2.1163333333333347,0.15268400000000001,0.4575293333333335,-0.05190733333333334,16.5,False
0.5262901782989502,19.5996099166,11.294720877649999,-0.9212367009999999,5.477500000000001,-106.34750000000001,-56.48125,7.797012442100001,-6.879923300273333,2.6393232081766667,3.372541666666667,11.649749999999996,1.011791666666664,0.15431733333333333,0.4575853333333335,-0.05181866666666668,16.5,False
0.539074182510376,19.5996099166,18.713069143299997,-6.0071811373,-105.14000000000001,-111.48375000000001,-242.20000000000002,8.367541110693333,-6.0693945249,2.4087548104783334,3.0275000000000003,7.346499999999995,-3.2946666666666706,0.15595066666666665,0.45764133333333346,-0.05181866666666668,16.5,False
0.5519042015075684,17.78046653495,13.689338094599998,3.9888352742,-286.72,-150.29875,-286.72,8.943154527311666,-5.105186718041667,2.09228408144,-3.602958333333333,2.2120000000000015,-13.570375000000002,0.15696800000000002,0.45741733333333345,-0.05219200000000001,16.5,False
0.5645220279693604,-19.03191275475,18.616159828,19.476977758349996,-219.85250000000002,-75.73125,-241.73625,9.10923635594,-4.366442620668333,2.3497717333883323,-12.901000000000002,-3.7899166666666693,-23.898875000000007,0.15798533333333334,0.4572773333333334,-0.05219200000000001,16.5,False
0.5770692825317383,-19.5996099166,17.220546046549998,8.573483375799999,12.451250000000002,165.52375,-231.43750000000003,8.379545104069999,-3.3715269237766656,2.8721847275333325,-16.720666666666666,-4.984291666666669,-32.012750000000004,0.1564546666666667,0.4562693333333333,-0.053209333333333345,16.5,False
0.5898871421813965,-19.5996099166,4.75752953445,-12.8291183699,4.0600000000000005,132.19500000000002,-286.72,7.648178876379999,-2.736990250633332,2.636990206141666,-14.833,0.2928333333333332,-42.31558333333333,0.15492399999999998,0.4552613333333333,-0.053209333333333345,16.5,False
0.602445125579834,-19.5996099166,-3.4480573665999996,-9.981061270249999,-245.81375000000003,-65.87,-286.72,6.912046943678333,-2.378924288731665,2.0351753820533323,-16.368333333333336,0.5355000000000004,-52.73975,0.1531506666666667,0.4532826666666666,-0.05336800000000001,16.5,False
0.6158180236816406,-19.5996099166,-10.823334825449999,0.7441678286,-286.72,-67.87375,-286.72,6.17276446122,-2.1785453361699973,1.7705292024933326,-25.468625,-4.051541666666667,-63.144958333333335,0.1513773333333334,0.45130399999999987,-0.05336800000000001,15.5,False
0.6284942626953125,-19.5996099166,-19.5996099166,2.23070886885,-164.82375000000002,13.982500000000002,-286.72,5.433342397443332,-2.502114772254998,1.741237065831666,-34.64183333333334,-6.386916666666667,-73.49154166666668,0.14633733333333337,0.4478413333333332,-0.05430133333333335,15.5,False
0.6410403251647949,-19.5996099166,-19.5996099166,-15.1286208885,274.08500000000004,89.075,88.58500000000001,4.680081842963333,-2.827837748679999,1.5790834543049996,-35.92429166666667,-5.955541666666666,-81.767875,0.14129733333333336,0.44437866666666653,-0.05430133333333335,16.5,False
0.6534054279327393,-19.5996099166,-13.3112721238,-19.5996099166,286.67625000000004,-49.49,286.67625000000004,3.9321453187683337,-3.1505896370433324,0.825264574551666,-26.478958333333335,-4.843708333333333,-72.87116666666665,0.13541733333333336,0.4398146666666666,-0.05481466666666668,16.5,False
0.6661262512207031,-16.04208091605,10.867602043549997,-6.3696937612,52.447500000000005,-196.07875,286.67625000000004,3.2220353318416666,-2.8125635644166658,0.08089734406833292,-17.31070833333334,-10.408999999999999,-63.879083333333334,0.12934133333333336,0.4351013333333332,-0.05481466666666668,16.5,False
0.6787512302398682,-16.084553517199996,6.062814262749999,8.13559684,-250.69625000000002,-130.78625000000002,225.74125,2.6125834156216667,-2.15150644079,0.00378863578333332,-21.290208333333336,-17.70270833333333,-55.16379166666666,0.12446933333333336,0.4327866666666666,-0.053718000000000016,16.5,False
0.6913154125213623,-16.53141313775,0.8913264184999999,13.4177527295,-219.94875000000002,-60.182500000000005,231.48125000000002,2.001795506783333,-1.715235060245,0.28406792299666633,-29.616708333333335,-22.19233333333333,-48.6955,0.11942000000000003,0.43066799999999994,-0.053718000000000016,16.5,False
0.7039833068847656,-15.52283841185,-2.39222439435,13.87298722915,-60.165000000000006,-23.852500000000003,262.605,1.3389836465833336,-1.3782458774116664,0.6979065916666662,-34.04537500000001,-25.088874999999998,-41.40820833333332,0.11396000000000002,0.42814800000000003,-0.054077333333333345,16.5,False
0.7197861671447754,-11.735000236049999,-2.5986053435999996,12.357134112049998,3.6662500000000002,25.43625,271.41625000000005,0.7312864669366663,-1.1439686046833335,1.1192427711499993,-34.72408333333333,-26.209458333333334,-32.924791666666664,0.10808000000000001,0.4257586666666668,-0.054077333333333345,16.5,False
0.7322523593902588,-6.620341928549999,-1.11086789205,9.92482993915,-7.1137500000000005,42.14,212.82625000000002,0.2921636394600006,-0.8288139280750001,1.4787244864233329,-33.632375,-25.798208333333335,-25.326291666666684,0.10312400000000001,0.42361200000000016,-0.05387200000000001,15.5,False
0.7448093891143799,-3.3008987767,-2.33240382935,6.934399894799999,-28.7525,53.313750000000006,167.48375000000001,-0.004486542375000162,-0.505423953685,1.743749529561666,-32.47008333333334,-25.109583333333333,-20.288333333333345,0.09773866666666667,0.4217826666666668,-0.05387200000000001,15.5,False
0.7570881843566895,-1.4554343464500001,-4.106681787249999,3.93439856005,-61.81875000000001,52.9025,147.41125000000002,-0.24426730708333325,-0.29740790899166664,1.9118054368349997,-32.56662500000001,-24.058124999999997,-16.251375000000007,0.09305333333333334,0.4203826666666668,-0.05413800000000001,16.5,False
0.7695901393890381,-0.68614188055,-4.97886562495,3.3373893213500003,-82.60875000000001,36.540000000000006,143.71875,-0.4676971173583331,-0.18600207677333352,2.0041484490066663,-34.41579166666667,-22.882416666666664,-12.511916666666673,0.08810666666666664,0.41911333333333345,-0.05413800000000001,16.5,False
0.7819702625274658,1.2442677519999998,-3.1489545415999998,4.6145583840999995,-75.495,17.0275,147.65625,-0.6781059846516665,-0.09118648124833309,2.1075981460799995,-36.90166666666667,-22.40554166666666,-8.503541666666674,0.08401866666666663,0.41748933333333343,-0.05445066666666668,16.5,False
0.7946422100067139,5.090131875849999,-0.26739792554999997,5.8707902491,-39.978750000000005,15.995000000000001,127.82000000000001,-0.8615756575066665,0.03960121403000025,2.253121640536666,-38.959375,-22.348666666666663,-4.660833333333334,0.07981866666666665,0.41590266666666675,-0.05445066666666668,16.5,False
0.8070251941680908,8.63270573515,-0.01734796385,5.2390850827,-1.33875,28.577500000000004,85.16375000000001,-1.0070592715866664,0.15088740511833318,2.3924836167983323,-40.344208333333334,-22.275166666666664,-1.453958333333336,0.07612266666666666,0.4139893333333334,-0.05467000000000001,16.5,False
0.8196752071380615,11.638090920749997,-3.3146575066499997,3.7184463204,21.14,39.89125000000001,54.83625000000001,-1.1827522709916667,0.14412768127333303,2.479721940756667,-42.016041666666666,-22.104541666666666,1.0403750000000012,0.07224933333333333,0.41209466666666666,-0.05467000000000001,16.5,False
0.832207202911377,12.403794152749999,-5.795416337199999,2.3838495152499997,3.7362500000000005,36.478750000000005,50.17250000000001,-1.411665633058333,-0.04448656017166662,2.516511588231667,-44.83587499999999,-21.767958333333336,3.94829166666666,0.06926266666666668,0.4103866666666667,-0.054604666666666676,16.5,False
0.8447964191436768,11.91924757625,-6.827321083449999,2.7828526837999994,-19.836250000000003,10.902500000000002,62.142500000000005,-1.6580266599166662,-0.2840479828083333,2.5103301298483336,-49.19658333333332,-21.2555,8.21741666666666,0.066276,0.4086786666666667,-0.054604666666666676,16.5,False
0.8572282791137695,11.6267250134,-5.401198813849999,4.5409790891499995,-10.00125,-19.71375,70.79625,-1.9153149099816664,-0.5095715128583335,2.5077578455533334,-52.72049999999999,-20.381958333333333,14.151958333333333,0.0637,0.40610266666666667,-0.05430133333333335,16.5,False
0.8701140880584717,12.7214413529,-5.3491549222999994,6.370291966849999,38.24625,-40.52125,66.97250000000001,-2.1764117360183337,-0.6797011997183333,2.4933211492,-53.28312499999998,-19.619541666666667,20.711250000000003,0.061124,0.4035266666666667,-0.05430133333333335,16.5,False
0.8826732635498047,12.5096765528,-5.681757263700001,7.785048329099999,61.24125000000001,-35.77875,60.611250000000005,-2.4020947875750007,-0.7924829049316664,2.531406908916667,-50.698374999999984,-18.616791666666664,26.484500000000004,0.05929466666666669,0.4010533333333334,-0.05395600000000001,16.5,False
0.8952550888061523,11.329416805349998,-6.27816829675,8.39820912035,35.472500000000004,-4.576250000000001,44.52875,-2.6460829320216677,-0.9293124772749997,2.6399214138266673,-47.94241666666665,-16.38437499999999,29.897874999999996,0.05746533333333335,0.3985800000000001,-0.05395600000000001,16.5,False
0.9079375267028809,9.812965482600001,-6.5916280573499995,8.2767733734,-16.35375,28.148750000000003,33.90625,-2.9289943240950014,-1.2904492281799997,2.8466812266550003,-47.437249999999985,-12.558874999999997,31.61433333333333,0.055981333333333355,0.39620000000000016,-0.05432466666666668,16.5,False
0.920485258102417,8.08953500495,-7.496115000149999,7.081558484699999,-51.83500000000001,40.6,24.622500000000002,-3.2780473208700016,-2.0134804571466662,3.2169107034400004,-47.95174999999998,-7.986125000000004,36.241333333333344,0.054497333333333356,0.3938200000000001,-0.05432466666666668,16.5,False
0.9330382347106934,7.56550685555,-7.331608446399999,6.134598940749999,-37.7475,24.990000000000002,22.23375,-3.668137225235001,-2.8928028822700003,3.624986657681667,-42.90008333333331,-2.550625000000004,46.57625,0.05394666666666668,0.3915520000000001,-0.054380666666666674,16.5,False
0.9456472396850586,7.185048062149999,-6.8697936846,5.845665611799999,10.535,2.6775,21.6825,-3.663092357586667,-3.532284722120001,3.430789163503334,-34.13783333333334,2.96975,56.872958333333344,0.053396,0.38928400000000013,-0.054380666666666674,16.5,False
0.9582793712615967,6.57128906525,-6.9212393704999995,5.843272789199999,54.32000000000001,-11.602500000000001,20.72875,-2.7768706273000014,-4.416731775645,2.9762326302566664,-29.091708333333333,2.8093333333333335,64.86695833333334,0.05534666666666667,0.3876600000000001,-0.05460000000000001,16.5,False
0.9713945388793945,6.26500777245,-7.15035213445,5.9060843824500004,76.61500000000001,-15.225000000000001,22.855,-1.907259073895001,-4.944568501016666,3.280001459326667,-28.35641666666667,-4.196208333333338,74.99683333333333,0.05729733333333334,0.38603600000000005,-0.05460000000000001,16.5,False
0.9839072227478027,5.611168996999999,-7.4943203832,5.799005571099999,71.89,-9.406250000000002,23.738750000000003,-1.0536794319100002,-5.20690161873,3.9545979708316668,-23.751875,-6.181291666666671,85.337,0.05964933333333334,0.3856906666666668,-0.05441800000000001,15.5,False
0.9965312480926514,4.97886562495,-7.677969517749999,5.732604743949999,52.99875000000001,4.62,23.79125,-0.220957226921667,-5.328317425491666,4.297668911106667,-11.977291666666668,-3.03479166666667,95.68970833333331,0.06200133333333335,0.38534533333333343,-0.05441800000000001,15.5,False
1.0090854167938232,4.8957150396,-7.908278692999999,5.252843812649999,24.63125,18.427500000000002,18.76875,0.5961717507899997,-4.933740978751668,4.403252208331667,-1.0190833333333285,-1.593666666666669,106.01062499999996,0.06729333333333334,0.38710000000000006,-0.05366200000000001,16.5,False
1.0216293334960938,4.840680119799999,-7.98903645575,4.322035821249999,9.96625,19.906250000000004,12.110000000000001,1.4175280484283341,-4.538666027303333,4.611846518486667,1.1471250000000064,-2.4914166666666713,114.1390833333333,0.07258533333333334,0.3888546666666667,-0.05366200000000001,16.5,False
1.0340852737426758,5.031507722150001,-8.2229348649,3.5682967022499996,10.106250000000001,9.520000000000001,7.32375,2.236491523466667,-4.15405967473,5.398387247295001,-8.136625000000006,-4.106958333333336,104.99329166666664,0.07845600000000001,0.39186000000000004,-0.05384400000000001,16.5,False
1.046635389328003,5.310869760699999,-8.2277205101,3.4157542615,23.3275,-4.296250000000001,9.432500000000001,3.0187251715950003,-4.428336965254999,6.167121387921665,-17.21504166666666,0.5763333333333319,95.66695833333331,0.08432666666666669,0.39486533333333335,-0.05384400000000001,16.5,False
1.05906343460083,5.14038115045,-7.89451996305,3.6041890412499997,38.447500000000005,-12.8625,10.797500000000001,3.7120455199449993,-5.009832737431666,6.2740606179533325,-12.425583333333334,6.540041666666666,86.66379166666665,0.08929200000000001,0.3956026666666667,-0.05391400000000001,16.5,False
1.0716493129730225,4.8957150396,-8.097311678399999,3.8668013215999997,48.63250000000001,-15.085,11.217500000000001,4.402035856843332,-5.356931595749999,6.038228010534999,-1.8619999999999992,9.140250000000004,79.6985,0.09425733333333336,0.39634,-0.05391400000000001,16.5,False
1.08414626121521,4.995615383149999,-8.402994765549998,4.290929127449999,57.86375,-8.085,15.610000000000001,5.125366188635001,-5.633242785484999,5.710391374146666,4.862958333333334,10.338125000000003,72.06033333333333,0.09957733333333336,0.39755333333333337,-0.05352200000000001,16.5,False
1.0966904163360596,4.8957150396,-8.5495551498,4.024129407549999,73.31625000000001,-1.12,20.92125,5.782734377420001,-5.802335582551666,5.401557737239999,7.67579166666667,10.448375000000004,63.63875,0.10489733333333337,0.39876666666666677,-0.05352200000000001,16.5,False
1.1092264652252197,4.79820751865,-8.6428752312,3.5940195451999997,86.5725,-1.6975000000000002,17.211250000000003,6.284708678523334,-6.007001675604999,5.145765001300001,10.242750000000003,9.43016666666667,55.86233333333334,0.10894800000000004,0.4000453333333335,-0.053307333333333345,16.5,False
1.1353254318237305,4.9459643142,-9.32782070045,2.5950161097,104.16875,-23.695000000000004,6.2475000000000005,6.628995970286668,-6.256273969959998,4.959982266598334,13.774541666666668,7.805000000000003,49.89366666666667,0.11307333333333339,0.4016506666666667,-0.05295733333333334,16.5,False
1.1479322910308838,4.555934230399999,-9.647860723199999,2.9443682093,102.43625000000002,-29.925000000000004,8.041250000000002,6.879384915188335,-6.4670417606433315,4.856492689148334,18.66316666666667,5.061874999999999,44.793000000000006,0.11620933333333339,0.4029573333333334,-0.05295733333333334,16.5,False
1.1605134010314941,4.0103706776,-10.48594683885,3.7310086390499997,94.04500000000002,-22.400000000000002,19.433750000000003,7.049853585250001,-6.647480524871665,4.849812726056667,24.346875,2.4829583333333316,40.350625,0.11919600000000005,0.40477733333333343,-0.052411333333333344,16.5,False
1.1730663776397705,3.6095728921,-10.5188481496,4.091726646,76.93875000000001,-9.843750000000002,35.542500000000004,7.182017153523335,-6.843253293928332,4.857449818188333,30.069083333333335,0.9239999999999995,36.365291666666664,0.12132400000000006,0.4069520000000001,-0.052411333333333344,16.5,False
1.18562650680542,3.4007991202499994,-10.612168230999998,3.9565321691,63.315000000000005,3.0187500000000003,38.823750000000004,7.214001215610001,-7.135357112823332,4.817549501333333,34.70045833333334,0.2788333333333325,32.749208333333335,0.12352666666666674,0.4093600000000001,-0.05202400000000001,15.5,False
1.1983232498168945,3.86500670465,-10.18804042515,3.409772205,54.43375,8.14625,42.11375,7.093303255628333,-7.503452989456665,4.755794738064998,37.59641666666667,-0.21262500000000017,30.202083333333338,0.1252253333333334,0.4120946666666668,-0.05202400000000001,15.5,False
1.2110145092010498,4.414757697,-9.18305493315,2.8606194183,46.243750000000006,6.378750000000001,43.120000000000005,6.898846539001668,-7.800880838636666,4.710231407723332,39.023541666666674,-1.0167499999999998,29.203708333333335,0.1269240000000001,0.41482933333333344,-0.051585333333333344,15.5,False
1.223501443862915,4.6887358847,-8.16131968295,2.7786652442499995,38.316250000000004,2.3625000000000003,42.58625000000001,6.632505443433334,-7.9306914646866655,4.70452851386,39.74483333333334,-2.3347916666666673,28.935375000000004,0.1279413333333334,0.41776933333333344,-0.051585333333333344,16.5,False
1.2360754013061523,4.43689130605,-7.552346331249999,3.1800612353999997,42.980000000000004,5.5825000000000005,46.6375,6.379165350658334,-7.979923789681665,4.738725936851666,41.29795833333334,-3.1844166666666665,28.623583333333332,0.12895866666666675,0.4207093333333333,-0.051585333333333344,16.5,False
1.2488374710083008,3.792623821,-6.942774773899999,2.1714865095,28.848750000000003,7.51625,48.42250000000001,6.127460353326667,-8.003333570784998,4.737250362915,43.57675000000001,-2.8005833333333334,27.981333333333335,0.1302093333333334,0.4235,-0.05161800000000001,16.5,False
1.2613842487335205,4.6211386462499995,-7.503891673599999,2.6111676622499997,8.443750000000001,18.0075,37.572500000000005,5.880381479688333,-8.074081358991664,4.668516533729999,44.20937500000001,-1.4087500000000002,27.134333333333338,0.13146000000000005,0.42629066666666665,-0.05161800000000001,16.5,False
1.2741563320159912,4.84965320455,-8.12542734395,3.2327033326,7.32375,26.2325,33.73125,5.598566797973334,-8.110890946655,4.518047872566666,42.44391666666668,0.7892499999999997,26.055750000000003,0.1327293333333334,0.42918400000000007,-0.05089466666666668,16.5,False
1.2867193222045898,4.55294320215,-7.80119988165,3.146561719,6.763750000000001,17.517500000000002,33.32875000000001,5.33994255529,-8.211150213594998,4.357728758366665,40.859875,2.535166666666667,25.24608333333334,0.1339986666666667,0.43207733333333337,-0.05089466666666668,16.5,False
1.299257516860962,5.0644090329,-7.779664478249999,3.72024093735,5.0925,19.906250000000004,29.268750000000004,5.139982346683334,-8.268478255053331,4.1978682684983335,40.524750000000004,2.826250000000001,24.964625000000005,0.13593066666666673,0.43479333333333336,-0.05136133333333334,15.5,False
1.3120465278625488,5.0691946781,-8.01057185915,3.91286315665,6.43125,23.905,30.590000000000003,5.00159743965,-8.288318742444996,4.057688744515,41.66779166666667,2.3275,24.913000000000004,0.13786266666666672,0.43750933333333336,-0.05136133333333334,15.5,False
1.3245375156402588,4.970490745849999,-7.837092220649999,3.5437702705999996,10.613750000000001,29.172500000000003,33.15375,4.907041066573333,-8.30490897913833,3.966721605338333,43.698666666666675,1.9331666666666674,25.19241666666667,0.13938400000000004,0.44056133333333336,-0.05113266666666668,16.5,False
1.3369944095611572,4.8586262893,-8.17567661855,2.9144579268,10.010000000000002,28.988750000000003,27.9125,4.824847610263333,-8.327501212519998,3.8827534722666663,44.86825000000001,2.361333333333333,25.531625000000005,0.14090533333333335,0.4436133333333334,-0.05113266666666668,16.5,False
1.3501694202423096,4.9986064114,-8.32642444235,2.2923240507999996,9.135000000000002,24.42125,23.590000000000003,4.752006102281666,-8.371708610054998,3.7722648887116668,44.28491666666668,3.4830833333333335,25.672500000000007,0.14292133333333334,0.4467213333333334,-0.05131466666666668,16.5,False
1.3628106117248535,5.124229597899999,-8.034500085149999,1.8227326155499997,-0.49875,14.560000000000002,18.567500000000003,4.7005205360049995,-8.413303842918332,3.6465818816466666,42.36866666666668,4.672791666666668,25.728500000000004,0.14493733333333333,0.44982933333333347,-0.05131466666666668,16.5,False
1.3752574920654297,4.7916272565,-8.0506516377,1.95673068115,-12.845,12.031250000000002,10.955000000000002,4.671088818025,-8.439066566244998,3.515335562036667,39.49400000000002,5.536125000000001,25.460166666666677,0.14696266666666666,0.45255466666666677,-0.05120266666666668,15.5,False
1.4016034603118896,4.25623319975,-8.190033554149998,2.4681965119,-4.103750000000001,23.6075,21.743750000000002,4.6424945879549995,-8.45936567796833,3.3931620281183337,37.06179166666668,6.346958333333335,25.244333333333348,0.14902533333333334,0.4553546666666668,-0.05111866666666667,16.5,False
1.4230895042419434,4.204189308199999,-7.9166535721,2.3246271558999996,-25.480000000000004,33.792500000000004,16.091250000000002,4.621756792088333,-8.47126997040333,3.287439149575,35.44450000000002,6.9387500000000015,25.20408333333334,0.15097600000000003,0.45763200000000015,-0.05111866666666667,16.5,False
1.442392349243164,4.1718862031,-7.9669028467,2.09192515805,-47.127500000000005,31.753750000000004,4.5062500000000005,4.590570337535,-8.476992804454998,3.2005198686299994,33.73154166666668,7.359625000000002,25.062625000000008,0.15324400000000002,0.46003066666666675,-0.05127733333333335,16.5,False
1.4702894687652588,3.6741791022999997,-7.5792655855,2.3539392327499997,-62.17750000000001,28.708750000000002,0.9275000000000001,4.562813595375001,-8.470093499291663,3.1366713855866664,31.73245833333334,7.811125000000001,24.79516666666667,0.155792,0.46200933333333344,-0.05163200000000001,16.5,False
1.490196704864502,3.5330025689,-6.882356003249998,2.3341984463,-64.1025,32.313750000000006,2.9662500000000005,4.512404799268333,-8.44405161332833,3.101596594308333,29.162875000000017,8.662791666666669,24.711750000000002,0.15852666666666668,0.4639413333333334,-0.05170200000000001,15.5,False
1.5090584754943848,3.59222492825,-5.5830533314499995,2.0111673952999998,-64.88125000000001,33.5125,-4.64625,4.467180452128334,-8.391549097446664,3.0608388493549996,26.004125,10.045000000000003,24.423583333333337,0.1613266666666667,0.4652480000000001,-0.05196333333333335,16.5,False
1.5315325260162354,4.3238304382,-5.65603442075,1.5224333792499998,-57.618750000000006,26.74875,-19.78375,4.440261197878333,-8.320621847544997,2.9946174838999995,22.4875,11.521708333333338,23.513583333333326,0.16401466666666673,0.46623733333333345,-0.05185600000000001,16.5,False
1.544095516204834,4.135395658449999,-5.428716273749999,1.58464676685,-52.71875000000001,22.00625,-28.192500000000003,4.424289107023332,-8.23156896644833,2.912703190226666,18.872,12.828083333333336,22.357416666666666,0.16662800000000005,0.4670773333333334,-0.05185600000000001,16.5,False
1.5567524433135986,4.0139599115,-5.67398059025,1.6977076346999997,-49.63875,21.586250000000003,-35.86625,4.400659983848333,-8.127301721653332,2.8249663615599996,15.00508333333333,13.681500000000003,20.70308333333333,0.16948400000000005,0.4676373333333334,-0.051996000000000014,16.5,False
1.5693137645721436,3.5784661982999997,-6.04965373845,1.6767704369499998,-55.650000000000006,25.515000000000004,-37.695,4.365166448614999,-8.037850036789997,2.7533412050666666,10.720500000000008,14.376541666666672,18.764666666666663,0.1724893333333334,0.46788933333333343,-0.051996000000000014,16.5,False
1.5818536281585693,4.1012979364,-6.1106707147499995,1.36809632155,-75.03125000000001,35.20125,-39.34875,4.328695844153333,-7.9559357431166635,2.6962723860566666,5.6729166666666675,15.396500000000005,16.97470833333333,0.1751493333333334,0.4681320000000001,-0.05257466666666668,16.5,False
1.5946767330169678,4.667200481299999,-5.8133625067,0.73280192125,-100.35375,41.99125,-44.056250000000006,4.309134519398333,-7.8403823517249975,2.6441886141300004,-0.642541666666673,17.61608333333334,15.428874999999996,0.1778093333333334,0.46837466666666683,-0.05257466666666668,16.5,False
1.6104495525360107,4.77069005875,-5.726622687449999,0.48335016519999996,-115.50000000000001,43.321250000000006,-53.847500000000004,4.326362842118333,-7.701738222243331,2.5567907686650004,-7.560583333333331,20.042166666666667,13.509416666666658,0.18078666666666676,0.4675440000000002,-0.052752000000000014,16.5,False
1.6230576038360596,4.718646167199999,-5.958726479649999,0.8823533337499999,-109.1825,42.691250000000004,-55.825,4.356831449891667,-7.544130973656664,2.443729900815,-14.331333333333333,22.08791666666667,10.816166666666659,0.18376400000000007,0.4667133333333336,-0.05394666666666668,16.5,False
1.63578462600708,4.3010986235,-6.1519469046,0.78783684105,-84.77000000000001,41.291250000000005,-50.846250000000005,4.396911228441666,-7.391169788951664,2.3417158973016665,-20.15854166666667,23.631416666666667,7.793624999999993,0.18655466666666673,0.4651826666666669,-0.053260666666666685,15.5,False
1.64837646484375,4.10309255335,-6.310471401849999,0.23988046564999999,-59.86750000000001,35.21875,-47.59125,4.431148531809999,-7.243432933589998,2.2352552317899996,-24.68258333333334,24.779416666666666,4.788583333333324,0.1893453333333334,0.46365200000000023,-0.053260666666666685,16.5,False
1.6609854698181152,4.29212553875,-7.049853585249999,-0.10947163395000001,-47.258750000000006,24.66625,-40.95875,4.435036868534999,-7.138607363521666,2.1366310602933325,-28.232750000000003,25.564,1.831958333333336,0.1921733333333334,0.46183200000000024,-0.05354066666666668,16.5,False
1.6734764575958252,5.048257480349999,-7.2083780824999995,-0.107677017,-36.81125,13.291250000000002,-35.245000000000005,4.433242251584998,-7.086124787828333,2.0436100817183327,-31.114125000000005,26.105625,-0.8948333333333366,0.19479600000000005,0.45962000000000014,-0.05354066666666668,16.5,False
1.6861305236816406,5.672784178949999,-6.9816581411500005,0.35593236175,-17.70125,5.398750000000001,-32.52375,4.454259210088332,-7.060062961676666,1.946880228113333,-33.464666666666666,26.35995833333333,-3.502333333333337,0.19737200000000005,0.4570440000000001,-0.05358266666666668,16.5,False
1.6986095905303955,5.83549611575,-7.252645300599999,0.8841479507,4.6375,5.608750000000001,-30.6075,4.500201404008331,-7.050372030146665,1.8602002294283329,-35.32054166666667,26.18058333333333,-6.156208333333334,0.19962133333333337,0.4546360000000001,-0.05358266666666668,16.5,False
1.7111575603485107,5.7631132321,-7.6827551629499995,0.53539405675,16.065,12.110000000000001,-30.406250000000004,4.549513489756666,-7.042854579144999,1.7969100716583326,-35.776125,26.07704166666667,-8.657541666666669,0.20168400000000003,0.45241466666666674,-0.053466000000000014,16.5,False
1.7234845161437988,5.575874863649999,-8.24985411915,0.52462635505,7.393750000000001,19.626250000000002,-28.708750000000002,4.592345014296666,-7.085327180294998,1.7339588970899995,-35.29516666666667,25.840500000000002,-10.796625000000002,0.20351333333333335,0.4500626666666668,-0.053466000000000014,16.5,False
1.7359166145324707,5.7834522241999995,-8.146962747349999,0.30209385325,-13.273750000000001,24.255000000000003,-27.8775,4.626901360678334,-7.077032061948333,1.635753469548333,-35.555333333333344,25.737833333333338,-12.798916666666665,0.20548266666666667,0.44719733333333345,-0.05352666666666668,16.5,False
1.7484936714172363,6.658028884499998,-7.307082014749999,0.38703905555,-18.585,21.262500000000003,-27.18625,4.657290207698333,-7.073721990684999,1.530229992888333,-36.38162500000001,25.98108333333333,-14.778166666666667,0.20698533333333333,0.44422,-0.05352666666666668,16.5,False
1.7610106468200684,7.9238320399,-6.542575194049999,0.9164510557999999,2.1875,15.085,-31.001250000000002,4.727798713644999,-7.047879506604999,1.423869028318333,-36.94075000000001,25.972041666666662,-16.70491666666667,0.20847866666666667,0.44145733333333337,-0.05354533333333335,15.5,False
1.773939609527588,8.877371845999999,-6.4139609793,1.6761722312999998,53.795,13.650000000000002,-29.557500000000005,4.836751902698333,-6.996732923529999,1.3369098669966668,-36.526875000000004,25.53979166666666,-18.798499999999997,0.21006533333333338,0.4385266666666667,-0.05354533333333335,16.5,False
1.786454677581787,9.94277610865,-6.51745055675,1.99262302015,100.37125,20.8075,-19.94125,4.98293342337,-6.953083851268332,1.28638142976,-34.576208333333334,25.061166666666665,-20.772791666666667,0.2116053333333334,0.435764,-0.05334466666666668,16.5,False
1.7990837097167969,11.24925724825,-6.03529680285,1.81435773645,129.5525,32.182500000000005,-8.365,5.1729434779983325,-6.8924656787349985,1.2637293758133332,-31.09341666666667,25.016541666666665,-22.113291666666665,0.21250133333333338,0.43316933333333335,-0.05334466666666668,15.5,False
1.8115694522857666,13.451850451549998,-5.32821772455,1.07856478695,122.8675,39.401250000000005,-7.595000000000001,5.402853849481667,-6.810910308451666,1.245603744618333,-26.98966666666667,25.524333333333328,-23.076375,0.21319200000000008,0.431228,-0.05301800000000001,15.5,False
1.8240816593170166,19.59302965445,-6.256632893349999,1.6354942471,98.42875000000001,29.496250000000003,-13.711250000000001,5.7276795174316675,-6.718427714961666,1.2153744191049995,-22.899625000000004,26.39729166666666,-23.896833333333337,0.21371466666666672,0.4293613333333334,-0.05301800000000001,16.5,False
1.8367695808410645,19.5996099166,-5.63689183995,1.26161571585,109.47125000000001,21.8225,-13.020000000000001,6.2301922036200015,-6.614140529978333,1.1791231567149998,-19.521833333333337,26.53904166666666,-24.966375000000006,0.21468533333333342,0.4279240000000001,-0.05264000000000001,16.5,False
1.8493478298187256,19.5996099166,-8.0470624038,0.59042897655,147.38500000000002,16.563750000000002,4.077500000000001,6.7404416828816665,-6.564489461028334,1.136052349915,-15.164333333333337,26.339541666666662,-25.981375000000007,0.21565600000000007,0.42648666666666674,-0.05264000000000001,16.5,False
1.861940622329712,19.5996099166,-9.037690960199999,0.10947163395000001,122.45625000000001,-23.21375,19.9675,7.256912500903335,-6.594918188425,1.0813962936933332,-9.09008333333333,25.279916666666672,-26.028625,0.21623466666666674,0.42546000000000006,-0.05174866666666668,16.5,False
1.8745098114013672,19.5996099166,-7.928019479449999,0.8087740387999999,11.016250000000001,-90.63250000000001,14.560000000000002,7.772346429131668,-6.621817502486666,1.0188638630799998,-4.535999999999992,22.62720833333333,-25.421375000000005,0.21679466666666675,0.424704,-0.05174866666666668,16.5,False
1.8870606422424316,19.5996099166,-7.039684089199999,2.9425735923499996,-132.01125000000002,-153.37875000000003,13.97375,8.311050557145,-6.632724785505,0.9857432102583333,-4.195916666666657,17.637375000000002,-25.15304166666667,0.2169346666666667,0.4243773333333333,-0.051440666666666676,16.5,False
1.899648666381836,19.5996099166,-2.7236303244499998,2.7194428849,-177.38000000000002,-155.2425,51.26625000000001,8.837132545943332,-6.615396761843333,1.017149006883333,-7.731499999999993,11.15070833333333,-24.531500000000005,0.2167106666666667,0.42454533333333333,-0.051440666666666676,15.5,False
1.9121606349945068,19.5996099166,7.634898710949999,-2.11106773885,-64.76750000000001,-109.87375000000002,111.62375000000002,9.349994189876666,-6.410511326718334,1.0317651649316666,-10.492708333333333,5.526208333333332,-21.548625000000005,0.21615066666666666,0.42430266666666666,-0.05227600000000001,15.5,False
1.9246456623077393,19.5996099166,19.5996099166,-13.23051436105,27.69375,-85.88125000000001,59.307500000000005,9.856634495049999,-5.81204645427,0.79345997416,-9.180791666666662,1.616708333333331,-16.94816666666667,0.21559066666666665,0.42406000000000005,-0.05227600000000001,16.5,False
1.9371337890625,19.5996099166,19.5996099166,-19.5996099166,-136.37750000000003,-153.81625000000003,-169.94250000000002,10.372885970999999,-4.976333221031666,0.1853440505583335,-7.442458333333328,-2.428124999999997,-16.109333333333336,0.21497466666666665,0.42362133333333335,-0.05234600000000001,16.5,False
1.9497265815734863,19.5996099166,19.5996099166,-8.68654424365,-286.72,-284.54125000000005,-286.72,10.898250113018332,-4.128615994416666,-0.4981059045666664,-13.878375,-10.13833333333333,-23.011916666666668,0.21435866666666664,0.4231826666666667,-0.05234600000000001,16.5,False
1.9623067378997803,-19.5996099166,19.5996099166,14.7134661674,-281.42625000000004,-286.72,-286.72,10.958369780843332,-3.2684560902816666,-0.5980062481166666,-21.408916666666663,-20.632499999999997,-31.31654166666667,0.21207199999999998,0.421848,-0.05372733333333334,16.5,False
1.9748449325561523,-19.5996099166,19.5996099166,11.641081949,51.30125,-60.59375000000001,-286.72,10.161958658809999,-2.417648134475,0.014915260873333244,-23.659708333333334,-29.537958333333336,-39.52695833333334,0.20978533333333332,0.4205133333333333,-0.05372733333333334,16.5,False
1.987278699874878,-19.5996099166,0.41455651544999994,-16.499110032649998,239.14625,10.071250000000001,-286.72,9.350572455338332,-1.7279369602133323,0.06061817253333328,-14.195708333333332,-30.095041666666663,-47.51920833333333,0.20424133333333333,0.41945866666666665,-0.05404933333333335,16.5,False
1.9999356269836426,-19.5996099166,-7.5792655855,-12.8877425236,-179.57625000000002,-127.05000000000001,-286.72,8.539285952808335,-1.5926427823716665,-0.59916277904,-5.391458333333328,-33.29841666666667,-55.24458333333334,0.1986973333333333,0.418404,-0.05404933333333335,16.5,False
2.0155179500579834,-19.5996099166,-14.726028486049998,19.597815299649998,-286.72,-154.175,-286.72,7.73575618354,-1.7795022872433328,-0.88223369262,-11.542708333333334,-39.223333333333336,-62.99912500000001,0.19022266666666662,0.4167146666666667,-0.05393266666666668,16.5,False
2.0281898975372314,-19.5996099166,-19.5996099166,19.06062662595,23.4675,76.81625000000001,7.481250000000001,6.938687035291667,-2.2270398741966657,-0.248434806445,-18.57129166666667,-45.587500000000006,-70.88870833333334,0.18174799999999997,0.41502533333333336,-0.05393266666666668,15.5,False
2.040623664855957,-19.5996099166,-11.880962414649998,-19.5996099166,286.67625000000004,169.085,286.67625000000004,6.148796354843333,-2.6552354784666656,-0.22424735799666662,-7.196583333333333,-39.902041666666676,-60.07050000000001,0.171668,0.4103306666666667,-0.054917333333333346,16.5,False
2.0530877113342285,-10.405787281750001,19.5996099166,-16.392031221299998,286.67625000000004,-213.45625,286.67625000000004,5.347220724031667,-2.0296918302616658,-0.874277557475,3.836291666666667,-39.879583333333336,-49.22954166666668,0.16158800000000004,0.40563600000000005,-0.054917333333333346,16.5,False
2.065464735031128,-6.693323017849999,19.5996099166,12.60239842855,-272.32625,-242.68125000000003,169.75000000000003,4.90097924932,-1.1381460696899997,-1.0346365520516667,7.200375000000002,-49.699708333333334,-38.652833333333334,0.15359866666666672,0.405888,-0.053097333333333344,16.5,False
2.0779967308044434,-8.60877750915,16.656438118599997,19.5996099166,-243.80125,-87.80625,75.0575,4.445006962701666,-0.2496910383099999,-0.43848474145,-2.0340833333333337,-55.56483333333334,-33.3795,0.14560933333333337,0.40614000000000006,-0.053097333333333344,16.5,False
2.090413808822632,-10.7653088774,3.8213376921999997,18.16092532835,-26.512500000000003,-36.907500000000006,74.98750000000001,3.9067215786433325,0.3861616872633341,0.16853447179333317,-7.721583333333336,-58.05129166666667,-30.300083333333337,0.13672400000000004,0.4057853333333334,-0.05366200000000001,16.5,False
2.102930784225464,-9.52044291975,-4.953740987649999,14.9754802421,-17.683750000000003,8.11125,95.165,3.376352449353333,0.6147958866933335,0.7179265407533333,-8.262624999999998,-59.29437500000001,-26.291124999999997,0.1278386666666667,0.4054306666666668,-0.05366200000000001,16.5,False
2.1154775619506836,-10.609775408399999,-10.068997500799998,12.034103061049999,-41.142500000000005,44.073750000000004,80.13250000000001,2.8737998827883326,0.649751036841667,1.16853491671,-9.408,-59.13425,-22.37433333333333,0.11917733333333337,0.4056453333333334,-0.05388600000000001,16.5,False
2.1282317638397217,-7.5326055448,-13.761720978249999,7.03788947225,3.8237500000000004,55.63250000000001,82.57375,2.2769701057833323,0.5033900544749998,1.4941781323816665,-9.940291666666667,-58.14608333333333,-18.85508333333333,0.11051600000000006,0.40586000000000005,-0.05388600000000001,16.5,False
2.1413886547088623,-5.487938633100001,-15.0472649201,4.711467699399999,16.091250000000002,32.532500000000006,104.65875000000001,1.821316862178333,0.26083760358833274,1.6749758199999996,-8.820583333333333,-57.20633333333333,-14.905041666666667,0.10268533333333338,0.40586000000000005,-0.05388600000000001,16.5,False
2.1540157794952393,-5.194817864599999,-14.221741123099997,4.146761565799999,-57.24250000000001,20.343750000000004,113.54,1.3694123739799988,-0.03314059301000019,1.7620546224516664,-9.601666666666667,-56.761541666666666,-10.142999999999997,0.09485466666666671,0.40586000000000017,-0.05388600000000001,16.5,False
2.166595697402954,-5.513063270399999,-12.0227371537,4.96211586675,-108.89375000000001,13.982500000000002,114.10875000000001,0.8817351879116656,-0.24757737834666665,1.8452052078016665,-14.671125,-56.69504166666666,-5.441624999999999,0.08756533333333336,0.40580400000000005,-0.054376000000000015,16.5,False
2.1792547702789307,-5.199005304149999,-9.582058101699998,6.82253543825,-87.40375,13.685,122.29875000000001,0.354077924235,-0.4018944958583334,1.970509351288333,-22.129625000000008,-57.15412499999999,-1.0762499999999955,0.08027600000000001,0.405748,-0.054376000000000015,16.5,False
2.191934823989868,-4.226322917249999,-8.09312423885,7.62532742055,-10.71,22.505000000000003,128.69500000000002,-0.21413768251166687,-0.5281557683850002,2.1644276828300004,-28.702041666666673,-57.82320833333333,3.344250000000007,0.07364000000000002,0.40463733333333335,-0.05428733333333335,16.5,False
2.2045257091522217,-1.89810652745,-7.4010003018,6.7806610427499985,60.34,32.05125,123.62000000000002,-0.8153742411383338,-0.6124429444700001,2.385364969563333,-31.721375000000013,-58.18020833333333,7.904750000000009,0.06700400000000004,0.40352666666666664,-0.05428733333333335,16.5,False
2.217036008834839,-0.5659025448999999,-7.4871419154,4.96211586675,63.20125000000001,35.892500000000005,112.84875000000001,-1.502652712423334,-0.6917849538483334,2.5574687350683334,-32.49400000000001,-57.79754166666666,12.426458333333336,0.06071333333333335,0.4026493333333333,-0.053881333333333344,16.5,False
2.2297825813293457,-0.14356935599999998,-7.621139980999999,3.8213376921999997,6.116250000000001,34.7025,97.6675,-2.1727826217416673,-0.7195416960083331,2.6667409671349995,-35.18870833333334,-57.315999999999995,16.306791666666673,0.05442266666666669,0.40177199999999996,-0.053881333333333344,16.5,False
2.242299795150757,0.020338992099999998,-8.09312423885,4.09830690815,-42.62125,30.275000000000002,91.51625000000001,-2.829313322616667,-0.6842675028466669,2.776053079578333,-40.767125,-56.305083333333336,19.08462500000001,0.048636000000000006,0.4005026666666666,-0.05448800000000001,16.5,False
2.2550437450408936,0.42652062845,-9.055038924049999,5.624927726949999,-35.603750000000005,27.606250000000003,97.57125,-3.486123186128333,-0.6845267252949998,2.919462914071666,-45.16575000000001,-53.71420833333333,21.449458333333336,0.042849333333333336,0.39923333333333333,-0.05448800000000001,16.5,False
2.267448663711548,3.46660174175,-8.1068829688,6.622734751149999,13.92125,32.182500000000005,110.04,-4.100360747548333,-0.71808606226,3.079462985258333,-44.12245833333334,-48.77045833333333,24.444291666666675,0.03790266666666667,0.397264,-0.05418466666666668,16.5,False
2.2800698280334473,5.50050095175,-6.90628422925,5.3204410510999995,59.018750000000004,39.191250000000004,109.20000000000002,-4.606721890084999,-0.7686942602499999,3.1892536622216667,-37.16912500000001,-42.23770833333334,27.473833333333342,0.032956,0.39529466666666674,-0.05418466666666668,16.5,False
2.2923638820648193,5.702096255799999,-5.408975487299999,3.2841490184999995,54.32000000000001,39.23500000000001,91.525,-5.068736053768333,-0.9871589636299999,3.2726235896433327,-30.261875000000007,-36.284208333333346,28.563500000000012,0.028457333333333334,0.3940533333333335,-0.05418466666666668,16.5,False
2.304616928100586,5.44546603195,-5.28275409515,1.6372888640499998,10.49125,29.356250000000003,74.38375,-5.550969568421666,-1.5723636108366668,3.5430723640083337,-28.21787500000001,-31.988250000000008,27.569500000000005,0.024686666666666666,0.3930453333333334,-0.05391866666666668,16.5,False
2.3168787956237793,4.003790415449999,-6.49232591945,2.2031914089499995,-42.07875000000001,19.64375,55.133750000000006,-6.031508167066666,-2.416571364305,4.149932055745,-28.519166666666674,-27.791458333333335,29.991791666666675,0.020729333333333332,0.39251333333333344,-0.05391866666666668,16.5,False
2.3292768001556396,2.91027048725,-8.06799960155,4.2448672923999995,-59.26375000000001,16.992500000000003,47.923750000000005,-6.5662242574133325,-3.3004999729333324,4.87477784185,-22.190583333333333,-20.262666666666657,39.841958333333345,0.01722933333333333,0.39198133333333346,-0.05398866666666668,16.5,False
2.341707944869995,3.7603207158999994,-8.975477572600001,5.17746990075,-34.571250000000006,28.46375,58.415000000000006,-6.656792592823332,-4.240699793038333,5.081856697691666,-14.413291666666668,-10.082916666666657,51.07929166666668,0.01567066666666667,0.3920280000000001,-0.05398866666666668,15.5,False
2.3538899421691895,5.4975099235,-8.212765368849999,3.8500515633999997,14.280000000000001,37.905,72.5725,-5.8590255379833325,-5.190291441848332,4.5941795116233335,-9.786291666666669,-1.350999999999999,62.74712500000002,0.014597333333333332,0.3917946666666668,-0.05425466666666668,16.5,False
2.3660757541656494,6.9487568304,-6.991827637199999,2.0662023151,54.60875000000001,32.96125,79.87,-4.995854665409999,-5.953900954073333,4.637748823131667,-14.725375000000001,-1.008291666666665,74.88658333333335,0.016613333333333334,0.39184133333333343,-0.05425466666666668,16.5,False
2.3782618045806885,7.3782684871,-7.0169522744999995,1.1988041226,58.59875,22.426250000000003,78.88125000000001,-4.102813390713333,-6.119504218181666,5.328257604926667,-17.62658333333333,1.7508749999999986,87.11529166666669,0.018928,0.3917480000000001,-0.05412400000000001,16.5,False
2.390465021133423,6.849454692499998,-8.556733617599999,1.80478644605,7.53375,17.841250000000002,78.76750000000001,-3.2056644372199994,-5.982216021506667,5.618387345176667,-6.619666666666666,6.9542083333333355,99.2865416666667,0.024285333333333336,0.3927560000000001,-0.05412400000000001,16.5,False
2.4025518894195557,5.44546603195,-10.4829558106,3.9409788222,-68.5475,11.29625,90.83375000000001,-2.337508517563332,-5.627639592563333,5.042933450065001,2.369500000000001,12.501708333333335,111.4875416666667,0.02996,0.394296,-0.05396066666666668,16.5,False
2.417606830596924,6.558128540949999,-9.433703100499999,7.11565620675,-86.17875000000001,35.20125,115.26375000000002,-1.4778271779483334,-5.30596447437,5.200002313566667,-9.999208333333332,6.219208333333337,105.39345833333337,0.037202666666666676,0.3991306666666668,-0.05396066666666668,16.5,False
2.4298758506774902,8.16610532815,-7.721638530200001,7.1593252192,-34.002500000000005,59.79750000000001,128.50250000000003,-0.5824329610283331,-5.991348627763332,6.094738504271667,-22.054958333333335,7.110833333333333,99.86783333333334,0.04516400000000001,0.40358266666666676,-0.05398866666666668,16.5,False
2.4420278072357178,9.5389872949,-5.42991268505,5.7044890784,38.17625,66.22875,133.28,-0.020438693041666886,-6.882036960236666,6.466343854051667,-24.716124999999998,18.698750000000004,94.84883333333333,0.05108133333333334,0.40345200000000003,-0.05398866666666668,16.5,False
2.454197883605957,10.319047462499999,-3.7304104334,4.5403808835,83.76375,61.792500000000004,114.87,0.5706084293466666,-7.6869426024999985,6.025167187176667,-13.086500000000001,26.61341666666667,94.95383333333334,0.05774533333333335,0.40304133333333336,-0.054035333333333345,16.5,False
2.4664039611816406,11.030912185999998,-3.9948173306999997,4.106681787249999,52.535000000000004,58.26625000000001,94.5875,1.271705451146666,-8.207680620824998,5.539085216175001,-5.037375,30.8175,96.43462500000003,0.06549200000000002,0.4030506666666668,-0.054035333333333345,16.5,False
2.4786338806152344,10.782656841249999,-4.12702077935,3.9816568063999997,-19.652500000000003,62.49250000000001,71.05000000000001,1.9781464434199993,-8.309973786975,5.101477843011668,-4.0229583333333325,33.58804166666666,96.24912500000002,0.07408800000000001,0.40329333333333334,-0.05405866666666668,16.5,False
2.491533041000366,9.000602209899998,-6.579663944349999,4.6366919931499995,-73.08875,61.03125000000001,57.347500000000004,2.6412175260683326,-8.219305750623333,4.773102821538333,-4.179875,34.764625,95.31783333333334,0.08232,0.40348000000000006,-0.05405866666666668,16.5,False
2.5038108825683594,8.63390214645,-6.4582281973999995,5.181657340299998,-94.38625,63.42000000000001,80.185,3.3304301956216658,-8.054320632353333,4.601318099046666,-5.925208333333334,35.032375,94.87508333333334,0.09099066666666668,0.40318133333333334,-0.053606000000000015,16.5,False
2.516103744506836,9.017950173749998,-4.56251449255,4.99441897185,-48.62375,49.9275,94.08000000000001,3.841038598273333,-7.7722267880016656,4.580181499413333,-9.49375,35.473375,94.80945833333334,0.09884000000000001,0.4028826666666667,-0.053606000000000015,16.5,False
2.5418291091918945,8.7266240222,-3.0807590974999997,3.3565319021499995,67.25250000000001,29.382500000000004,82.215,4.315355858158331,-7.404609475888333,4.609214413626668,-10.12725,36.0465,94.21883333333335,0.10727733333333332,0.402136,-0.05407266666666668,15.5,False
2.5652058124542236,6.521637996299998,-3.9092739227499997,2.2259232236499997,0.39375000000000004,21.6125,65.7125,4.7728236589016655,-7.078467755508334,4.5640897674283325,-6.190624999999999,36.188541666666666,92.76166666666668,0.115948,0.401156,-0.05408666666666668,16.5,False
2.5884978771209717,4.917848648649999,-3.0681967788499995,2.4239292938,-76.09875000000001,5.97625,38.316250000000004,5.135097000541665,-6.831628164130001,4.446841460028334,-4.353416666666669,36.26291666666667,90.71970833333334,0.12473066666666667,0.40026933333333337,-0.05343333333333335,16.5,False
2.611799955368042,4.4787657015499995,-1.7353945906499997,3.0532416376,-48.0375,4.41,23.371250000000003,5.451368327696666,-6.583332939003333,4.30145754689,-4.526666666666666,35.88491666666666,87.62308333333333,0.13327999999999998,0.39970933333333336,-0.05401666666666668,16.5,False
2.6351547241210938,2.3772692530999997,-1.1114660977,1.73180535675,6.588750000000001,11.996250000000002,-6.2125,5.674917779101665,-6.354798440515001,4.152344818533333,-5.516291666666666,35.302749999999996,83.49891666666667,0.14183866666666667,0.39872,-0.05407266666666668,16.5,False
2.6542999744415283,2.03090818175,-1.6522440052999998,1.49013027415,15.05,18.523750000000003,-26.9675,5.7852468411499975,-6.157131353566668,4.008615941026666,-7.42875,34.69229166666667,78.81329166666667,0.14977200000000002,0.396788,-0.05394200000000001,16.5,False
2.667525053024292,1.9345970720999999,-2.2839491717,1.4386845882499997,11.707500000000001,18.856250000000003,-40.53,5.8679388021683305,-5.976233965006667,3.9071203824099996,-8.40816666666667,34.124125,74.11133333333333,0.15770533333333336,0.394856,-0.05394200000000001,16.5,False
2.680006980895996,2.0673987264,-2.6213371583000002,2.01415842355,13.606250000000001,21.32375,-51.10875000000001,5.93589496400833,-5.797151133585001,3.8306098797749994,-7.386458333333334,33.64666666666666,69.52108333333335,0.16515333333333337,0.3932506666666667,-0.05356866666666668,16.5,False
2.6925439834594727,2.7236303244499998,-3.10049988395,3.1692935337,19.223750000000003,39.1475,-58.861250000000005,6.020261900846664,-5.596233795938333,3.7606995794783327,-5.306000000000001,33.54604166666666,64.67620833333334,0.17260133333333333,0.39164533333333323,-0.05356866666666668,16.5,False
2.7047557830810547,3.5880374886999995,-3.3050862162499994,3.9696926934,32.13,58.493750000000006,-66.6225,6.089494234739997,-5.413142986661667,3.662254869676666,-3.7654166666666673,34.11479166666666,59.22729166666669,0.17944266666666667,0.3903573333333333,-0.05356866666666668,16.5,False
2.7168548107147217,6.27697188545,-3.170489945,3.3032915992999996,52.33375,82.88875,-72.94875,6.1043696152366635,-5.274339335673334,3.574976665341666,-3.7665833333333314,35.31091666666667,53.254250000000006,0.18624666666666664,0.3893399999999999,-0.05381600000000001,16.5,False
2.7290821075439453,7.079165662099999,-4.2987058009,1.8861424144499999,67.69000000000001,96.88875000000002,-98.69125000000001,6.13581529223833,-5.169294423533334,3.5221152260699995,-3.903666666666666,36.929375,47.05254166666668,0.19305066666666668,0.3883226666666666,-0.05381600000000001,16.5,False
2.741302967071533,7.13240596495,-6.4342999714,0.9272187574999999,71.3125,107.53750000000001,-108.36000000000001,6.204708642929997,-5.166183754153334,3.492344524888333,-3.1033333333333335,39.12620833333333,40.69070833333333,0.19928533333333334,0.38721199999999995,-0.05321866666666668,16.5,False
2.753495931625366,7.1659054813499985,-9.905089152699999,0.2177468566,64.715,112.92750000000001,-101.78875000000001,6.266941970718332,-5.228736124955001,3.4615369339133335,-0.42437499999999917,41.93962499999999,34.90404166666667,0.20551999999999995,0.3861013333333333,-0.05321866666666668,16.5,False
2.7658729553222656,9.005387855099999,-11.893524733299998,-0.18664016279999998,54.416250000000005,114.72125000000001,-66.15875000000001,6.401937045734999,-5.369174871386667,3.3613973081033333,3.3372500000000005,45.192,30.164750000000016,0.21158666666666665,0.385504,-0.05304133333333335,16.5,False
2.7782371044158936,12.202797054349999,-10.368698531449999,-0.5347958510999999,49.11375,110.59125000000002,-27.0375,6.631747716276665,-5.472843910531667,3.1861828732183333,6.850375000000002,48.34316666666666,26.83566666666668,0.21765333333333328,0.3849066666666666,-0.05304133333333335,16.5,False
2.790462017059326,16.728222796599997,-7.841279660199999,-0.5096712138,61.258750000000006,104.73750000000001,-5.7575,6.951967200721665,-5.4915876875650005,3.007000340855,9.03116666666667,50.81650000000001,24.091083333333344,0.2233746666666666,0.3848506666666666,-0.05230866666666668,16.5,False
2.8026669025421143,19.5996099166,-7.358527700649999,-0.6017948838999999,98.805,116.72500000000001,3.43875,7.359604470819999,-5.475495955580001,2.8776084587599997,10.462375000000002,53.16150000000001,21.41708333333333,0.22909599999999994,0.3847946666666667,-0.05230866666666668,16.5,False
2.8150601387023926,19.5996099166,-7.81316399465,-1.0085747259,130.9875,133.67375,23.5375,7.7732038572299995,-5.507220795218334,2.802094965541667,12.138000000000002,56.39695833333334,19.065958333333324,0.23499466666666663,0.38523333333333337,-0.05186066666666667,16.5,False
2.8273608684539795,19.5996099166,-7.999804157449999,-1.9627127376499998,129.20250000000001,124.85375,49.612500000000004,8.182695564843334,-5.5207003625316675,2.714378077063333,15.164625000000001,60.20816666666668,17.547541666666657,0.2408933333333333,0.38567200000000007,-0.05186066666666667,16.5,False
2.8398208618164062,19.5996099166,-8.970093721749999,-1.1389835575999998,83.86875,79.19625,87.68375,8.621180306293333,-5.514299562076666,2.5882364456666664,19.550124999999998,63.415916666666675,16.856874999999995,0.2473333333333333,0.38603600000000005,-0.050983333333333346,16.5,False
2.8520967960357666,19.5996099166,-8.81336384145,-0.0741775006,15.093750000000002,30.117500000000003,137.89125,9.068139627785001,-5.4856853918183335,2.380399862668333,24.34716666666667,65.02183333333332,17.105083333333333,0.2537733333333333,0.3864,-0.050983333333333346,16.5,False
2.8643009662628174,19.5996099166,-8.51785025035,0.28773691765000003,-59.6925,-18.891250000000003,177.49375,9.479386071971668,-5.471846901114999,2.1491534985666663,26.49091666666667,63.70495833333334,18.217208333333335,0.26001733333333327,0.3867826666666667,-0.050362666666666674,16.5,False
2.8798999786376953,19.5996099166,-7.357929495,-0.41455651544999994,-137.66375000000002,-77.49000000000001,202.99125,9.842317439826667,-5.493003440936665,1.9436100372266665,24.083208333333335,60.550875000000005,20.04070833333334,0.2662613333333333,0.3871653333333334,-0.050362666666666674,16.5,False
2.892206907272339,19.5996099166,-4.6301117309999995,-0.1698904046,-168.95375,-120.4,226.17875,10.170293657533334,-5.550849927291666,1.7620147420749999,16.89216666666667,55.069291666666665,22.900208333333335,0.272496,0.3870906666666667,-0.05076866666666668,16.5,False
2.904428243637085,19.5996099166,-1.3507483577,-2.83848580925,-107.42375000000001,-103.54750000000001,212.03875000000002,10.466345633718333,-5.537569761861666,1.5943177581916668,8.879791666666666,49.12250000000001,26.826041666666665,0.2787306666666666,0.387016,-0.05076866666666668,16.5,False
2.91713809967041,19.5996099166,1.0468598875,-8.28215722425,-66.3425,-71.32125,201.72250000000003,10.754939979466664,-5.387739186724999,1.3111870240466665,5.726583333333332,43.990916666666664,30.923375000000004,0.284536,0.38539200000000007,-0.05203333333333335,16.5,False
2.929615020751953,19.5996099166,5.264209719999999,-11.469396927449997,-241.85000000000002,-59.68375,190.14625,11.062477504131666,-5.158865705034999,0.8564310889166665,3.314499999999998,39.86208333333334,35.448,0.29034133333333334,0.383768,-0.05203333333333335,16.5,False
2.941905975341797,19.5996099166,10.2269237924,-9.2626162846,-286.72,-93.37125,178.0275,11.422577365243333,-4.695375967414999,0.27441687184333313,-3.3891666666666653,35.649541666666664,39.46279166666667,0.29596,0.3812106666666667,-0.052607333333333346,16.5,False
2.954090118408203,16.040884504749997,15.247065607199998,-0.15613167464999997,-286.72,-153.63250000000002,158.4975,11.784551604058333,-4.099303917566666,-0.10500503176333306,-10.04179166666667,29.525999999999996,42.31733333333333,0.30157866666666666,0.3786533333333334,-0.052607333333333346,16.5,False
2.9662370681762695,-7.42911596735,19.5996099166,8.96889731045,-286.72,-185.71875000000003,37.800000000000004,11.771131857309998,-3.324069275543333,-0.12356934710166637,-18.857125,22.292083333333327,43.43995833333334,0.306516,0.3742293333333334,-0.05369933333333334,16.5,False
2.978490114212036,-19.5996099166,2.9575287336,10.671390590349999,-142.0825,-141.65375,-189.70000000000002,10.945069675225,-2.610988200554999,0.13148560187000025,-29.360625000000006,15.687583333333324,40.09804166666667,0.31072533333333324,0.3699266666666668,-0.05369933333333334,16.5,False
2.9907102584838867,-19.5996099166,-18.3876452697,5.1696932273,79.94875,-91.07000000000001,-286.72,10.107063320328333,-2.646102872209999,0.334436838726667,-29.14654166666667,11.31841666666666,29.09725,0.31416,0.36409333333333344,-0.05455800000000001,16.5,False
3.0030760765075684,-19.5996099166,-19.5996099166,-3.1866414975499997,-119.20125000000002,-15.225000000000001,-286.72,9.310971241308332,-3.2289146968166658,0.5900301727833335,-23.940291666666674,9.191291666666665,18.438000000000002,0.31738,0.35833466666666675,-0.05455800000000001,16.5,False
3.0153632164001465,-19.5996099166,-19.5996099166,5.7236316592000005,-286.72,-122.02750000000002,-193.49750000000003,8.539684756575001,-3.8533815748516664,0.4789035032016666,-31.919125000000008,7.690374999999998,8.750291666666666,0.3200306666666667,0.35403200000000007,-0.05466533333333335,16.5,False
3.027646064758301,-19.5996099166,-19.5996099166,8.77627509115,-113.87250000000002,-67.71625,41.63250000000001,7.809993504705,-4.456173468168333,0.6077171198349999,-41.811000000000014,2.767333333333328,5.4629166666666675,0.322476,0.34993466666666667,-0.05466533333333335,16.5,False
3.0398900508880615,-19.5996099166,-19.5996099166,2.0494525568999995,160.60625000000002,36.697500000000005,195.60625000000002,7.090790791898333,-5.0416373378233335,0.8333602910149999,-41.591375000000006,1.345749999999992,10.374874999999996,0.32492133333333334,0.3458373333333334,-0.05556600000000001,16.5,False
3.052060127258301,-19.5996099166,7.4626154837500005,-2.7206392962,192.61375,42.87500000000001,221.60250000000002,6.372724669826666,-5.188197722073334,0.7638687346733332,-35.03470833333334,2.4943333333333286,19.169208333333334,0.32681600000000005,0.3403400000000001,-0.05556600000000001,16.5,False
3.064296007156372,-15.868003071899999,19.185053401149997,0.99003035075,66.84125,-12.355,155.19875000000002,5.638526935393332,-4.661756809885,0.6020142259716668,-30.570749999999997,2.5587916666666604,27.814791666666668,0.3287106666666667,0.33484266666666673,-0.05556600000000001,16.5,False
3.076428174972534,-8.901300071999998,18.32842291035,6.815356970449999,9.065000000000001,-27.282500000000002,85.64500000000001,5.131627407771666,-3.89695088636,0.5921238925583334,-30.362208333333346,0.27124999999999216,34.142500000000005,0.3311933333333334,0.3294853333333334,-0.055603333333333345,16.5,False
3.0886013507843018,-3.7507494254999996,9.816554716499999,10.652846215199999,28.577500000000004,2.9662500000000005,39.36625,4.718047961549999,-3.287857893530001,0.7546164872866667,-31.094875000000002,-2.7892083333333364,38.36029166666667,0.3337133333333334,0.3238573333333334,-0.055603333333333345,16.5,False
3.1008970737457275,3.5371900084499996,3.60658186385,9.631110965,30.730000000000004,33.08375,30.187500000000004,4.4451266038316675,-2.9386852556250007,1.00295159279,-32.04337500000001,-5.198083333333339,42.18725,0.3361960000000001,0.3182946666666667,-0.05514133333333335,16.5,False
3.1132171154022217,8.8354974505,0.66101724325,6.564708803099999,22.47875,29.111250000000002,25.681250000000002,4.390650009305,-2.682653237425001,1.2407183984766663,-33.43462500000002,-7.456458333333324,46.69145833333334,0.33852000000000004,0.31259200000000015,-0.05514133333333335,16.5,False
3.125535011291504,11.175079747649999,-2.572284295,4.8801616927,25.90875,13.597500000000002,15.636250000000002,4.495894323328332,-2.4450658934333345,1.4111471881616664,-35.06533333333334,-10.345416666666663,50.983916666666666,0.34091866666666676,0.3068613333333335,-0.055090000000000014,16.5,False
3.1381101608276367,12.805190143899999,-4.9016970960999995,5.459822967549999,18.69,-6.405,19.005000000000003,4.634717914505,-2.201955117273335,1.5687743769366664,-36.18795833333334,-14.003791666666666,54.53729166666666,0.3430280000000001,0.30061733333333346,-0.055090000000000014,16.5,False
3.150423288345337,12.541979657899999,-5.71346216315,8.04526778685,-10.0975,-21.586250000000003,24.587500000000002,4.7421556492449985,-1.9878174347616668,1.7898512449883333,-37.604000000000006,-18.26504166666667,56.94383333333334,0.34500666666666674,0.2944760000000002,-0.05524400000000001,16.5,False
3.162720203399658,11.230712873099998,-5.41196651555,10.2544412523,-6.44875,-14.533750000000001,20.466250000000002,4.674518530418331,-1.8718851797916678,2.113281099755,-39.79587500000002,-22.59220833333334,58.36745833333334,0.34684533333333345,0.28807333333333346,-0.05524400000000001,15.5,False
3.1750242710113525,10.612766436649999,-4.929812761649999,10.479964782349997,37.4675,6.825000000000001,12.057500000000001,4.425904262278333,-1.7948163518833338,2.4872393917583326,-41.98454166666668,-26.442500000000006,59.058416666666666,0.34839466666666674,0.2816986666666668,-0.055104000000000014,16.5,False
3.187533140182495,10.6301144005,-4.743172598849999,8.554340795,71.91625,32.182500000000005,7.148750000000001,4.1207795004016665,-1.7031911864916667,2.8449863106466666,-43.94950000000001,-30.132083333333338,59.059875000000005,0.34946800000000006,0.27496933333333345,-0.055104000000000014,16.5,False
3.1999411582946777,13.093525267199999,-3.5330025689,5.228317380999999,75.67875000000001,48.300000000000004,-4.3925,3.8479578436249993,-1.5910874476816668,3.137309471613333,-45.964916666666674,-33.37570833333333,58.16825000000001,0.35104533333333343,0.26840800000000004,-0.05511333333333335,16.5,False
3.2122151851654053,14.1104748722,-4.4327038665,2.09072874675,68.67,43.02375000000001,-12.652500000000002,3.657648686171666,-1.417946792383333,3.312065282166666,-47.315333333333335,-35.449749999999995,55.93904166666666,0.3517640000000001,0.26138933333333336,-0.05511333333333335,16.5,False
3.2244412899017334,12.809975789099997,-5.4400821811,1.65523503355,41.69375,20.335,-8.19875,3.4644681415983323,-1.2807184162733332,3.3911480690966664,-47.25204166666666,-36.323291666666655,52.08058333333333,0.352548,0.2544640000000001,-0.05452533333333334,15.5,False
3.236650228500366,11.121241239149999,-4.6277189084,1.9345970720999999,8.0325,5.3637500000000005,-1.2075,3.218665440013332,-1.172443193623333,3.440739317481666,-45.91737500000001,-36.135749999999994,46.78041666666665,0.3528093333333333,0.2479026666666667,-0.05452533333333334,16.5,False
3.2493722438812256,10.02772131095,-3.5605200288,3.3248270026999998,-21.332500000000003,-6.4575000000000005,0.7525000000000001,2.922653344205,-1.056810041478333,3.505764271636666,-43.36004166666667,-35.00204166666665,40.522416666666665,0.3531826666666666,0.2418266666666667,-0.05436666666666668,16.5,False
3.2618701457977295,8.280362607299999,-2.9712874635499995,5.7720863168499985,-25.3575,-18.497500000000002,-2.1787500000000004,2.5876781203933334,-0.953719267795,3.647239907861666,-39.11133333333334,-32.09616666666667,33.35820833333333,0.35281866666666667,0.236488,-0.05436666666666668,15.5,False
3.278261184692383,8.61475956565,-1.5565311012999998,6.951149652999999,11.4275,-11.935,-13.195000000000002,2.2077975924549995,-0.9190632204716671,3.8831522760333326,-34.37291666666668,-28.827750000000005,25.793833333333325,0.35216533333333333,0.23129866666666665,-0.05460000000000001,16.5,False
3.290889024734497,8.7912302324,-1.7682959014,5.5106704478,57.435,3.77125,-42.06125,1.8548761991433331,-0.9731410112316669,4.253820436961666,-31.225541666666675,-25.870250000000006,18.146041666666665,0.3510919999999999,0.2274253333333333,-0.05460000000000001,16.5,False
3.3033721446990967,8.2109707519,-2.39581362825,3.5330025689,107.16125000000001,13.090000000000002,-55.23875,1.4906487190466664,-1.1223933209066665,4.739044979865,-24.896083333333333,-23.56870833333334,9.94379166666667,0.34985066666666664,0.22384133333333336,-0.05429666666666668,16.5,False
3.31601619720459,7.342974353749999,-2.42333108815,1.48654104025,137.88250000000002,16.58125,-61.90625000000001,1.0951350834550009,-1.4189238616116664,5.250171827413333,-11.211375000000004,-20.90550000000001,1.8491666666666684,0.3483573333333333,0.22167600000000004,-0.05429666666666668,16.5,False
3.3288300037384033,6.562315980499999,-2.88634226125,0.65982083195,127.89000000000001,7.000000000000001,-59.03625,0.6730810571916681,-1.9093727338583333,5.490790080031667,2.9303750000000024,-16.305041666666668,-6.042750000000001,0.3467426666666666,0.21999600000000005,-0.05436666666666668,16.5,False
3.3413913249969482,6.2309100503999995,-1.9088742291499998,0.8667999868499999,103.38125000000001,-4.305000000000001,-60.165000000000006,0.6020541063483346,-2.6348765461783334,5.371328411726666,16.502208333333332,-10.458583333333333,-12.235125,0.34522133333333327,0.2206306666666667,-0.05436666666666668,16.5,False
3.3537473678588867,6.069394524899999,-0.33858439789999994,2.19720935245,109.20875000000001,-8.61875,-70.94500000000001,1.3603994088533347,-3.285544831683334,5.057270445476667,29.078875000000004,-4.816874999999999,-13.318375000000001,0.3435786666666666,0.2223666666666667,-0.05415666666666668,16.5,False
3.366335153579712,5.4376893585,0.8841479507,3.4540394230999993,180.97625000000002,0.48125000000000007,-86.53750000000001,2.210150534678334,-3.125644461438333,4.8726442416983335,34.837541666666674,-1.1792083333333312,-6.701624999999999,0.3425986666666666,0.22554000000000007,-0.05415666666666668,16.5,False
3.3788962364196777,4.42253437045,2.3042881638,3.79082920405,285.44250000000005,24.64,-105.43750000000001,3.0342386381183326,-2.4242882171899995,4.647180532213333,39.339125,1.012958333333334,-0.23333333333332718,0.3411706666666667,0.2298146666666667,-0.05345666666666668,16.5,False
3.391479253768921,4.0289150527499995,1.22691978815,1.9429719511999999,286.67625000000004,51.8175,-117.04875000000001,3.8194234341199986,-1.695574034548333,4.770131733476666,57.05233333333334,3.3343333333333334,5.623333333333326,0.34030266666666675,0.2330626666666667,-0.05345666666666668,15.5,False
3.4039292335510254,4.088137412099999,0.30568308715,0.16450655374999998,286.67625000000004,58.292500000000004,-116.15625000000001,4.6131426307283325,-1.0031111142966662,4.622534459433331,76.02233333333334,9.600208333333335,5.651916666666663,0.3392386666666667,0.2382426666666667,-0.05254666666666667,16.5,False
3.416478395462036,5.577071274949999,-1.33579321645,0.23389840915,286.67625000000004,47.53,-107.04750000000001,5.408776085416666,-0.35844482548000023,4.3527636514716646,84.89075,12.245624999999999,-1.9719583333333428,0.3381746666666667,0.24342266666666668,-0.05254666666666667,16.5,False
3.429089069366455,7.89810919695,-1.74137664715,2.1290139083499997,286.67625000000004,39.59375000000001,-86.49375,6.277968894866666,-0.18442680189500044,4.405006944904998,87.48483333333334,11.890666666666666,-12.681375000000001,0.33781066666666676,0.25161733333333336,-0.05056333333333334,16.5,False
3.441592216491699,8.6775711589,-0.5467599640999999,3.7142588808499992,286.67625000000004,37.98375,-60.44500000000001,7.198786851911667,-0.6753741788500001,4.584229357644998,92.06779166666666,12.270125,-22.092583333333334,0.3374466666666668,0.25981200000000004,-0.05056333333333334,16.5,False
3.4540421962738037,8.908478539799999,0.38045879339999994,2.2923240507999996,286.67625000000004,54.81,-54.075,7.895497032278333,-1.3381860390499998,4.606542428389998,100.58329166666667,14.370416666666666,-28.18929166666667,0.3360466666666667,0.269164,-0.048678000000000006,16.5,False
3.4666104316711426,9.4672026169,-2.9946174838999995,-1.1832507757,286.67625000000004,78.33000000000001,-30.835000000000004,8.44498880218,-1.834138403276666,4.340021871126665,109.61183333333335,17.259958333333334,-31.84416666666667,0.3346466666666668,0.278516,-0.048678000000000006,16.5,False
3.4793622493743896,11.281560353349999,-7.125825702799999,-3.5730823474499998,286.67625000000004,80.94625,34.1775,8.837591170275001,-2.241057826594999,3.911527164031666,118.14658333333334,19.470208333333336,-33.19108333333334,0.33291066666666685,0.28903466666666666,-0.045308666666666664,16.5,False
3.4920670986175537,18.333806761199998,-6.382256079849999,-4.51465804055,286.67625000000004,73.91125000000001,107.03875000000001,9.106045925806667,-2.574417895151667,3.485604741231666,126.81229166666667,20.936125000000004,-31.980083333333333,0.3311746666666668,0.29955333333333345,-0.045308666666666664,16.5,False
3.5047013759613037,19.5996099166,-3.0358936737499995,-5.69910522755,286.67625000000004,48.361250000000005,121.92250000000001,9.41910688264,-2.7351956336833334,3.1322646039649995,135.60108333333335,22.335250000000006,-28.722749999999998,0.3298586666666668,0.3098760000000001,-0.042027999999999996,16.5,False
3.5173022747039795,19.5996099166,-3.62931367855,-8.840881301349999,286.67625000000004,37.642500000000005,99.01500000000001,9.680004306793332,-2.7370899515749993,2.766741011626666,144.2755416666667,23.759458333333342,-25.438875000000003,0.3285426666666667,0.3201986666666667,-0.042027999999999996,16.5,False
3.5300452709198,19.5996099166,-10.59960591235,-17.432310846649997,286.67625000000004,6.22125,79.17875000000001,9.896893735295,-2.7196821671599993,2.1822940915766664,153.51437500000003,25.196208333333338,-23.114291666666677,0.3280666666666667,0.32947600000000005,-0.039465999999999994,16.5,False
3.5426511764526367,19.5996099166,-19.5996099166,-19.5996099166,286.67625000000004,-47.32875000000001,92.08500000000001,10.153184975943333,-2.968356255864999,1.2222936644566673,163.56520833333337,25.543875000000003,-21.213500000000007,0.3275906666666667,0.33875333333333335,-0.039465999999999994,16.5,False
3.5553321838378906,19.5996099166,-19.5996099166,-19.5996099166,220.74500000000003,-111.11625000000001,125.54500000000002,10.437631762518333,-3.4475389217033325,0.21505493117500005,172.93470833333336,23.548000000000005,-18.337666666666667,0.3274040000000001,0.3464346666666667,-0.037090666666666654,16.5,False
3.5682172775268555,19.5996099166,-16.5726893276,-19.5996099166,113.31250000000001,-179.22625000000002,136.01000000000002,10.742756524394999,-3.9305700438899995,-0.7724828960333334,177.10320833333336,18.616208333333336,-14.113458333333336,0.32781466666666675,0.35411600000000004,-0.037090666666666654,16.5,False
3.580874443054199,19.5996099166,-14.352149954799998,-19.5996099166,77.77875,-286.55375000000004,126.69125000000001,11.015578181171666,-4.288855347863333,-1.6701502944233333,177.88050000000004,10.067749999999998,-9.95691666666667,0.3277213333333335,0.36162933333333336,-0.037090666666666654,16.5,False
3.593475103378296,19.5996099166,-6.4582281973999995,-19.5996099166,33.76625000000001,-286.72,103.20625000000001,11.205887338624999,-4.488317051761666,-2.4499512395750003,177.66204166666668,-1.1404166666666715,-5.4468749999999995,0.32920533333333346,0.3680320000000001,-0.03714666666666666,16.5,False
3.606252431869507,19.5996099166,-1.65044938835,-19.5996099166,-88.90875000000001,-286.72,28.49875,11.399067883198333,-4.454418731594999,-3.1598817648066673,175.552125,-11.897375000000006,-2.302999999999997,0.3306240000000001,0.37434133333333347,-0.03714666666666666,16.5,False
3.618903398513794,9.774680320999998,-3.54436847625,-19.5996099166,-272.09875000000005,-286.72,-47.005,11.644870584783332,-4.326482483248332,-3.8729628397950004,169.03454166666663,-21.92166666666667,-2.1519166666666676,0.33329333333333344,0.3801933333333335,-0.03887333333333332,16.5,False
3.632073402404785,-12.242278627249998,-6.498906181599999,-19.5996099166,-286.72,-286.72,-21.105,11.294262253318333,-4.353561259005,-4.5987657549400005,159.67437499999997,-31.558625000000006,-4.0130416666666635,0.3358506666666667,0.3855600000000001,-0.03887333333333332,16.5,False
3.644644260406494,-19.5996099166,-2.9090740759499996,-17.173287800199997,-286.72,-286.72,86.72125000000001,10.322596816023331,-4.443750730836666,-5.3870013997566675,150.9870833333333,-40.736791666666676,-3.6385416666666672,0.33885600000000005,0.3913840000000002,-0.04330666666666667,16.5,False
3.6571261882781982,-19.5996099166,13.917254447249999,-8.6428752312,-142.44125000000003,-286.72,235.50625000000002,9.395836682855,-4.30851637356,-6.058586942823333,141.98333333333326,-49.58654166666667,0.7139999999999967,0.34215066666666677,0.3970586666666669,-0.04330666666666667,16.5,False
3.6805453300476074,-19.5996099166,19.5996099166,-2.5651058271999996,-58.66875,-215.2675,35.883750000000006,8.44211741506,-3.6124841595966664,-6.384828364145,138.28587499999998,-58.96245833333334,8.644125,0.3446893333333334,0.40250000000000014,-0.04767466666666667,16.5,False
3.7216434478759766,-19.5996099166,17.47897088735,9.116055900349998,-270.99625000000003,51.10875000000001,-286.72,7.49970423405,-2.889851734396666,-6.616393771259999,127.31833333333326,-60.30762500000001,2.816333333333331,0.3475546666666667,0.4064106666666668,-0.050428000000000014,16.5,False
3.7444064617156982,-15.692728816449998,-7.794619619499999,11.82832031745,1.0762500000000002,171.82375000000002,-286.72,6.588577208535001,-2.429372965215,-6.337629938359999,122.41774999999993,-56.75716666666667,-4.833499999999999,0.34790000000000004,0.4109186666666668,-0.051641333333333345,16.5,False
3.768510341644287,5.2953164138,-19.5996099166,5.684748291949999,-213.71875000000003,238.83125,-286.72,6.029155224843334,-2.734796829916666,-6.025207067553334,116.69874999999993,-50.50179166666667,-12.285291666666664,0.34836666666666666,0.4149413333333335,-0.051641333333333345,16.5,False
3.7840874195098877,11.218748760099999,-19.5996099166,2.620140747,-286.72,115.01875000000001,-286.72,6.047918942065001,-3.2975488250599994,-5.8999428044433335,103.3596666666666,-42.78516666666667,-19.907708333333336,0.348236,0.42009333333333354,-0.05158066666666668,16.5,False
3.8067402839660645,14.812170099649999,-19.5996099166,10.0701939121,-255.22875000000002,74.36625000000001,-223.84250000000003,6.255137379225,-3.905425466401666,-5.683412299331668,90.53683333333326,-39.43916666666667,-27.388375000000003,0.34759200000000007,0.4242186666666668,-0.05163200000000001,16.5,False
3.81939435005188,14.279168865499999,-19.5996099166,11.0153588391,-83.3525,88.2,-113.72375000000001,6.547201317743334,-4.561338021438333,-5.405166911328334,80.12054166666658,-36.725208333333335,-31.04295833333334,0.34609866666666667,0.4277093333333335,-0.05274266666666668,16.5,False
3.8320794105529785,14.788840079299998,-19.5996099166,8.3090764785,-18.060000000000002,112.00000000000001,-39.94375,6.846164561425,-5.262694265686666,-5.193103008403335,71.10541666666657,-33.673500000000004,-30.667583333333333,0.3450533333333334,0.4300986666666668,-0.05274266666666668,16.5,False
3.8446953296661377,14.8067862488,-14.412568725449999,4.3334017286,-41.11625,118.92125000000001,-36.268750000000004,7.199544579068333,-5.934419390071666,-5.096891599695001,60.97583333333332,-31.07591666666667,-28.033833333333337,0.34401733333333334,0.4324226666666668,-0.053125333333333344,16.5,False
3.8572332859039307,13.80359537375,-10.97527906055,1.2430713406999998,-91.56,98.73500000000001,-52.018750000000004,7.562675348806667,-6.398587094095,-5.036951393565001,49.52937499999998,-29.135458333333343,-25.59433333333333,0.34317733333333333,0.43281466666666685,-0.053125333333333344,15.5,False
3.869856357574463,12.52343528275,-9.428319249649999,-0.28175486115,-140.79625000000001,67.24375,-56.175000000000004,7.860721343824999,-6.732585248678333,-5.0088357280150015,36.41808333333334,-28.02945833333333,-23.580083333333334,0.3424306666666667,0.4329266666666668,-0.05271933333333335,15.5,False
3.882443428039551,11.064411702400001,-8.1571322434,0.53898329065,-188.32625000000002,26.180000000000003,-43.190000000000005,8.060900894503332,-6.994539502813334,-5.0418367397066675,21.57429166666666,-27.612666666666666,-21.994583333333335,0.3415906666666667,0.43095733333333347,-0.05271933333333335,16.5,False
3.8951961994171143,9.224331122999999,-6.2464633973,2.4478575198,-199.01000000000002,-7.796250000000001,-34.71125000000001,8.145208010776667,-7.169115851671666,-5.104209648813335,5.462916666666689,-28.568749999999998,-20.69258333333334,0.34084400000000004,0.4285773333333334,-0.053125333333333344,16.5,False
3.907792568206787,7.691130042049998,-4.88195630965,4.5678983434,-187.51250000000002,-15.4875,-30.450000000000003,8.134220967005,-7.347819819514999,-5.121378150968335,-10.692208333333326,-30.410625000000014,-19.981791666666663,0.34054533333333337,0.4249000000000001,-0.053125333333333344,16.5,False
3.920475482940674,6.7944197726999995,-3.9176488018499995,5.64407030775,-166.36375,2.98375,-24.771250000000002,8.076593822721666,-7.5055666494199995,-4.9770909481883345,-26.296083333333332,-32.922750000000015,-19.22666666666667,0.34030266666666675,0.4202800000000001,-0.05370400000000001,16.5,False
3.9330945014953613,6.226124405199999,-2.4951157661499996,5.294120002500001,-132.48375000000001,15.68875,-24.3425,7.948737335128333,-7.455616477644998,-4.707858525311668,-40.983250000000005,-35.38412500000001,-19.797458333333335,0.3404333333333334,0.41442800000000013,-0.05370400000000001,16.5,False
3.945666551589966,6.223731582599999,-1.9118652573999997,4.10428896465,-89.4775,23.730000000000004,-29.146250000000002,7.6948987376449995,-7.281060068974998,-4.40387035417,-54.33400000000001,-37.36133333333335,-22.885916666666674,0.3405360000000001,0.4080813333333334,-0.05412866666666668,16.5,False
3.9582574367523193,6.7208404777499995,-1.6737794087,2.4173490316499997,-53.191250000000004,13.396250000000002,-35.017500000000005,7.241498735321667,-7.16048175012333,-4.122833339800001,-66.34045833333333,-38.79166666666668,-27.82208333333334,0.34014400000000017,0.4019586666666667,-0.05412866666666668,16.5,False
3.970996379852295,6.880561386299999,-2.0303099761,1.79042951045,-52.24625,3.325,-42.34125,6.814220379715,-7.089275337584997,-3.8479578436249997,-77.53287500000002,-40.055166666666686,-32.87520833333333,0.3398453333333335,0.39533199999999996,-0.05460000000000001,16.5,False
3.9835333824157715,6.623931162449999,-1.9752750562999999,2.7649065143000002,-76.99125000000001,-9.275,-46.655,6.387600050323332,-6.999006104999998,-3.4016565483483334,-89.05779166666667,-41.029041666666686,-37.43366666666667,0.3388373333333334,0.389648,-0.05460000000000001,16.5,False
3.996274471282959,5.973681620899999,-1.1413763801999999,4.3884366484,-93.21375,-14.41125,-51.76500000000001,5.954638741041666,-6.609255183836665,-2.63557445277,-101.42854166666666,-41.06462500000002,-41.70979166666667,0.33761466666666673,0.383824,-0.05440866666666668,16.5,False
4.008748531341553,5.74097962305,-1.1491530536499999,5.659025448999999,-92.28625000000001,-5.8012500000000005,-56.79625000000001,5.495495964478334,-5.991966773601666,-1.81352024854,-114.09562499999998,-39.23908333333335,-46.99975,0.336392,0.379568,-0.05440866666666668,16.5,False
4.021369457244873,5.70149805015,-0.62392849295,5.90010232595,-75.94125000000001,9.2575,-64.12875000000001,5.03653264961,-5.377609571051665,-0.9655637396650003,-123.00749999999998,-34.82675,-53.51208333333333,0.334264,0.3748546666666668,-0.05481000000000001,16.5,False
4.033721446990967,5.944369544050001,-0.41515472109999996,4.5068813671,-29.155,9.633750000000001,-72.97500000000001,4.571268235228334,-4.879742948744999,-0.13136596073999973,-128.38729166666667,-27.093791666666668,-60.13175,0.332136,0.37014133333333343,-0.05481000000000001,16.5,False
4.0463783740997314,6.0418770649999995,-1.00678010895,3.4289147857999995,41.16875,-5.31125,-86.22250000000001,4.121337825675,-4.572624168035,0.657348248596667,-130.83233333333334,-17.395,-66.964625,0.3281786666666667,0.36666000000000004,-0.05472600000000002,16.5,False
4.058778524398804,6.098706601749999,-2.74755855045,2.5100709073999994,71.49625,-12.381250000000001,-96.57375,3.67322197326,-4.491467601518334,1.411446290986667,-128.83208333333334,-8.11591666666667,-72.70229166666667,0.3242213333333333,0.3631786666666667,-0.05472600000000002,16.5,False
4.071765422821045,5.651248775549999,-4.740779776249999,2.3222343332999995,53.5675,-10.75375,-100.31000000000002,3.2190443035916667,-4.565645102118333,2.1418155092599998,-121.03262499999997,1.039208333333331,-76.00658333333332,0.31877066666666665,0.3606400000000001,-0.054842666666666685,16.5,False
4.0843024253845215,5.2845487121,-6.154937932849999,3.4199417010499995,13.755,-7.2975,-87.78000000000002,3.391407291545,-4.568935233193332,2.881955419816666,-110.10066666666665,10.271333333333333,-77.37829166666666,0.31332,0.3581013333333335,-0.054842666666666685,16.5,False
4.096710443496704,5.8097732728,-5.412564721199999,4.35314251505,-10.03625,0.46375000000000005,-78.12875000000001,4.228257115518334,-4.58285348465,3.6626736136316667,-100.49170833333334,19.682250000000003,-80.52449999999999,0.30688,0.35544133333333344,-0.05467466666666668,16.5,False
4.10927939414978,6.6586270901499995,-4.6522453400499995,5.066203649849999,-1.05875,6.6850000000000005,-82.80125000000001,5.084329281045001,-4.803431847993334,4.275475481491666,-91.25141666666667,29.344000000000005,-87.4055,0.30044,0.35278133333333345,-0.05467466666666668,16.5,False
4.122083425521851,7.772486010449999,-5.1355955052499995,5.176871695099999,15.408750000000001,14.472500000000002,-95.06875000000001,5.969354600031667,-5.614818051464999,4.557330043583333,-88.33504166666668,39.18104166666667,-97.55024999999999,0.29475599999999996,0.35035466666666676,-0.054133333333333346,15.5,False
4.134639501571655,8.65065190465,-6.195615917049999,4.01695093975,3.5700000000000003,21.656250000000004,-101.18500000000002,6.890312138395001,-6.446902170426666,4.787499637515,-79.44183333333334,40.912666666666674,-93.33595833333332,0.289016,0.3492066666666667,-0.054133333333333346,15.5,False
4.147193431854248,8.66500884025,-7.508677318799999,3.4917263790499997,-29.671250000000004,8.72375,-106.40875000000001,7.830990523020001,-7.046324171915,4.542275201391667,-79.01308333333333,37.48587500000001,-87.23049999999999,0.2857959999999999,0.3474613333333334,-0.054133333333333346,16.5,False
4.163108587265015,7.91725177775,-9.42353360445,4.578067839449999,-51.9575,-6.0200000000000005,-92.92500000000001,8.443393587113334,-6.920461703154999,4.311188358796667,-79.23212499999998,30.86008333333334,-81.18454166666668,0.28231466666666666,0.3460333333333334,-0.054646666666666684,16.5,False
4.175609588623047,7.801798087299999,-9.482755963799999,5.611767202649999,-58.126250000000006,-1.8725000000000003,-77.805,8.468597985166667,-6.588058763638332,4.328795545095001,-71.69254166666666,22.869875,-74.52754166666668,0.27902000000000005,0.3433826666666667,-0.05455333333333335,16.5,False
4.188263654708862,8.0315090569,-8.9802632178,6.1316079125,-66.29,7.218750000000001,-71.86375000000001,8.308518153226668,-6.243631890556667,4.26783838936,-64.12845833333334,19.783458333333336,-67.46629166666666,0.27636000000000005,0.3406573333333334,-0.05455333333333335,15.5,False
4.200950384140015,7.210172699449998,-8.542974887649999,7.680362340349999,-73.98125,9.686250000000001,-73.045,8.10472942846,-5.8561541508633335,4.086602017598333,-60.09208333333334,17.558625,-63.6265,0.2745213333333334,0.3382773333333334,-0.05509933333333335,15.5,False
4.213488578796387,8.38504859605,-7.4129644148,6.521637996299998,-56.86625000000001,19.031250000000004,-75.0575,7.901917772921668,-5.49942418158,3.979383624929999,-60.78508333333334,14.769708333333332,-63.310333333333325,0.2726826666666667,0.3358973333333334,-0.05509933333333335,16.5,False
4.225894451141357,8.74397198605,-7.875377382249999,5.3934221404,-42.026250000000005,13.50125,-76.41375000000001,7.692884778623335,-5.162295417428334,3.9690745475616658,-61.879125000000016,11.658791666666666,-64.73133333333334,0.27068533333333344,0.33321866666666666,-0.054800666666666685,15.5,False
4.238588571548462,8.912665979349999,-7.8873414952499985,4.7533420949,-52.12375000000001,6.046250000000001,-79.2925,7.481199739276668,-4.9963930504950005,4.035415554146666,-61.387083333333344,8.173958333333337,-65.85191666666667,0.2686880000000001,0.33053999999999994,-0.054800666666666685,16.5,False
4.251264572143555,7.8616186523,-8.76191815555,5.193023247649999,-76.58000000000001,-3.22,-72.17875000000001,7.327999272311668,-4.9198426674833335,4.166183309236666,-59.84241666666667,5.317375,-66.69075000000001,0.2666253333333335,0.3283093333333333,-0.054758666666666685,16.5,False
4.263819694519043,6.9391855399999995,-9.34337404735,6.2165531148,-83.86875,-4.812500000000001,-47.68750000000001,7.160441869746666,-4.913641268911666,4.350191367176666,-57.313375000000015,3.289416666666667,-67.115125,0.2645626666666668,0.32607866666666663,-0.054758666666666685,16.5,False
4.2765793800354,7.014559451899999,-8.034500085149999,6.435496382699999,-76.25625000000001,-0.46375000000000005,-21.183750000000003,7.036633240385,-4.989972309851667,4.525425742249999,-53.46250000000001,2.8527916666666666,-66.98766666666668,0.26240666666666684,0.32425866666666675,-0.054758666666666685,16.5,False
4.289339542388916,7.174878566099999,-7.2251278407,6.470192310399999,-72.49375,5.5912500000000005,-23.82625,6.9865833676683335,-5.056333256624999,4.6358146248633325,-49.30887500000001,3.3973333333333335,-66.55541666666667,0.2600173333333335,0.32183200000000006,-0.05532333333333335,16.5,False
4.301872491836548,6.94815862475,-7.2191457842,6.0227344842,-71.26875000000001,11.0775,-29.04125,6.984150664691667,-5.138646354064999,4.683072871213332,-45.65866666666667,4.020625,-66.49329166666666,0.2575720000000001,0.32034800000000013,-0.05532333333333335,16.5,False
4.314453601837158,6.975676084649999,-7.56431044425,5.421537805949999,-71.76750000000001,7.682500000000001,-25.077500000000004,7.009036019731666,-5.280201751043332,4.694159615926666,-42.92254166666668,4.050666666666666,-66.64524999999999,0.2550240000000001,0.3186773333333334,-0.055388666666666676,16.5,False
4.326936483383179,6.5886370291,-7.643871795699999,5.1481578239,-67.0425,-6.0200000000000005,-18.97875,7.036015094546666,-5.4568119991116655,4.701816648246666,-41.47645833333334,3.521583333333333,-66.55220833333333,0.25250400000000006,0.31750133333333336,-0.055388666666666676,16.5,False
4.339492559432983,6.254240070749999,-7.539185806949999,5.5812587145,-63.34125000000001,-8.933750000000002,-7.735,7.059644217721667,-5.658925748058332,4.7581077999116665,-41.206958333333326,2.495208333333333,-66.09895833333333,0.25001200000000007,0.31602666666666657,-0.05533733333333335,16.5,False
4.3517725467681885,5.9054861768,-7.120441851949999,6.046064504549999,-56.63,-6.39625,1.54,7.0359752141700005,-5.848576879296664,4.882135771344999,-41.603333333333325,1.8885416666666666,-64.953,0.24742666666666674,0.3150559999999999,-0.05533733333333335,16.5,False
4.364201545715332,5.866602809549999,-6.7322063851000005,6.12981329555,-53.6375,-1.1987500000000002,8.058750000000002,7.003313185679999,-6.012545047961665,5.0134020311433325,-41.42745833333334,1.7739166666666664,-63.31908333333333,0.24462666666666671,0.31362799999999985,-0.05562200000000002,16.5,False
4.3766396045684814,5.848656640049999,-6.203392590499999,6.36311349905,-57.07625000000001,5.223750000000001,9.73,6.977690043671665,-6.170311818054998,5.107858703278333,-40.418583333333345,2.2289166666666658,-61.405166666666666,0.24204133333333336,0.31233999999999995,-0.05562200000000002,16.5,False
4.389213562011719,5.819942768849999,-5.975476237849999,6.6652073522999995,-58.8875,9.1875,8.006250000000001,6.977351060469999,-6.3360746036699975,5.155715155278332,-39.274375000000006,2.919583333333333,-59.299625000000006,0.23948400000000003,0.31082799999999994,-0.055944000000000015,16.5,False
4.4016735553741455,5.91565567285,-5.712863957499999,6.608976021199999,-46.401250000000005,11.36625,9.791250000000002,6.976473692183332,-6.495855332784998,5.179164816758332,-38.167208333333335,3.2681249999999995,-57.02900000000001,0.2372346666666667,0.30977333333333334,-0.055944000000000015,16.5,False
4.414090633392334,5.88215615645,-5.828317647949999,6.287141381500001,-34.02875,11.541250000000002,12.416250000000002,6.986383965785,-6.675795592304997,5.212604512593333,-37.39283333333334,3.251791666666666,-54.41304166666667,0.23504133333333335,0.30811200000000005,-0.05583666666666668,16.5,False
4.427100658416748,5.7284173044,-5.8660046039,6.20279438485,-31.972500000000004,10.193750000000001,16.240000000000002,6.978826634406668,-6.8555563901299985,5.284628472853332,-38.25033333333333,3.4827916666666665,-51.36133333333335,0.2331,0.30632933333333334,-0.05583666666666668,16.5,False
4.439743518829346,5.769693494249999,-5.7768719620499995,6.4307107375,-34.92125,8.14625,24.465000000000003,6.966324136321668,-7.001498628541665,5.392345370229999,-41.29825000000001,4.068749999999999,-47.73270833333334,0.23136400000000001,0.30427600000000005,-0.05579000000000001,16.5,False
4.452205657958984,5.720042425300001,-5.42393062855,6.7728843693,-32.331250000000004,8.16375,30.345000000000002,6.959703993795001,-7.068058977198331,5.5321460306349985,-44.72591666666667,4.718875,-43.51900000000001,0.22987066666666667,0.3017373333333334,-0.05579000000000001,16.5,False
4.46478271484375,5.93479825365,-5.02911489955,6.943971185199999,-27.851250000000004,11.48,32.7075,6.972904398471668,-7.073303246729997,5.674558855711664,-47.10125000000001,5.336333333333333,-39.204958333333344,0.22851733333333335,0.2989653333333334,-0.05612133333333335,16.5,False
4.477306604385376,6.2081782357,-4.6085763276,6.759723844999999,-27.536250000000003,15.776250000000001,28.962500000000002,6.988697027631668,-7.026942308854998,5.777131184498332,-48.07716666666667,5.918499999999999,-35.37041666666667,0.22770533333333332,0.2958573333333334,-0.05612133333333335,16.5,False
4.489916563034058,6.1543397272,-4.386642031449999,6.401398660649999,-18.086250000000003,13.422500000000001,23.8,6.994220459800002,-7.012465732124998,5.837230912134999,-48.618208333333335,6.334124999999999,-31.846500000000006,0.2268373333333333,0.29273066666666675,-0.05585066666666668,15.5,False
4.502410650253296,5.941378515799999,-4.88195630965,6.635895275449999,-9.765,11.06,22.365000000000002,6.965207485775001,-7.009055959919999,5.8812588479749985,-49.31937500000001,6.4554583333333335,-28.14525000000001,0.22596933333333336,0.2896040000000001,-0.05585066666666668,15.5,False
4.51513671875,5.7613186151499995,-4.917848648649999,6.51745055675,-10.141250000000001,13.930000000000001,25.2175,6.889554411238335,-6.994419861683331,5.939224975459998,-50.14304166666668,6.23175,-24.130749999999995,0.22528800000000002,0.2862906666666667,-0.05584133333333335,15.5,False
4.527651786804199,5.806782244549999,-4.82811780115,6.117250976899999,-7.74375,10.115,26.71375,6.793562344601668,-6.9393650016949975,6.023611852486665,-50.147125,6.073666666666667,-19.82254166666666,0.22460666666666673,0.28297733333333336,-0.05584133333333335,15.5,False
4.540327548980713,5.6291151665,-4.7234318124,6.06879631925,1.26875,5.880000000000001,27.22125,6.704948147648334,-6.833642123151664,6.106882078966665,-48.949250000000006,6.198500000000001,-15.413416666666661,0.22411200000000006,0.27945866666666674,-0.055925333333333355,16.5,False
4.55306077003479,5.7044890784,-4.707878465499999,6.1531433159,-1.9687500000000002,6.527500000000001,28.840000000000003,6.633622093980001,-6.6724655808533315,6.147759465049999,-47.067125000000004,6.594583333333334,-11.58383333333333,0.22402800000000006,0.2760333333333334,-0.055925333333333355,16.5,False
4.569020509719849,5.90967361635,-3.9565321691,6.046662710199999,-14.516250000000001,5.5825000000000005,27.361250000000002,6.567739711726668,-6.515157435091666,6.157390576014999,-45.26754166666667,6.795833333333334,-8.103958333333331,0.22416800000000003,0.2722626666666668,-0.05614466666666668,15.5,False
4.581604719161987,6.00897575425,-3.65443831585,5.893522063799999,-10.228750000000002,1.05,22.601250000000004,6.482595107543334,-6.376812408435,6.168756483365,-43.485166666666665,6.660791666666668,-4.873749999999995,0.22433600000000004,0.2687813333333334,-0.05614466666666668,16.5,False
4.5939836502075195,5.796612748499999,-4.0600217465499995,6.2105710583,-5.888750000000001,-0.9187500000000001,19.223750000000003,6.411627977265001,-6.205047626131665,6.1324653405983325,-41.355999999999995,6.150375000000002,-1.7794583333333336,0.22464400000000007,0.26531866666666676,-0.05620533333333335,16.5,False
4.606518745422363,5.71585498575,-4.041477371399999,6.31884628095,-10.736250000000002,2.8437500000000004,18.462500000000002,6.329115477941667,-6.081697621101666,6.142016690809999,-39.93908333333333,5.543708333333334,1.3489583333333348,0.22510133333333343,0.26222000000000006,-0.05620533333333335,16.5,False
4.619252681732178,5.768497082949999,-3.7866417644999997,6.3936219871999995,-7.052500000000001,4.61125,16.5025,6.227958902526667,-5.955217006503333,6.184868155538331,-38.892875,5.335750000000002,4.538333333333333,0.2253720000000001,0.25895333333333337,-0.05637333333333335,16.5,False
4.631720542907715,5.7589257925499995,-3.9098721283999995,6.33918527305,2.63375,4.865,12.976250000000002,6.134180196795,-5.813502088018334,6.238507262154998,-36.99412499999998,5.383000000000001,7.7070000000000025,0.22561466666666677,0.2555186666666667,-0.05637333333333335,16.5,False
4.644211530685425,5.8660046039,-4.121636928499999,6.138188174649999,4.4275,5.425000000000001,13.107500000000002,6.07621406931,-5.642694434754999,6.265506277158331,-34.05062499999999,5.752541666666668,10.32966666666667,0.22614666666666675,0.25202800000000003,-0.05591133333333335,16.5,False
4.656657695770264,6.1950177114,-3.9774693668499994,5.733801155249998,-0.9100000000000001,3.3775000000000004,11.103750000000002,6.046722530765,-5.475974520099999,6.254539173574997,-31.257624999999997,5.999291666666668,11.891250000000003,0.22667866666666675,0.24853733333333342,-0.05591133333333335,16.5,False
4.669290542602539,6.38345249115,-3.8189448695999997,5.4376893585,-2.4937500000000004,-4.357500000000001,7.166250000000001,6.019583934443332,-5.349533785878332,6.228018723091665,-28.905624999999993,6.001333333333335,12.896041666666667,0.22744400000000006,0.24574666666666675,-0.056112000000000016,16.5,False
4.682198762893677,6.39302378155,-3.7238301712499995,5.42991268505,1.0762500000000002,-9.89625,3.2637500000000004,5.995556007501666,-5.23633333671,6.192644828988333,-26.53641666666666,5.534958333333336,13.970541666666668,0.2282093333333334,0.24295600000000006,-0.056112000000000016,16.5,False
4.694621801376343,6.181857187099999,-3.93080932615,5.812166095399999,0.035,-10.82375,0.4025,5.966941837243334,-5.110869671716666,6.177589986796665,-24.081749999999996,4.858583333333334,14.96279166666667,0.22936666666666675,0.2404173333333334,-0.05582266666666668,16.5,False
4.70711874961853,5.79003248635,-4.37946356365,6.10468865825,-2.0650000000000004,-8.321250000000001,1.0325000000000002,5.945286792713333,-4.993023158666666,6.197111431174998,-21.776708333333332,4.402125000000001,15.754375,0.23052400000000003,0.2378786666666667,-0.05582266666666668,16.5,False
4.719653844833374,5.6793644411,-4.5152562462,6.3361942448,-0.7262500000000001,-4.62875,7.5075,5.91242536234,-4.8855056631733325,6.2270017734866645,-19.661249999999995,4.458125000000001,16.365416666666665,0.23137333333333338,0.23584400000000005,-0.05592066666666669,16.5,False
4.732136964797974,5.886941801649999,-4.36391021675,6.1926248888,2.6162500000000004,-4.19125,10.281250000000002,5.898148187493333,-4.7878984412816665,6.245406567318331,-17.613166666666668,4.586166666666669,16.790958333333336,0.23222266666666672,0.23380933333333337,-0.05592066666666669,16.5,False
4.74454665184021,6.276373679799999,-3.8895331363,5.904289765499999,6.545000000000001,-8.461250000000001,8.0675,5.902535028926666,-4.6938405729133335,6.2474404665283325,-15.698666666666668,4.581208333333335,16.970916666666668,0.233072,0.2317186666666667,-0.056098000000000016,16.5,False
4.757084846496582,6.370291966849999,-3.6329029124499996,5.606383351799999,14.41125,-14.148750000000001,3.5787500000000003,5.916253878499999,-4.606163564811666,6.232505265466667,-13.578541666666668,4.224500000000002,16.877291666666668,0.23392133333333331,0.22962800000000005,-0.056098000000000016,16.5,False
4.769687652587891,6.357131442549998,-3.4881371451499996,5.41196651555,21.7175,-22.172500000000003,-2.5200000000000005,5.936792272483332,-4.522753757013333,6.201418511855,-11.006916666666667,3.432333333333334,16.630833333333335,0.23479866666666666,0.2281813333333334,-0.055743333333333346,16.5,False
4.782796621322632,6.138786380299999,-3.44745916095,5.319842845449999,25.9875,-25.43625,-10.281250000000002,5.954040535391665,-4.444169474791666,6.16020214257,-8.354500000000002,2.3342083333333337,16.129458333333336,0.23567599999999997,0.22673466666666675,-0.055743333333333346,16.5,False
4.795362710952759,5.3826544387,-3.6903306548499994,5.517250709949999,38.50000000000001,-22.925,-13.46625,5.954658681229999,-4.3688155030799996,6.125964839201666,-6.069583333333335,1.0686666666666669,15.354791666666669,0.23645066666666664,0.22595066666666674,-0.05588800000000002,16.5,False
4.830320835113525,5.279763066899999,-3.190828937099999,4.689334090349999,60.751250000000006,-28.42,-17.832500000000003,5.939304736213332,-4.296173396981668,6.093522152783333,-3.6114166666666656,-0.06241666666666544,14.464625000000002,0.23729999999999998,0.22545600000000002,-0.055986000000000015,16.5,False
4.852485656738281,5.127818831799999,-2.8516463335499993,3.9146577735999997,101.18500000000002,-50.07625,-28.997500000000002,5.9193446076916665,-4.205046736298334,6.033522126088332,-0.19279166666666517,-1.4513333333333331,13.17429166666667,0.23761733333333332,0.22540933333333335,-0.05604666666666668,16.5,False
4.8723437786102295,4.61754941235,-2.7822544781499996,3.4516466004999993,139.94750000000002,-71.49625,-44.61625,5.894040508696666,-4.113561152225,5.938527068868333,4.994208333333336,-3.7120416666666665,11.118625000000002,0.23771066666666668,0.22620266666666666,-0.055584666666666685,16.5,False
4.895348787307739,3.4438699270499993,-4.947758931149999,3.8566318255499996,128.68625,-69.91250000000001,-61.32875000000001,5.841737394698332,-4.033680757761667,5.823352541055,10.649333333333335,-6.5196250000000004,8.155000000000003,0.23766400000000004,0.22722933333333334,-0.055584666666666685,16.5,False
4.914658784866333,2.5064816734999997,-6.161518194999999,4.3836510032,105.95375000000001,-51.38875,-55.431250000000006,5.749095279701667,-4.04949332711,5.732225880371667,15.41925,-8.934333333333333,5.093666666666669,0.23678666666666667,0.22933866666666666,-0.055603333333333345,16.5,False
4.939641714096069,2.4514467537,-6.556333923999999,3.8177484582999996,110.40750000000001,-49.95375000000001,-48.71125000000001,5.624608683936667,-4.112404621301667,5.658566824668332,19.619833333333336,-11.038708333333334,2.459041666666667,0.23534000000000002,0.232148,-0.055505333333333344,16.5,False
4.9521307945251465,2.3892333660999996,-6.818946204349999,3.79920408315,126.02625000000002,-56.455000000000005,-51.03875000000001,5.497489983311667,-4.181437553311667,5.573083237283332,24.052,-13.176625,0.06650000000000039,0.233688,0.23571333333333336,-0.05540266666666668,16.5,False
4.964795827865601,2.4885355039999997,-7.114459795449998,3.6951163000499996,140.49,-62.91250000000001,-53.37500000000001,5.380540778736667,-4.249174373080001,5.476971529516665,28.73529166666667,-15.568583333333333,-2.4383333333333344,0.23174666666666666,0.239428,-0.05540266666666668,16.5,False
4.977248907089233,2.9276184510999994,-7.255038123199999,3.765106361099999,145.17125000000001,-62.3175,-55.93000000000001,5.28359158306,-4.325844397221667,5.392086147781668,33.90275,-18.156833333333335,-5.108833333333332,0.2291426666666667,0.24390799999999999,-0.05515066666666668,16.5,False
4.98973274230957,3.07896448055,-7.757530869199999,4.11864590025,131.41625000000002,-59.185,-59.377500000000005,5.194758044035,-4.405505449613334,5.313880729138334,38.7975,-20.484333333333336,-7.909125000000001,0.22661333333333336,0.248276,-0.05515066666666668,16.5,False
5.002070903778076,3.1716863562999995,-8.41017323335,4.560719875599999,90.65875000000001,-48.501250000000006,-64.44375000000001,5.109354217403333,-4.510510481376667,5.2512087172066675,42.7035,-22.52541666666667,-10.892875,0.2234866666666667,0.25359600000000004,-0.05429666666666668,16.5,False
5.014400959014893,3.0891339766,-9.2829552767,4.810171631649999,44.878750000000004,-39.917500000000004,-68.92375000000001,5.017709111823333,-4.647559395791666,5.2006005192166675,45.39995833333334,-24.232541666666666,-14.095666666666666,0.22013600000000003,0.2592613333333334,-0.05429666666666668,16.5,False
5.026824951171875,3.10408911785,-9.921240705249998,5.23609405445,13.457500000000001,-39.751250000000006,-67.98750000000001,4.923511662136665,-4.841318205826666,5.167659328090001,46.93645833333334,-25.676583333333333,-17.268125,0.21618800000000002,0.2651973333333334,-0.05403066666666668,16.5,False
5.042623996734619,3.3804601281499997,-10.4769737541,5.9808600887,13.203750000000001,-47.267500000000005,-62.24750000000001,4.833840635201666,-5.054319297603332,5.148058122958333,47.449500000000015,-27.04508333333333,-20.188875,0.21210000000000004,0.2711146666666667,-0.05403066666666668,16.5,False
5.055219888687134,3.8542390029499995,-10.4829558106,6.4959151533499995,46.611250000000005,-46.73375000000001,-54.90625000000001,4.756592345598333,-5.2683572791733315,5.1448078722599995,48.43620833333334,-28.670833333333334,-22.82991666666667,0.2076106666666667,0.2768826666666667,-0.05412866666666668,16.5,False
5.06757378578186,4.308875296949999,-10.53260687955,6.52343261325,81.05125000000001,-41.71125000000001,-48.62375,4.69974286866,-5.485426169369998,5.150411065181666,50.74329166666668,-30.321083333333334,-25.149833333333337,0.20330800000000002,0.2828186666666667,-0.05412866666666668,16.5,False
5.080329895019531,4.4973100767,-10.678569058149998,6.21954414305,99.58375000000001,-36.295,-46.43625,4.6525843232516655,-5.711587785446665,5.153501794373332,53.83700000000001,-31.810041666666663,-27.263833333333334,0.19861333333333334,0.2892120000000001,-0.05411466666666668,16.5,False
5.092782020568848,4.528416770499999,-11.124232267399998,5.7643096434,93.38875000000002,-28.805000000000003,-43.61000000000001,4.612325083006667,-5.935516100429999,5.144070085291665,56.99779166666668,-33.11204166666666,-29.216250000000006,0.19362933333333335,0.29566133333333333,-0.05411466666666668,16.5,False
5.10539984703064,4.554139613449999,-11.7583302564,5.33419978105,62.84250000000001,-20.816250000000004,-36.041250000000005,4.569134635076666,-6.174220094968333,5.1298926113866665,59.786125000000006,-34.152125,-31.025166666666667,0.18851466666666672,0.3025400000000001,-0.05361533333333335,16.5,False
5.118093967437744,4.5116670123,-11.432906382799999,5.016552580899999,19.1275,-20.160000000000004,-34.30875,4.510390840246665,-6.433342842359999,5.114977350513334,61.46320833333335,-34.856208333333335,-32.57245833333333,0.18340000000000006,0.30932533333333345,-0.05361533333333335,16.5,False
5.130654811859131,4.477569290249999,-11.070393758899998,5.04706106905,-14.008750000000001,-26.810000000000002,-30.24875,4.447100682476665,-6.6852472415749995,5.100141850393333,61.70179166666667,-35.399,-33.868624999999994,0.1779026666666667,0.31648400000000004,-0.052952666666666676,16.5,False
5.14324688911438,4.1401813036499995,-10.52064276655,4.7347977197499995,-28.770000000000003,-40.5825,-22.575000000000003,4.383052797549999,-6.921299191064999,5.076851710420001,60.99654166666668,-36.07129166666667,-34.83404166666667,0.172116,0.3235773333333334,-0.052952666666666676,16.5,False
5.155812978744507,4.3010986235,-9.719047195549999,4.943571491599999,-33.416250000000005,-56.28875000000001,-17.2375,4.319304015448332,-7.128856611426666,5.040740029348334,59.92437500000002,-37.32925,-35.49495833333334,0.16603066666666663,0.330232,-0.05349866666666668,16.5,False
5.168407917022705,3.9541393464999994,-9.651449957099999,5.2414779053,-39.74250000000001,-68.24125000000001,-14.21,4.267000901449999,-7.294320294216665,5.000221566655,58.844333333333346,-39.13583333333334,-36.13283333333334,0.1602253333333333,0.33668133333333333,-0.05349866666666668,16.5,False
5.181066989898682,2.9324040963,-9.628718142399999,6.179464364499999,-58.73875,-69.15125,-8.610000000000001,4.206841353248332,-7.469634430043332,4.969473796245,57.29908333333335,-41.34666666666667,-36.87979166666667,0.15407466666666667,0.34328000000000003,-0.053578000000000015,16.5,False
5.19360876083374,2.7254249414,-9.0963151139,6.543771605349999,-82.48625000000001,-53.847500000000004,-2.6425,4.1067814881916656,-7.648777082029998,4.977370110825,54.863666666666695,-43.35275,-37.40858333333334,0.1481386666666666,0.3503920000000001,-0.053578000000000015,16.5,False
5.213357925415039,2.8486553052999994,-8.3952180921,6.428916120549999,-89.075,-52.753750000000004,-6.308750000000001,3.991866182826666,-7.802336472384998,5.001737020968333,51.432500000000026,-44.72154166666668,-37.74400000000001,0.1417173333333333,0.35741066666666677,-0.053265333333333345,16.5,False
5.225990056991577,2.7170500623000002,-7.951947705449999,6.101697629999999,-62.09875,-61.853750000000005,-14.621250000000002,3.875236021264999,-7.957191974981666,5.026203632053332,48.17225000000003,-46.035791666666675,-38.105375,0.13524,0.3640093333333335,-0.053265333333333345,16.5,False
5.238579750061035,2.1834506225,-8.253443353049999,6.120840210799999,-28.945000000000004,-71.68875000000001,-20.273750000000003,3.7515669732216663,-8.109315671776665,5.053342228375,45.778833333333345,-47.467875000000014,-38.47462500000001,0.12852933333333336,0.36966533333333346,-0.053820666666666676,16.5,False
5.251217842102051,1.7898313048,-8.6703926911,6.115456359949999,-7.586250000000001,-77.525,-18.313750000000002,3.621995629431667,-8.276274868691665,5.077170753433334,44.25225000000001,-49.09975000000001,-38.73566666666667,0.12186533333333335,0.37526533333333345,-0.053820666666666676,16.5,False
5.263729095458984,0.8333004704499999,-9.61854864635,5.927619785849998,-7.98,-78.19000000000001,-11.707500000000001,3.4888948723066666,-8.462257005276665,5.103571562786668,42.66033333333335,-50.97633333333335,-38.87070833333333,0.11454800000000004,0.3806506666666668,-0.053666666666666675,16.5,False
5.276201963424683,0.49651068949999994,-9.758528768449999,6.064010674049999,-18.585,-74.40125,1.5137500000000002,3.3439297031233326,-8.682316923723333,5.1543791626600015,39.92333333333335,-52.478416666666675,-38.444583333333334,0.10755733333333338,0.38585866666666685,-0.053666666666666675,16.5,False
5.288736820220947,0.43489550755,-9.473184673399999,5.84626381745,-25.3225,-70.83125000000001,11.602500000000001,3.1868408994333333,-8.912945141986665,5.234259557123334,35.20270833333335,-52.885291666666674,-37.09562499999999,0.10071600000000006,0.3900400000000002,-0.05384866666666668,16.5,False
5.301348924636841,0.5922235935,-8.845666946549999,5.1541398804,-27.580000000000002,-70.18375,14.148750000000001,3.061397174628333,-9.122915325136665,5.309972452225,29.62283333333334,-52.70329166666667,-34.72904166666665,0.0938746666666667,0.3942213333333335,-0.05384866666666668,16.5,False
5.31383490562439,0.59401821045,-8.270791316899999,4.9280181447,-18.611250000000002,-80.3075,10.42125,2.9752555610283333,-9.231908394566664,5.337828895326666,24.923208333333335,-53.15041666666668,-32.31666666666666,0.08743466666666672,0.3974600000000002,-0.053564000000000014,16.5,False
5.326205730438232,0.6903293201,-8.618947005199999,4.8023949582,4.086250000000001,-92.67125000000001,6.562500000000001,2.914537687553333,-9.293364055009997,5.357390220081666,21.218458333333345,-54.39845833333334,-30.277041666666666,0.08162000000000004,0.4000173333333335,-0.053564000000000014,16.5,False
5.338595867156982,0.48275195955,-8.47238662095,5.227719175349999,30.563750000000002,-102.08625,13.203750000000001,2.8618756501649996,-9.357252418429997,5.387998409173334,17.798375000000007,-55.899083333333344,-28.39229166666666,0.07524533333333339,0.40172533333333343,-0.05387666666666668,16.5,False
5.351334095001221,0.2237289131,-9.188438783999999,5.845067406149999,44.03875000000001,-100.69500000000001,25.716250000000002,2.7938995481366664,-9.419246463958332,5.4407800876916665,14.732666666666663,-57.352750000000015,-26.108833333333326,0.06887066666666672,0.40343333333333337,-0.05387666666666668,16.5,False
5.363769054412842,-0.0370887503,-8.590831339649998,5.81396071235,31.01,-83.93875000000001,36.05875,2.705105889488333,-9.481978296454999,5.506124084860001,11.22420833333333,-58.40800000000001,-23.281416666666658,0.0630746666666667,0.4046373333333334,-0.05342400000000001,16.5,False
5.376281976699829,0.40558343069999997,-8.345567023149998,5.130211654399999,9.012500000000001,-67.0425,31.456250000000004,2.597668154748333,-9.526943421146665,5.566841958335,7.243541666666667,-58.85337500000001,-20.180124999999993,0.0572786666666667,0.4058413333333333,-0.05342400000000001,16.5,False
5.388764142990112,0.5216353268,-8.27378234515,5.059025182049999,-9.98375,-63.98875,21.113750000000003,2.5093331204316667,-9.542337246539999,5.593262707876667,3.2147499999999956,-59.14329166666667,-17.195499999999992,0.05168800000000004,0.40615866666666656,-0.05324200000000001,16.5,False
5.401609182357788,0.3439682487499999,-8.26780028865,4.9375894351,1.00625,-70.16625,14.910000000000002,2.4231516264549993,-9.528618396966664,5.603172981478334,0.3701249999999988,-59.867791666666676,-14.375374999999996,0.04609733333333336,0.40647599999999995,-0.05324200000000001,16.5,False
5.414004802703857,0.15373885204999999,-8.9276211206,5.132604476999999,19.145000000000003,-72.4675,18.83875,2.3306690329649995,-9.48648477901833,5.600281654170001,-0.40920833333333484,-60.90991666666668,-11.554666666666668,0.040609333333333365,0.4067933333333333,-0.05337266666666667,16.5,False
5.426451206207275,0.26261228035,-9.24287549815,5.422136011599999,22.40875,-68.60875,29.793750000000003,2.2336201363466666,-9.452765920546664,5.595396308028333,0.05308333333333195,-61.92054166666667,-8.585208333333334,0.03512133333333335,0.40711066666666657,-0.05337266666666667,16.5,False
5.439100027084351,0.42652062845,-8.427521197199999,5.81156788975,18.47125,-58.96625,35.831250000000004,2.125085691248333,-9.39609590530333,5.5753962991299995,0.007291666666667614,-62.52020833333334,-5.495000000000002,0.029894666666666694,0.40763333333333324,-0.05294800000000001,16.5,False
5.45493221282959,0.28055844984999995,-8.3832539791,5.1900322194,9.625000000000002,-44.975,29.977500000000003,2.0050058771049994,-9.318927376453331,5.546243743786666,-1.3655833333333343,-62.82645833333334,-2.581833333333335,0.024668000000000013,0.4081559999999999,-0.05294800000000001,16.5,False
5.467449903488159,-0.12143574694999999,-8.52383230685,4.56730013775,-12.59125,-38.080000000000005,23.966250000000002,1.8762520810366665,-9.257352074879998,5.501597662108334,-4.324541666666668,-62.86583333333335,-0.07058333333333534,0.02001066666666668,0.4083613333333333,-0.052369333333333344,16.5,False
5.479952096939087,0.80458659925,-9.4049892293,5.3563333901,-28.385,-35.105000000000004,33.60875,1.729911038858333,-9.156654123796665,5.467061255915,-8.183291666666666,-62.97229166666668,2.1387916666666644,0.015353333333333346,0.40856666666666663,-0.052369333333333344,16.5,False
5.492363929748535,0.014955141249999998,-8.292326720299998,5.56151792805,-5.075,-43.260000000000005,23.87,1.5925231412416667,-9.095996070886665,5.462973517306666,-11.870833333333334,-63.34737500000002,4.584708333333333,0.01050933333333334,0.40842666666666666,-0.052822000000000015,16.5,False
5.504956960678101,0.15134602945,-7.872386354,5.6632128885499995,19.993750000000002,-43.041250000000005,25.900000000000002,1.4635101227250003,-8.998807592949998,5.486981504059999,-13.289499999999995,-64.18008333333336,6.6068333333333324,0.005665333333333341,0.40828666666666663,-0.052822000000000015,16.5,False
5.517832040786743,0.51146583075,-8.14337351345,5.606383351799999,28.000000000000004,-40.932500000000005,28.630000000000003,1.3180663890216668,-8.886205349431664,5.507101154088333,-12.639083333333327,-64.89379166666669,8.614083333333333,0.0014373333333333384,0.40774533333333335,-0.05268666666666668,16.5,False
5.530339002609253,0.5700899844499999,-7.633104094,5.983252911299999,23.135,-34.816250000000004,30.747500000000002,1.189771217285,-8.796594143061665,5.535476042086667,-11.116874999999995,-65.15454166666669,10.524791666666667,-0.0027906666666666705,0.407204,-0.05268666666666668,16.5,False
5.542985200881958,0.6664010940999998,-7.027121770549999,5.994020612999999,21.79625,-21.735000000000003,24.360000000000003,1.0658429467933332,-8.692626001091666,5.5770114543850005,-9.248166666666663,-64.54145833333335,12.153750000000004,-0.006934666666666675,0.4074,-0.05240666666666668,16.5,False
5.555670976638794,0.5156532703,-7.295117901749999,4.9016970960999995,13.133750000000001,-13.037500000000001,14.918750000000001,0.9492726057966665,-8.612386683238332,5.60087985982,-7.448583333333329,-63.033541666666686,13.370000000000003,-0.011078666666666676,0.40759599999999996,-0.05240666666666668,16.5,False
5.568953990936279,0.6717849449499999,-7.79521782515,4.730012074549999,-5.71375,-15.452500000000002,6.597500000000001,0.8426723589666666,-8.53675354889,5.580959611675,-5.6898333333333335,-61.12866666666668,14.225166666666668,-0.014793333333333335,0.40780133333333335,-0.05207066666666668,16.5,False
5.581611156463623,0.4731806691499999,-8.315656740649999,4.8957150396,-15.426250000000001,-22.688750000000002,6.991250000000001,0.7645467010766666,-8.479884131763331,5.526921701291667,-3.7942916666666684,-59.55366666666668,14.593833333333334,-0.018508000000000004,0.4080066666666667,-0.05207066666666668,16.5,False
5.594045162200928,0.07836494014999999,-8.5483587385,5.070391089399999,8.74125,-32.06,18.80375,0.6849055888733332,-8.476454419369997,5.4772506921533335,-1.0167500000000014,-58.752458333333344,15.044749999999999,-0.021728,0.40831466666666666,-0.05210333333333335,16.5,False
5.606507062911987,0.2727817764,-8.434699665,5.0979085493,44.24875,-40.73125,30.896250000000002,0.5982455303766667,-8.475018725809997,5.439085171683333,2.337999999999999,-58.08775000000001,16.119250000000005,-0.024948000000000005,0.40862266666666663,-0.05210333333333335,16.5,False
5.61913800239563,0.43489550755,-8.68175859845,5.3036912929,53.13875,-41.501250000000006,39.37500000000001,0.5230311399833333,-8.495497299228331,5.4064032030049995,5.637333333333333,-57.28858333333334,17.815583333333336,-0.028121333333333335,0.4098453333333333,-0.05208000000000001,16.5,False
5.6316728591918945,0.6915257314000001,-8.021339560849999,5.337789014949999,42.166250000000005,-36.75,40.45125,0.4685744856449999,-8.49896689199833,5.378546759903333,7.925750000000002,-56.13416666666668,19.857833333333335,-0.031294666666666665,0.41106800000000004,-0.05208000000000001,16.5,False
5.643966197967529,0.8895318015499999,-7.683951574249999,5.346762099699999,26.845000000000002,-31.298750000000002,28.385,0.44540398680166654,-8.454121408436663,5.356991416315,9.331875,-54.66241666666668,21.69591666666667,-0.033973333333333335,0.412608,-0.05184666666666668,15.5,False
5.6564929485321045,0.67298135625,-8.032107262550001,5.4825547822499985,2.8175000000000003,-23.310000000000002,12.67875,0.4461018933933333,-8.388697650514997,5.337210749488333,10.4265,-53.035500000000006,22.6835,-0.036652000000000004,0.414148,-0.05184666666666668,15.5,False
5.66913914680481,0.8967102693499999,-7.66361258215,4.98724050405,-24.255000000000003,-16.5375,2.6250000000000004,0.45519461927333327,-8.327561033084997,5.315555704958333,10.87508333333333,-51.27791666666668,22.782083333333336,-0.039106666666666665,0.4161546666666667,-0.051688000000000005,16.5,False
5.6816699504852295,0.7136593404499999,-7.599604577599999,5.529214822949999,-21.918750000000003,-8.14625,-8.82,0.4487539384416666,-8.293822234424997,5.300660384273333,10.734791666666666,-49.434000000000005,22.324166666666663,-0.04156133333333334,0.41816133333333333,-0.051688000000000005,16.5,False
5.6939170360565186,0.4390829471,-8.5938223679,6.021538072899999,-26.355000000000004,-4.777500000000001,-8.16375,0.4307678885649999,-8.289435392991665,5.33647296252,10.738583333333333,-47.23279166666667,21.584208333333333,-0.043586666666666676,0.41970133333333337,-0.05158066666666668,16.5,False
