time,accX,accY,accZ,gyroX,gyroY,gyroZ,temp
1.5020370483398438e-05,2.4693929231999996,-10.703095489799999,4.905286329999999,2.975,-271.7925,-191.62500000000003,19.5
0.00665593147277832,-0.7561319416,-9.669994332249999,-4.8514478215,17.841250000000002,279.9825,212.40625000000003,19.5
0.012100696563720703,0.7758727280500001,-9.92482993915,-0.430708068,-117.46000000000001,-84.86625000000001,-35.595000000000006,19.5
0.017639636993408203,0.7974081314499999,-10.140782178799999,-0.35114671655,-23.3625,-9.45875,-1.3475000000000001,19.5
0.02304863929748535,0.9134600275499999,-10.190433247749999,-0.37926238209999996,0.20125,-2.4325,4.305000000000001,20.5
0.028472423553466797,0.8620143416499999,-10.05763159345,-0.34337004309999997,13.51875,0.9100000000000001,7.166250000000001,20.5
0.034021615982055664,0.9236295236,-10.009176935799998,-0.37387853125,21.227500000000003,1.6450000000000002,7.612500000000001,20.5
0.039452314376831055,1.0187442219499998,-9.826724212550001,-0.38703905555,17.2375,0.11375000000000002,6.545000000000001,20.5
0.04501628875732422,1.11206430335,-9.7806623775,-0.47497528609999995,12.853750000000002,-1.6275000000000002,4.47125,20.5
0.05051541328430176,1.1473584366999998,-9.76570723625,-0.5539384318999999,9.47625,-2.98375,2.56375,20.5
0.05594015121459961,1.1898310378499999,-9.718448989899999,-0.5670989562,6.527500000000001,-3.8675,0.9800000000000001,20.5
0.061408281326293945,1.1916256548,-9.67238715485,-0.4791627256499999,5.495,-4.48,-0.3325,20.5
0.0670309066772461,1.2299108163999999,-9.616155823749999,-0.6771687957999999,4.1825,-4.1475,-1.9775000000000003,20.5
0.07242798805236816,1.25204442545,-9.617950440699998,-0.7130611348,3.08,-3.2025,-3.5525,20.5
0.07786893844604492,1.23290184465,-9.695118969549998,-0.69930240485,2.09125,-2.5812500000000003,-4.305000000000001,20.5
0.08326888084411621,1.17547410225,-9.7423772159,-0.6664010940999998,1.2337500000000001,-2.2662500000000003,-4.64625,20.5
0.0888519287109375,1.07018990785,-9.823134978649998,-0.6173482307999999,1.1812500000000001,-1.4000000000000001,-4.130000000000001,20.5
0.0943608283996582,1.0360921857999998,-9.882357337999998,-0.58444692005,1.7500000000000002,-0.28,-3.4825000000000004,20.5
0.09984660148620605,0.99601240725,-9.958329455549999,-0.5982056499999999,2.8350000000000004,0.37625000000000003,-2.31875,20.5
0.10536050796508789,1.0049854919999999,-9.94157969735,-0.63828542855,3.8325000000000005,0.9100000000000001,-1.1900000000000002,20.5
0.11083650588989258,1.01515498805,-9.856634495049999,-0.6185446420999999,4.112500000000001,1.3475000000000001,-0.6125,20.5
0.11631155014038086,1.0265208954,-9.774680320999998,-0.64426748505,5.827500000000001,1.8637500000000002,-0.7962500000000001,20.5
0.12169837951660156,1.1270194446,-9.705886671250001,-0.7262216591,5.99375,1.8637500000000002,-1.6187500000000001,20.5
0.12725305557250977,1.1509476706000001,-9.6538427797,-0.8482556117,5.836250000000001,1.1725,-2.63375,20.5
0.13271141052246094,1.23409825595,-9.627521731099998,-0.9116654106,6.527500000000001,0.6475000000000001,-3.7625,20.5
0.13818717002868652,1.3387842447,-9.60060247685,-0.9337990196499999,5.687500000000001,0.32375000000000004,-4.742500000000001,20.5
0.14361906051635742,1.3184452525999997,-9.61974505765,-0.98404829425,5.442500000000001,-0.7175,-6.0025,20.5
0.14915704727172852,1.3345968051500001,-9.650851751449999,-0.9678967416999998,5.477500000000001,-1.2425000000000002,-6.965000000000001,20.5
0.1545870304107666,1.3268201317,-9.6574320136,-0.9296115801,4.996250000000001,-1.54,-8.408750000000001,20.5
0.15999794006347656,1.3220344865,-9.719047195549999,-0.9098707936499998,3.8850000000000002,-1.5750000000000002,-9.12625,20.5
0.1655139923095703,1.26161571585,-9.8261260069,-0.8679963981499998,2.9400000000000004,-1.11125,-9.047500000000001,20.5
0.17081189155578613,1.2011969452,-9.855438083749998,-0.79621172015,2.21375,0.035,-8.89,20.5
0.17624568939208984,1.12881406155,-9.91286582615,-0.7824529901999999,2.54625,1.05,-7.875000000000001,20.5
0.18167567253112793,1.1030912186,-9.812367276949999,-0.7489534737999999,2.2575000000000003,2.345,-7.06125,20.5
0.1872265338897705,1.0959127508,-9.92961558435,-0.7555337359499998,2.98375,3.3600000000000003,-6.352500000000001,20.5
0.19544243812561035,1.1593225497,-9.863812962849998,-0.8027919822999998,3.6050000000000004,3.5087500000000005,-6.64125,20.5
0.20084047317504883,1.1617153723,-9.7519485063,-0.8584251077499999,4.8475,3.4562500000000003,-7.437500000000001,20.5
0.2062511444091797,1.22691978815,-9.76690364755,-0.8853443619999999,4.90875,2.9487500000000004,-8.443750000000001,20.5
0.21166133880615234,1.2430713406999998,-9.6897351187,-0.9140582331999999,4.760000000000001,3.2025,-9.467500000000001,20.5
0.21722722053527832,1.30947216785,-9.65324457405,-0.9798608546999998,4.532500000000001,3.1325000000000003,-10.745000000000001,20.5
0.22263693809509277,1.2843475305499996,-9.803394192199999,-1.12761765025,4.025,2.77375,-11.66375,20.5
0.22807788848876953,1.2442677519999998,-9.815956510849999,-1.1401799688999998,3.6225000000000005,1.7412500000000002,-12.215000000000002,20.5
0.23349976539611816,1.2915259983499998,-9.865607579799999,-1.12642123895,2.9225000000000003,0.36750000000000005,-12.783750000000001,20.5
0.23902177810668945,1.2771690627499999,-9.8979106849,-1.1168499485499999,4.03375,-0.60375,-13.151250000000001,20.5
0.24446582794189453,1.29750805485,-9.927820967399999,-1.0073783146,5.3025,-2.0825,-13.396250000000002,20.5
0.24985766410827637,1.2311072276999997,-9.992427177599998,-0.94217389875,5.985,-3.1237500000000002,-13.221250000000001,20.5
0.2553534507751465,1.2251251712,-10.08634546465,-0.99242317335,6.098750000000001,-3.4562500000000003,-13.361250000000002,20.5
0.26074838638305664,1.2215359372999999,-10.106086251099997,-0.9816554716499999,5.468750000000001,-3.4037500000000005,-13.002500000000001,20.5
0.26624155044555664,1.2059825903999999,-10.160522965250001,-1.0043872863499999,4.26125,-2.6250000000000004,-12.031250000000002,20.5
0.27163147926330566,1.1569297271,-10.185647602549999,-0.9577272456499999,2.3975000000000004,-1.4612500000000002,-11.34875,20.5
0.2771773338317871,1.1449656141,-10.225129175449998,-0.9104689992999999,1.2075,0.07,-10.517500000000002,20.5
0.282581090927124,1.2466605746,-10.308877966449998,-1.0432706536,-1.1725,2.2925000000000004,-9.73,20.5
0.2879812717437744,1.0779665813,-10.247860990149999,-0.7764709337,-2.8262500000000004,4.086250000000001,-9.00375,20.5
0.29340028762817383,1.1659028118499999,-10.236495082799998,-0.80458659925,-4.0600000000000005,5.862500000000001,-7.848750000000001,20.5
0.2989521026611328,1.1365907349999997,-10.24068252235,-0.8273184139499999,-4.558750000000001,6.991250000000001,-7.166250000000001,20.5
0.3043828010559082,1.1718848683499998,-10.211370445499998,-0.8273184139499999,-4.0512500000000005,7.682500000000001,-6.527500000000001,20.5
0.3098108768463135,1.1898310378499999,-10.2029955664,-0.93738825355,-4.01625,7.315,-6.816250000000001,20.5
0.315349817276001,1.23409825595,-10.171290666949998,-1.0444670649,-2.45,6.483750000000001,-7.09625,20.5
0.32076478004455566,1.2412767237499998,-10.1659068161,-1.2179467034,-1.60125,4.961250000000001,-7.665000000000001,20.5
0.3262186050415039,1.3956137814499998,-10.232307643249998,-1.2963116435499997,0.37625000000000003,2.7037500000000003,-8.120000000000001,20.5
0.33164453506469727,1.5158531170999998,-10.1862458082,-1.43030970915,1.7675,0.24500000000000002,-8.662500000000001,20.5
0.33715271949768066,1.5786647103499998,-10.2783694783,-1.4488540842999997,3.7975000000000003,-1.3475000000000001,-8.951250000000002,20.5
0.34259963035583496,1.6181462832499998,-10.36630570885,-1.4638092255499997,5.022500000000001,-2.5987500000000003,-9.047500000000001,20.5
0.34806227684020996,1.7108681589999999,-10.376475204899998,-1.34656091815,5.040000000000001,-4.1825,-8.461250000000001,20.5
0.353440523147583,1.7892330991499998,-10.41775139475,-1.24725878025,3.75375,-5.13625,-7.53375,20.5
0.3589744567871094,1.95673068115,-10.432706535999998,-1.0713863191499997,2.0650000000000004,-5.390000000000001,-6.597500000000001,20.5
0.364429235458374,2.1643080417,-10.335797220700002,-0.7561319416,0.035,-4.62,-4.9437500000000005,20.5
0.36980414390563965,2.59681072665,-10.1958170986,-0.5778666578999999,-3.0537500000000004,-2.87875,-3.7625,20.5
0.3759031295776367,2.7373890543999995,-10.030712339199999,-0.31405796625,-5.94125,-0.9362500000000001,-2.9225000000000003,20.5
0.3814890384674072,3.15433839245,-9.821340361699999,-0.13758729949999998,-7.9887500000000005,0.55125,-2.0650000000000004,20.5
0.38703083992004395,3.5784661982999997,-9.65683380795,-0.07477570624999999,-8.846250000000001,0.9187500000000001,-1.6275000000000002,20.5
0.3924899101257324,3.8805600515499994,-9.537790883599998,-0.057427742399999995,-7.525,0.6825000000000001,-1.6362500000000002,20.5
0.39791369438171387,4.2747775749,-9.412765902749998,-0.10229316614999999,-5.180000000000001,-0.35875,-2.2750000000000004,20.5
0.40325164794921875,4.713860522,-9.291330155799999,-0.07118647234999999,-2.9225000000000003,-1.82875,-3.2375000000000003,20.5
0.4089345932006836,4.99681179445,-9.229116768199999,-0.06999006104999998,0.0175,-3.4737500000000003,-3.8237500000000004,20.5
0.4143795967102051,5.31745002285,-9.1728854371,-0.18604195715,0.7175,-3.8412500000000005,-5.005000000000001,20.5
0.41979265213012695,5.4807601652999995,-9.340383019099999,-0.32482566794999995,1.6275000000000002,-4.87375,-5.608750000000001,20.5
0.4253404140472412,5.598008472699999,-9.308079914,-0.40677984199999995,1.0150000000000001,-5.985,-5.3812500000000005,20.5
0.4307692050933838,5.602794117899999,-9.4253282214,-0.46121655614999996,-3.6312500000000005,-5.73125,-4.26125,20.5
0.4362051486968994,5.75653296995,-9.483952375099998,-0.48335016519999996,-8.9425,-3.1762500000000005,-3.0187500000000003,20.5
0.44163012504577637,5.830710470549999,-9.53360344405,-0.38464623295,-17.42125,1.0325000000000002,-0.9625000000000001,20.5
0.44722914695739746,5.979065471749999,-9.61376300115,-0.2955135911,-28.586250000000003,7.043750000000001,2.345,20.5
0.45261096954345703,5.998208052549999,-9.61854864635,-0.19022939669999997,-42.227500000000006,14.673750000000002,5.1537500000000005,20.5
0.4580810070037842,5.70030163885,-9.8404829425,0.11006983959999998,-52.963750000000005,19.71375,8.365,20.5
0.4634878635406494,6.1932230944499995,-9.567102960449999,0.22492532440000002,-66.27250000000001,26.398750000000003,11.401250000000001,20.5
0.4692506790161133,6.3134624300999995,-9.53719267795,0.3296113131499999,-78.03250000000001,32.27875,13.203750000000001,20.5
0.47475099563598633,7.0570320530499995,-8.48435073395,1.62652116235,-91.90125,34.27375,11.9175,20.5
0.4801626205444336,6.317051663999999,-9.173483642749998,0.31944181709999997,-83.58000000000001,30.913750000000004,8.96,20.5
0.4856557846069336,6.380461462899999,-8.80857819625,0.06281159324999999,-72.03875000000001,20.37,-1.3650000000000002,20.5
0.4910616874694824,6.427719709249999,-8.85164900305,-0.17886348935000002,-50.338750000000005,4.2525,-12.127500000000001,20.5
0.4964923858642578,6.2488562199,-9.103493581699999,-0.34217363179999993,-18.1825,-18.970000000000002,-23.476250000000004,20.5
0.5019354820251465,5.5896335936,-9.42592642705,-0.6305087550999998,6.9037500000000005,-37.572500000000005,-34.431250000000006,20.5
0.5074481964111328,5.4341001246000005,-9.934401229549998,-0.5084748025,27.798750000000002,-53.760000000000005,-43.28625,20.5
0.5128593444824219,5.07697135155,-10.514660710049998,-0.3152543775499999,41.19500000000001,-63.77875000000001,-49.63,20.5
0.5182962417602539,4.2939201557,-11.48375386305,-0.12083754129999999,47.215,-66.78,-50.032500000000006,20.5
0.5237593650817871,3.5844482548,-12.44207931435,0.32303105099999996,41.5275,-62.27375000000001,-43.618750000000006,20.5
0.5292840003967285,3.2506495021,-12.882956878399998,0.6203392590499999,29.268750000000004,-51.52,-33.66125,20.5
0.5346910953521729,3.1734809732500002,-12.842278894199998,0.96370930215,9.7825,-35.236250000000005,-22.163750000000004,20.5
0.5401339530944824,3.2566315585999996,-12.2093773165,1.09411813385,-27.895000000000003,-6.562500000000001,-9.196250000000001,20.5
0.5489847660064697,3.3786655112,-11.163115634649998,1.0372885971,-52.6925,11.24375,-3.2900000000000005,20.5
0.5543959140777588,3.5994033960499996,-10.5978112954,0.56051869405,-68.50375000000001,20.973750000000003,-2.66875,20.5
0.5598165988922119,2.883351233,-9.576076045199999,0.42891345105,-84.09625000000001,25.235000000000003,-8.102500000000001,20.5
0.5653526782989502,3.3565319021499995,-9.366105862049999,-0.18364913454999998,-73.79750000000001,17.430000000000003,-13.3,20.5
0.5707244873046875,3.6335011181,-8.569295936249999,-0.11246266220000001,-58.432500000000005,6.072500000000001,-23.94,20.5
0.5761556625366211,3.620340593799999,-7.886743289599999,-0.11186445655,-40.81,-5.608750000000001,-37.511250000000004,20.5
0.5815513134002686,4.8795634870499995,-6.2141602922,0.52462635505,-18.36625,-19.06625,-52.77125,20.5
0.5870001316070557,2.5298116938499997,-8.693722711449999,0.49232324994999993,3.3687500000000004,-33.6175,-66.31625000000001,20.5
0.5924034118652344,1.7964115669499998,-9.559326287,0.5670989562,20.930000000000003,-40.68750000000001,-69.09875000000001,20.5
0.5978293418884277,1.10249301295,-10.088738287249999,0.48574298779999997,33.81,-40.8975,-67.235,20.5
0.6032342910766602,0.9212367009999999,-10.325029519,0.6376872229,34.4575,-37.1525,-62.03750000000001,20.5
0.6086881160736084,0.43728833014999996,-10.412367543899999,0.6418746624499999,24.841250000000002,-31.360000000000003,-56.21000000000001,20.5
0.6142370700836182,-0.04307080679999999,-10.468598874999998,0.8578269021,7.411250000000001,-20.76375,-47.923750000000005,20.5
0.619696855545044,-0.37746776514999997,-10.22153994155,1.1330015010999999,-15.662500000000001,-4.87375,-41.46625,20.5
0.6252470016479492,-0.4558327053,-9.5078806011,1.5212369679499997,-48.02,12.66125,-37.222500000000004,20.5
0.6306629180908203,-0.5204389155,-8.724231199599998,1.5804593272999998,-70.4375,33.206250000000004,-37.04750000000001,20.5
0.6360926628112793,-0.55214381495,-8.149953775599998,1.0983055734,-92.72375000000001,52.6925,-42.463750000000005,20.5
0.6415066719055176,-0.7214360139,-7.109674150249999,0.9008977089,-110.18875000000001,69.7025,-52.17625,20.5
0.6470513343811035,-0.8787640998499999,-6.2799629136999995,0.50189454035,-103.24125000000001,73.25500000000001,-63.04375,20.5
0.6524455547332764,-1.1874382152499998,-5.415555749449999,0.40558343069999997,-87.94625,65.08250000000001,-78.61875,20.5
0.6579194068908691,-1.5032907984500001,-5.133800888299999,0.16630117069999997,-64.9775,52.228750000000005,-98.1225,20.5
0.6633133888244629,-3.0705896014499996,-5.14875602955,-0.15254244074999998,-29.321250000000003,33.573750000000004,-122.08000000000001,20.5
0.6688342094421387,-4.961517661099999,-7.114459795449998,-0.4133601041499999,16.817500000000003,13.037500000000001,-134.73250000000002,20.5
0.6743261814117432,-6.915855519649999,-9.642476872349999,0.12861421474999998,59.823750000000004,-8.697500000000002,-137.66375000000002,20.5
0.6796910762786865,-8.965308076549999,-12.209975522149998,0.2763710103,87.59625000000001,-24.92,-125.27375,20.5
0.685142993927002,-10.213763268099997,-14.56570937185,0.37148570864999997,99.26875000000001,-21.665000000000003,-94.9025,20.5
0.6905598640441895,-10.383055467050001,-14.22592856265,0.36311082955,92.98625000000001,-4.585000000000001,-71.26,20.5
0.6960010528564453,-9.85902731765,-12.732807260249999,-0.27337998204999997,66.69250000000001,24.325000000000003,-55.26500000000001,20.5
0.7014107704162598,-9.2339024134,-11.007582165649998,-1.4165509792000002,31.526250000000005,47.626250000000006,-49.4025,20.5
0.7069487571716309,-8.13739145695,-10.5260266174,-2.52622245995,2.31875,65.89625000000001,-47.923750000000005,20.5
0.712432861328125,-7.931608713349999,-9.786644434,-3.22133742525,-22.032500000000002,74.42750000000001,-52.368750000000006,20.5
0.7178688049316406,-7.687540808149999,-8.8043907567,-3.6777683362,-32.48875,71.92500000000001,-57.198750000000004,20.5
0.7233016490936279,-6.99481866545,-7.979465165349999,-3.60179621865,-29.636250000000004,60.37500000000001,-64.92500000000001,20.5
0.72886061668396,-6.138188174649999,-7.3447689707,-2.7529424012999995,-18.0075,46.06,-72.73,20.5
0.734316349029541,-6.0131631938000005,-7.156932396599999,-2.1445672552499997,-2.02125,33.853750000000005,-76.88625,20.5
0.7397134304046631,-6.468397693449999,-7.3597241119499985,-1.6492529770499997,15.566250000000002,21.481250000000003,-81.17375000000001,20.5
0.7457013130187988,-6.9523460642999995,-8.23669359485,-1.12761765025,33.88875,16.082500000000003,-80.43875000000001,20.5
0.7511732578277588,-7.46979395155,-8.791828438049999,-0.8823533337499999,43.1375,17.45625,-73.49125000000001,20.5
0.7565720081329346,-7.913662543849999,-9.001200415549999,-0.8697910151,44.02125,20.0725,-67.09500000000001,20.5
0.7619650363922119,-8.29172851465,-9.116055900349998,-1.31545422435,40.9675,26.46,-59.255,20.5
0.7674911022186279,-8.5172520447,-9.1728854371,-1.7443676754,36.128750000000004,32.480000000000004,-53.322500000000005,20.5
0.7728018760681152,-8.63988420295,-9.133403864199998,-2.20199499765,29.338750000000005,36.085,-48.720000000000006,20.5
0.7782299518585205,-8.73081146175,-9.3056870914,-2.41136697515,22.4175,36.566250000000004,-43.82875000000001,20.5
0.7836427688598633,-8.90429110025,-9.206983159149999,-2.5782663514999995,17.403750000000002,34.4575,-40.407500000000006,20.5
0.7891547679901123,-8.858229265199999,-9.5461657627,-2.6620151424999996,19.78375,30.415000000000003,-36.30375,20.5
0.7946007251739502,-8.9001036607,-9.83629550295,-2.83370016405,20.95625,24.395000000000003,-31.998750000000005,20.5
0.800013542175293,-8.916255213249999,-9.860223728949999,-2.9874390161,24.132500000000004,18.235000000000003,-25.410000000000004,20.5
0.8055424690246582,-8.9359959997,-10.16530861045,-3.1776684127999997,30.257500000000004,10.832500000000001,-17.797500000000003,20.5
0.8109643459320068,-8.822336926199998,-10.085747258999998,-3.38644218465,36.706250000000004,0.1925,-12.8625,20.5
0.8163783550262451,-8.461618919249998,-10.001400262349998,-3.4259237575499992,42.87500000000001,-8.102500000000001,-8.60125,20.5
0.8217332363128662,-8.3485580514,-9.997811028449998,-3.2093733122499994,46.45375000000001,-15.417500000000002,-4.366250000000001,20.5
0.8274104595184326,-8.111070408349999,-10.019944637499998,-2.8378876036,45.963750000000005,-20.203750000000003,0.12250000000000001,20.5
0.8328342437744141,-8.0662049846,-10.02413207705,-2.50588346785,42.29750000000001,-20.9125,4.786250000000001,20.5
0.8382430076599121,-8.004589802649999,-9.97986485895,-2.2582263287499997,35.245000000000005,-18.051250000000003,8.96875,20.5
0.8436610698699951,-8.1068829688,-9.892526834049999,-2.2390837479499996,28.148750000000003,-13.982500000000002,12.670000000000002,20.5
0.849207878112793,-8.1176506705,-9.757930562799999,-2.32761818415,21.8225,-10.508750000000001,16.117500000000003,20.5
0.8546218872070312,-8.185846114599999,-9.5916293921,-2.52741887125,17.465000000000003,-8.023750000000001,20.676250000000003,20.5
0.8600497245788574,-8.207381518,-9.4540420926,-2.7433711108999996,19.32,-6.01125,24.745,20.5
0.8655655384063721,-7.5158557865999995,-9.722636429449999,-2.53459733905,18.9175,-4.305000000000001,30.511250000000004,20.5
0.8709535598754883,-7.9698938749499995,-8.8701933782,-3.2841490184999995,18.095000000000002,-16.957500000000003,31.928750000000004,20.5
0.8764734268188477,-7.785048329099999,-9.2542414055,-3.36729960385,23.292500000000004,-24.648750000000003,33.22375,20.5
0.8819065093994141,-7.5433732465,-8.863613116049999,-3.1914271427500003,25.515000000000004,-31.885,33.53,20.5
0.88741135597229,-7.5720871177,-8.60758109785,-3.0741788353499997,25.847500000000004,-36.977500000000006,33.425000000000004,20.5
0.8928394317626953,-7.5900332872,-8.688937066249999,-3.0251259720499997,18.200000000000003,-46.23500000000001,35.13125,20.5
0.9108850955963135,-7.2574309458,-9.369695095949998,-2.5052852621999997,12.433750000000002,-46.4275,37.0825,20.5
0.9163429737091064,-7.178467799999999,-9.620343263299999,-2.2803599377999997,8.015,-44.38875,39.847500000000004,20.5
0.9217729568481445,-6.964908382949999,-9.74776106675,-2.1367905817999997,2.87875,-40.6,43.128750000000004,20.5
0.9273247718811035,-6.830910317349999,-9.6035935051,-2.1056838879999997,-1.3475000000000001,-36.977500000000006,44.96625,20.5
0.9327538013458252,-6.81057132525,-9.361918422499999,-2.1044874766999997,-2.87875,-33.7575,45.56125,20.5
0.938180685043335,-6.777071808849999,-9.229116768199999,-2.1056838879999997,-3.3425000000000002,-31.19375,43.627500000000005,20.5
0.9436218738555908,-7.13360237625,-9.343972252999999,-2.08833592415,-1.5225000000000002,-29.758750000000003,41.4575,20.5
0.9492886066436768,-7.5828548194,-9.615557618099999,-2.0805592507,1.2775,-27.667500000000004,39.681250000000006,20.5
0.9547195434570312,-8.0051880083,-9.6897351187,-2.2402801592499997,5.06625,-24.955000000000002,38.8325,20.5
0.9601566791534424,-8.053044460299999,-9.67956562265,-2.6374887108499996,7.9625,-23.520000000000003,37.91375,20.5
0.9657154083251953,-7.975875931449999,-9.5054877785,-3.2572297642499994,8.610000000000001,-23.887500000000003,37.98375,20.5
0.9711203575134277,-7.697112098549998,-9.2590270507,-3.6658042231999994,9.388750000000002,-25.55,38.33375,20.5
0.9765853881835938,-7.28913584525,-8.62911650125,-3.51086895985,6.62375,-26.740000000000002,37.30125,20.5
0.9820003509521484,-6.5264236415,-7.95314411675,-3.2883364580500003,3.22,-29.618750000000002,33.95875,20.5
0.9874992370605469,-5.93958389885,-7.77487883305,-3.1501509529,2.1175,-31.526250000000005,29.706250000000004,20.5
0.992933988571167,-4.98484768145,-8.3796647452,-2.9587251449000003,4.305000000000001,-31.473750000000003,27.501250000000002,20.5
0.9984130859375,-4.1096728155,-8.9240318867,-2.6147568961499994,6.83375,-30.196250000000003,27.422500000000003,20.5
1.0039498805999756,-3.2721849055,-8.933603177099998,-2.2426729818499997,8.98625,-28.8575,28.805000000000003,20.5
1.0094027519226074,-2.9180471606999996,-8.885148519449999,-1.8807585635999997,4.85625,-27.597500000000004,32.22625,20.5
1.014948844909668,-2.69970209845,-8.699704767949997,-1.8526428980499998,0.5162500000000001,-23.415000000000003,34.20375000000001,20.5
1.0203657150268555,-2.43649161245,-8.1451681304,-1.9992032822999997,-6.4225,-18.43625,33.713750000000005,20.5
1.0258655548095703,-2.1146569727499998,-7.902894842149999,-1.6594224731,-15.382500000000002,-15.0325,31.640000000000004,20.5
1.0312526226043701,-1.8939190878999999,-7.755138046599999,-1.46620204815,-25.462500000000002,-10.49125,28.210000000000004,20.5
1.0366795063018799,-1.4309079148000001,-7.600202783249999,-1.1383853519499998,-34.71125000000001,-6.938750000000001,24.832500000000003,20.5
1.0421485900878906,-0.63948183985,-7.421339293899999,-0.6664010940999998,-38.85875,-3.75375,20.72875,20.5
1.047689437866211,0.12143574694999999,-7.238288364999999,-0.6616154488999999,-37.835,-1.8462500000000002,14.087500000000002,20.5
1.053112268447876,0.79142607495,-7.1976103808000005,-0.46660040699999994,-32.401250000000005,-2.30125,6.807500000000001,20.5
1.0586001873016357,1.57507547645,-7.62293459795,-0.44446679795,-21.157500000000002,-4.357500000000001,0.9012500000000001,20.5
1.0641381740570068,2.57407891195,-8.3569329305,-0.5258227663499999,-7.9975000000000005,-8.496250000000002,-3.75375,20.5
1.0695650577545166,3.30388980495,-9.0831545896,-0.8512466399499998,5.8187500000000005,-13.728750000000002,-9.05625,20.5
1.0751099586486816,3.45822686265,-9.61974505765,-1.2215359372999999,18.646250000000002,-19.64375,-16.4675,20.5
1.0805449485778809,3.457628657,-10.1611211709,-1.70548430815,27.492500000000003,-24.692500000000003,-22.610000000000003,20.5
1.0859708786010742,3.3678978095,-10.8191473859,-1.9022939669999996,28.253750000000004,-27.518750000000004,-24.438750000000002,20.5
1.09139084815979,3.21655178005,-11.72542894565,-2.01176560095,22.7325,-24.26375,-19.565,20.5
1.0969228744506836,3.07537524665,-12.123235702899997,-1.7563317884,7.262500000000001,-14.568750000000001,-12.8275,20.5
1.1023406982421875,2.9359933301999996,-12.170493949250002,-1.4003994266499997,-18.19125,-7.446250000000001,-3.64875,20.5
1.1077845096588135,2.65064923515,-12.360125140300001,-0.8506484342999999,-42.096250000000005,2.8437500000000004,4.68125,20.5
1.1132864952087402,2.42093826555,-12.221341429499999,-0.08673981925,-65.89625000000001,16.380000000000003,14.6475,20.5
1.1188225746154785,2.28095814345,-11.9497560644,0.31226334929999994,-84.42875000000001,29.295,18.130000000000003,20.5
1.124328374862671,2.4963121774499997,-11.566904448399999,0.26979074815,-94.26375000000002,36.00625,17.99875,20.5
1.1302552223205566,2.7451657278499995,-11.306684990649998,0.023330020349999998,-90.09875000000001,34.667500000000004,13.851250000000002,20.5
1.135871171951294,3.266202849,-11.446665112749997,-0.29970103065,-69.76375,24.806250000000002,9.66,20.5
1.1412901878356934,3.5072797259499997,-11.714661243949998,-0.5168496816,-44.205000000000005,8.09375,5.468750000000001,20.5
1.1468491554260254,3.7483566029,-12.377473104149999,-0.28893332894999996,-15.662500000000001,-13.51875,2.5200000000000005,20.5
1.152271032333374,4.046263016599999,-12.669397461349998,0.09690931529999999,10.736250000000002,-39.23500000000001,2.3975000000000004,20.5
1.1577479839324951,4.1491543884,-12.937991798199999,0.81655071225,36.470000000000006,-58.003750000000004,4.0687500000000005,20.5
1.1631920337677002,3.833301805199999,-12.729816231999997,1.59182523465,49.70875,-69.04625,3.98125,20.5
1.1687638759613037,3.7322050503499997,-12.945768471649998,2.0997018315,54.005,-71.91625,3.5612500000000002,20.5
1.1742737293243408,3.3511480512999996,-13.303495450349999,2.27736890955,49.533750000000005,-62.588750000000005,6.65,20.5
1.1797256469726562,2.8486553052999994,-13.1581314774,2.1834506225,36.181250000000006,-50.42625,9.00375,20.5
1.1852514743804932,2.39581362825,-13.13480145705,1.95194503595,19.617500000000003,-37.80875,11.252500000000001,20.5
1.190631628036499,2.1672990699499994,-13.0277226457,1.4907284798,3.6400000000000006,-24.4125,12.276250000000001,20.5
1.1960973739624023,2.42931314465,-12.876376616249997,1.5302100526999998,-13.90375,-8.53125,15.995000000000001,20.5
1.2015223503112793,1.4632110198999997,-12.747762401500001,1.3106685791500001,-28.455000000000002,2.1,20.238750000000003,20.5
1.207085132598877,1.4093725114,-12.580863025149998,1.0516455326999998,-37.511250000000004,11.602500000000001,24.2025,20.5
1.2125332355499268,1.27357982885,-12.291331490549998,0.78424760715,-39.4275,15.128750000000002,27.51,20.5
1.217994213104248,1.1563315214499998,-12.08435233565,0.48873401604999994,-38.377500000000005,15.242500000000001,32.751250000000006,20.5
1.223527193069458,0.9367900479,-11.842677253049999,0.3696910917,-28.63875,10.33375,36.260000000000005,20.5
1.2290852069854736,0.6197410534,-11.6877419897,0.23868405434999998,-16.84375,3.7887500000000003,38.50000000000001,20.5
1.2345409393310547,0.66460647715,-11.161321017699999,0.0945164927,-3.21125,-4.01625,40.040000000000006,20.5
1.239884853363037,0.4755734917499999,-10.5188481496,0.04486542375,6.6937500000000005,-12.941250000000002,38.307500000000005,20.5
1.2455365657806396,0.3613162126,-10.249057401449999,0.028713871199999998,18.611250000000002,-20.41375,35.9975,20.5
1.2509467601776123,0.41216369284999993,-10.08634546465,0.03409772205,23.94,-25.1825,33.197500000000005,20.5
1.2563667297363281,0.12382856954999999,-10.0103733471,-0.020937197749999997,23.852500000000003,-26.810000000000002,29.470000000000002,20.5
1.2647545337677002,-0.31824540579999994,-9.803394192199999,-0.17527425545,17.56125,-22.207500000000003,27.343750000000004,20.5
1.2701735496520996,-0.2009970984,-10.1563355257,-0.06879364974999999,9.266250000000001,-15.645000000000001,25.55,20.5
1.2757103443145752,-0.3565305674,-10.166505021749998,-0.39182470075,-2.9312500000000004,-6.44,27.58875,20.5
1.2811524868011475,-0.39840496289999994,-10.138987561849998,-0.43250268495,-11.961250000000001,1.5137500000000002,30.983750000000004,20.5
1.2866082191467285,-0.35114671655,-9.8680004024,-0.40558343069999997,-18.80375,7.848750000000001,34.78125,20.5
1.2920372486114502,-0.15493526335,-9.48933622595,-0.43968115274999997,-22.391250000000003,11.305000000000001,37.931250000000006,20.5
1.2975971698760986,0.08853443620000001,-9.278169631499999,-0.51505506465,-22.653750000000002,11.217500000000001,40.197500000000005,20.5
1.3030450344085693,0.4133601041499999,-9.00239682685,-0.6233302873,-18.59375,7.682500000000001,43.09375000000001,20.5
1.3085081577301025,0.7968099257999999,-8.470592003999998,-0.5682953674999999,-12.818750000000001,1.995,43.8725,20.5
1.3140127658843994,1.1958130943499998,-7.837092220649999,-0.37926238209999996,-6.982500000000001,-4.357500000000001,42.962500000000006,20.5
1.3194470405578613,1.4943177136999997,-7.377072075799998,-0.20578274359999998,-0.6825000000000001,-12.048750000000002,39.12125,20.5
1.324995756149292,1.63489604145,-7.102495682449999,-0.09631110964999999,6.527500000000001,-17.78875,32.8125,20.5
1.3304126262664795,1.7970097725999998,-7.046862557,0.12502498085,11.873750000000001,-22.51375,24.771250000000002,20.5
1.335904598236084,1.8418751963499997,-7.321438950349999,0.19022939669999997,16.196250000000003,-25.830000000000002,17.613750000000003,20.5
1.3413374423980713,1.7599210222999997,-7.6498538522,0.3062812928,19.687500000000004,-27.798750000000002,9.59875,20.5
1.346895456314087,1.7359927962999997,-8.02253597215,0.44087756405,21.76125,-26.731250000000003,5.13625,20.5
1.3522942066192627,1.6378870696999999,-8.46879738705,0.40438701939999994,20.676250000000003,-22.995,2.63375,20.5
1.3577394485473633,1.5086746492999996,-8.876773640349999,0.4283152454,17.876250000000002,-18.2175,1.88125,20.5
1.3631923198699951,1.57507547645,-8.821140514899998,0.41036907589999994,10.89375,-11.191250000000002,2.00375,20.5
1.3687434196472168,1.49611233065,-8.8965144268,0.26739792554999997,3.7887500000000003,-4.41875,3.115,20.5
1.3742570877075195,1.4392827938999997,-8.96411166525,-0.09571290399999999,0.36750000000000005,0.77875,4.0600000000000005,20.5
1.379734992980957,1.4494522899499998,-8.86241670475,-0.26261228035,-1.6712500000000001,2.4062500000000004,4.2700000000000005,20.5
1.3852949142456055,1.5559328956499998,-8.9814596291,-0.50787659685,0.9712500000000001,0.665,3.8850000000000002,20.5
1.390793800354004,1.8933208822499998,-8.77627509115,-0.4761716973999999,4.296250000000001,-1.0325000000000002,2.2225,20.5
1.3962788581848145,1.24008031245,-9.366105862049999,-0.7256234534499999,8.14625,-3.8587500000000006,4.978750000000001,20.5
1.4017107486724854,2.00578354445,-8.520841278599999,-0.8374879099999999,15.400000000000002,-8.925,-1.8987500000000002,20.5
1.4072506427764893,1.6259229567,-9.221340094749998,-1.016949605,19.048750000000002,-15.417500000000002,-2.45,20.5
1.4126896858215332,1.7623138448999998,-9.144171565899999,-0.9894321450999999,23.878750000000004,-18.427500000000002,-8.995000000000001,20.5
1.418151617050171,2.1475582835,-9.23210779645,-0.7369893607999999,23.336250000000003,-21.90125,-13.833750000000002,20.5
1.4235806465148926,2.1266210857499996,-9.4911308429,-0.69092752575,23.222500000000004,-22.435000000000002,-17.49125,20.5
1.4291603565216064,2.3467607649499995,-9.64367328365,-0.4019941968,21.910000000000004,-20.536250000000003,-19.845000000000002,20.5
1.4346354007720947,2.3796620756999998,-9.623932497199998,-0.20039889274999997,19.617500000000003,-18.3575,-22.05,20.5
1.4400532245635986,2.3120648372499994,-9.8404829425,0.0,16.012500000000003,-14.306250000000002,-21.673750000000002,20.5
1.445620059967041,2.2181465501999997,-10.098907783299998,0.09870393224999999,13.125000000000002,-10.613750000000001,-20.930000000000003,20.5
1.4510202407836914,2.38983157175,-10.2640125427,0.16749758199999998,11.4275,-4.9437500000000005,-17.75375,20.5
1.4564540386199951,2.847458894,-9.71067231645,1.3920245475499997,5.08375,-3.1412500000000003,-14.271250000000002,20.5
1.4618918895721436,2.6081766339999994,-10.34357389415,0.16749758199999998,11.488750000000001,-2.4325,-9.633750000000001,20.5
1.4674427509307861,2.7972096194,-10.140782178799999,0.10229316614999999,13.06375,-2.9050000000000002,-4.69875,20.5
1.4728000164031982,3.31944315185,-10.121639597999998,0.0646062102,15.391250000000001,-2.9925,-3.2025,20.5
1.4782438278198242,3.6382867632999996,-10.004391290600001,0.11306086784999998,17.815,-3.4475000000000002,-1.1725,20.5
1.483672857284546,4.0151563228,-9.81834933345,0.09332008139999999,20.55375,-4.655,0.25375000000000003,20.5
1.4891784191131592,4.56131808125,-9.616155823749999,0.010767701699999998,21.09625,-5.55625,0.77,20.5
1.4946284294128418,4.9459643142,-9.40798025755,0.2117648001,20.9475,-6.763750000000001,-2.0825,20.5
1.500051736831665,5.152943469099999,-9.1130648721,0.39421752335,19.775000000000002,-5.99375,-2.8525000000000005,20.5
1.5060384273529053,5.392823934749999,-8.7984087002,0.6197410534,15.898750000000001,-5.10125,-6.781250000000001,20.5
1.5115644931793213,5.446662443249999,-8.84686335785,0.75673014725,10.543750000000001,-2.31,-11.873750000000001,20.5
1.5171473026275635,5.440680386749999,-8.89471980985,1.0707881135,3.5262500000000006,1.225,-15.242500000000001,20.5
1.5225512981414795,5.1792645177,-9.068797653999999,1.52004055665,-2.09125,5.608750000000001,-18.891250000000003,20.5
1.5280699729919434,5.0536413312,-9.180662110550001,1.3567304141999996,-6.370000000000001,9.537500000000001,-22.548750000000002,20.5
1.53352689743042,5.6231331099999995,-9.3367937852,1.0743773474,-9.703750000000001,15.408750000000001,-25.226250000000004,20.5
1.539071798324585,4.8921258057,-9.53719267795,1.4374881769499999,-11.31375,19.372500000000002,-26.512500000000003,20.5
1.544555902481079,5.2618168974,-9.63170917065,1.3531411802999997,-11.436250000000001,22.382500000000004,-27.396250000000002,20.5
1.550013780593872,4.99920461705,-10.248459195799999,0.7405785947,-8.627500000000001,23.240000000000002,-26.6,20.5
1.555534839630127,4.9710889515,-10.3836536727,0.45104706009999995,-4.357500000000001,21.586250000000003,-25.567500000000003,20.5
1.5609867572784424,6.433701765749999,-9.7363951594,0.06640082715,0.88375,17.99875,-25.06875,20.5
1.566429615020752,6.20040156225,-10.480562988,-0.0017946169499999999,6.098750000000001,13.641250000000001,-24.885,20.5
1.57181978225708,5.365306474850001,-10.486545044499998,-0.6179464364499999,7.201250000000001,8.190000000000001,-26.407500000000002,20.5
1.5773484706878662,5.4281180681,-10.2664053653,-0.9523433947999999,8.540000000000001,0.5162500000000001,-28.770000000000003,20.5
1.5827293395996094,5.5369914964,-10.139585767500002,-1.1551351101499998,8.260000000000002,-2.7387500000000005,-31.491250000000004,20.5
1.5881643295288086,5.51964353255,-9.9290173787,-1.2454641632999999,6.44,-6.615,-35.472500000000004,20.5
1.593597412109375,5.364708269199999,-9.8153583052,-1.3579268255,3.4562500000000003,-9.38,-39.935,20.5
1.5991342067718506,5.353940567499999,-9.729216691599998,-1.4003994266499997,-1.00625,-10.47375,-46.2875,20.5
1.6045501232147217,5.109274456649999,-9.62931634805,-1.3615160593999998,-7.603750000000001,-10.85875,-50.557500000000005,20.5
1.6100399494171143,4.75394030055,-9.90808018095,-1.0839486377999998,-17.605,-7.945000000000001,-54.066250000000004,20.5
1.6185879707336426,3.9684962820999994,-10.55294587165,-0.7190431912999999,-22.977500000000003,-3.9462500000000005,-54.215,20.5
1.6241168975830078,3.61256392035,-11.306684990649998,-0.5802594805,-24.508750000000003,-0.77875,-49.41125,20.5
1.6295979022979736,3.3774690999,-11.775080014599999,-0.39302111205,-24.106250000000003,3.2812500000000004,-46.5675,20.5
1.6351227760314941,3.2656046433499997,-12.0107730407,-0.22911276394999996,-25.2875,9.73,-41.335,20.5
1.6405036449432373,3.1334011946999993,-12.09631644865,-0.14057832774999998,-25.663750000000004,15.70625,-35.84875,20.5
1.6459386348724365,2.976073108749999,-12.0753792509,-0.27936203854999997,-26.740000000000002,21.5075,-31.001250000000002,20.5
1.6513497829437256,2.87437814825,-11.7882405389,-0.47736810869999996,-30.28375,26.582500000000003,-26.78375,20.5
1.6568224430084229,2.7182464736,-11.488539508249998,-0.6675975054,-36.102500000000006,33.1625,-24.430000000000003,20.5
1.6621854305267334,2.5956143153499998,-11.068000936299999,-0.9451649269999999,-44.45,38.06250000000001,-24.2375,20.5
1.6677985191345215,2.5208386090999992,-10.5714902468,-1.26161571585,-52.088750000000005,41.7725,-27.448750000000004,20.5
1.6732091903686523,2.5256242543,-9.999605645399999,-1.6821542877999998,-60.36625000000001,44.16125,-33.1625,20.5
1.6787512302398682,2.3802602813499996,-9.20937598175,-1.9788642901999998,-68.45125,44.073750000000004,-42.41125,20.5
1.6842551231384277,2.2737796756499997,-8.36949524915,-2.35154641015,-71.5575,37.861250000000005,-56.971250000000005,20.5
1.6896741390228271,2.23429810275,-8.203194078449998,-2.48434806445,-67.59375,29.91625,-73.69250000000001,20.5
1.69523286819458,1.8765711240499998,-8.7493558369,-2.12183544055,-59.27250000000001,21.962500000000002,-91.6825,20.5
1.700624704360962,1.0211370445499999,-10.040283629599998,-1.5218351735999998,-47.88,9.975000000000001,-101.26375000000002,20.5
1.7060489654541016,0.1878365741,-12.02692459325,-0.8817551281,-33.0925,-1.9075000000000002,-101.27250000000001,20.5
1.7114927768707275,-0.5629115166499999,-13.402797588249998,-0.0394815729,-19.67875,-8.98625,-91.48125,20.5
1.7170336246490479,-1.0205388389,-14.42333642715,0.9236295236,-12.127500000000001,-11.506250000000001,-74.99625,20.5
1.7225115299224854,-1.12881406155,-14.362917656499999,1.7700905183499998,-10.482500000000002,-4.83875,-52.12375000000001,20.5
1.7280044555664062,-0.9032905314999999,-13.56431311375,2.4717857457999997,-15.452500000000002,5.55625,-35.4025,20.5
1.7334356307983398,-0.51744788725,-12.3649107855,3.1716863562999995,-28.665000000000003,21.848750000000003,-24.42125,20.5
1.7389585971832275,-0.23629123174999997,-10.95733289105,3.1567312150499998,-46.37500000000001,40.81,-18.672500000000003,20.5
1.7444212436676025,-0.15254244074999998,-10.371689559699998,2.7170500623000002,-63.236250000000005,61.46000000000001,-18.996250000000003,20.5
1.749866247177124,0.13938191645,-9.1609213241,1.5308082583499998,-80.41250000000001,71.67125,-23.091250000000002,20.5
1.7553832530975342,-0.013758729949999998,-8.382655773449999,-0.27577280465,-85.07625,71.17250000000001,-28.078750000000003,20.5
1.7608342170715332,-0.6586244206499999,-6.12622406165,-3.2650064377,-82.355,57.21625,-43.21625,20.5
1.7662930488586426,-0.31106693799999996,-5.661418271599999,-2.70927338885,-61.15375,33.74875,-66.25500000000001,20.5
1.7716970443725586,-0.18544375149999998,-6.4331035601,-3.1184460534499996,-30.878750000000004,-3.10625,-88.76,20.5
1.777275800704956,-0.63828542855,-6.3960148098,-2.55373991985,-11.9525,-40.197500000000005,-111.04625000000001,20.5
1.7827367782592773,-1.87417830145,-9.23450061905,-3.1818558523499996,12.600000000000001,-71.05875,-146.39625,20.5
1.7881717681884766,-3.1184460534499996,-9.1585285015,0.014955141249999998,39.112500000000004,-62.291250000000005,-131.07500000000002,20.5
1.793623685836792,-4.5068813671,-10.0953185494,1.7934205386999997,50.338750000000005,-57.22500000000001,-125.23875000000001,20.5
1.799196481704712,-5.2618168974,-11.627323219049998,3.0807590974999997,44.1525,-43.45250000000001,-109.79500000000002,20.5
1.8046214580535889,-5.9784672661,-12.33081306345,4.17487723135,30.817500000000003,-17.508750000000003,-86.90500000000002,20.5
1.8100683689117432,-6.46720128215,-11.845070075649998,4.783252377399999,10.500000000000002,18.060000000000002,-57.44375000000001,20.5
1.8156194686889648,-6.2889359984499995,-10.70369369545,4.8753760475,-14.857500000000002,62.956250000000004,-34.755,20.5
1.8210043907165527,-6.433701765749999,-9.18425134445,4.17248440875,-49.63875,93.80875,-24.683750000000003,20.5
1.8264760971069336,-6.347560152149999,-7.14078084405,2.7708885708,-72.68625,115.3075,-25.47125,20.5
1.8318872451782227,-6.42054124145,-5.341378248849999,1.25204442545,-83.04625000000001,127.03250000000001,-43.61000000000001,20.5
1.8374061584472656,-6.412764567999999,-4.63788840445,-0.23150558654999998,-76.59750000000001,131.64375,-52.823750000000004,20.5
1.8428480625152588,-6.65743067885,-3.6502508763,-1.77128692965,-55.650000000000006,115.68375000000002,-74.39250000000001,20.5
1.848310947418213,-7.206583465549999,-3.8751762007,-2.7326034091999993,-28.385,97.37875000000001,-94.79750000000001,20.5
1.8537447452545166,-7.881359438749999,-4.1647077352999995,-3.5497523270999993,0.035,72.00375000000001,-116.21750000000002,20.5
1.8593080043792725,-8.721838377,-5.088337258899999,-3.9684962820999994,26.45125,35.087500000000006,-125.51,20.5
1.8647568225860596,-9.842875765099999,-6.691528400899999,-4.0043886211,55.807500000000005,5.73125,-128.38000000000002,20.5
1.8701508045196533,-10.200602743800001,-8.16610532815,-3.5575290005499998,67.80375000000001,-12.8975,-123.82125,20.5
1.8757896423339844,-10.715657808449999,-8.809176401899999,-2.4000010678,74.515,-21.770000000000003,-103.635,20.5
1.881704568862915,-10.892128475199998,-9.247062937699999,-1.0594222061499998,69.78125,-13.72,-84.88375,20.5
1.8873646259307861,-10.682756497699998,-8.38026295085,0.2165504453,60.13875000000001,5.94125,-63.65625000000001,20.5
1.8928093910217285,-9.81715292215,-7.67557669515,1.3770694062999997,49.463750000000005,38.36000000000001,-51.02125,20.5
1.8982772827148438,-10.1922278647,-5.6410792794999995,0.6173482307999999,37.423750000000005,64.86375000000001,-48.352500000000006,20.5
1.903703212738037,-9.92243711655,-5.48135837095,-0.03529413334999999,33.66125,85.92500000000001,-50.81125000000001,20.5
1.9092581272125244,-9.76451082495,-5.340181837549999,-1.2346964615999998,29.216250000000002,99.61000000000001,-56.105000000000004,20.5
1.9147381782531738,-10.0582297991,-5.35932441835,-2.71645185665,26.626250000000002,103.50375000000001,-60.00750000000001,20.5
1.920151948928833,-9.9122676205,-5.31146796635,-4.3005004178499995,34.378750000000004,91.29750000000001,-62.61500000000001,20.5
1.9256799221038818,-9.94157969735,-5.079962379799999,-5.2414779053,39.43625,77.53375000000001,-64.93375,20.5
1.9311509132385254,-9.731609514199999,-5.64407030775,-5.428716273749999,46.94375,56.595000000000006,-64.42625000000001,20.5
1.9365928173065186,-11.362318116099999,-3.976871161199999,-4.82811780115,55.667500000000004,35.0,-65.765,20.5
1.9420065879821777,-11.88933729375,-6.771089752349999,-5.1397829447999985,63.455000000000005,10.255,-59.63125000000001,20.5
1.947615623474121,-9.513264451949999,-7.596613549349999,-4.408775640499999,63.51625000000001,5.206250000000001,-64.00625000000001,20.5
1.9530296325683594,-9.221340094749998,-7.52363246005,-4.51226521795,71.58375000000001,-10.03625,-61.97625000000001,20.5
1.9584875106811523,-9.5018985446,-9.092725879999998,-4.0534414844,65.14375000000001,-11.935,-56.227500000000006,20.5
1.9640254974365234,-9.589834775149999,-9.78245699445,-2.85762839005,47.556250000000006,-2.5200000000000005,-40.53875000000001,20.5
1.9723193645477295,-9.800403163949998,-10.321440285099998,-1.1240284163499998,24.753750000000004,11.025,-24.858750000000004,20.5
1.9777982234954834,-8.966504487849999,-10.4721881089,-0.66460647715,11.73375,24.692500000000003,-15.846250000000001,20.5
1.9832231998443604,-8.961718842649999,-9.8153583052,-1.1240284163499998,7.017500000000001,32.8825,-9.353750000000002,20.5
1.9887120723724365,-8.257630792599999,-9.246464732049999,-1.1688938401,6.597500000000001,35.36750000000001,-3.4912500000000004,20.5
1.9942071437835693,-7.674380283849999,-8.37906653955,-1.2723834175499997,9.502500000000001,32.182500000000005,-0.37625000000000003,20.5
1.9996440410614014,-7.2825555831,-7.873582765299999,-1.4644074312000002,13.378750000000002,27.081250000000004,1.5837500000000002,20.5
2.005202054977417,-7.380661309699999,-7.4847490928,-1.60857499285,13.107500000000002,19.8625,0.21000000000000002,20.5
2.010627031326294,-7.319644333399999,-6.312864224449999,-1.1102696864,6.2475000000000005,13.851250000000002,-3.3862500000000004,20.5
2.016087055206299,-7.7072815945999995,-6.573083682199999,-1.2723834175499997,6.6937500000000005,4.996250000000001,-8.11125,20.5
2.0214898586273193,-7.9322069189999995,-6.403193277599999,-1.23050902205,0.5075000000000001,0.11375000000000002,-12.15375,20.5
2.0270607471466064,-8.1738820016,-6.88953447105,-0.8380861156499999,-3.64875,-1.4175000000000002,-13.492500000000001,20.5
2.0325117111206055,-8.4203427294,-7.683353368600001,-0.7884350467,-4.2700000000000005,-3.0975,-13.02875,20.5
2.0379295349121094,-8.47836867745,-8.538189242449999,-0.46480579005,-1.8462500000000002,-4.550000000000001,-7.883750000000001,20.5
2.0433764457702637,-8.5052879317,-9.3810610033,-0.12861421474999998,3.5000000000000004,-5.932500000000001,-1.3125000000000002,20.5
2.048947334289551,-8.608179303499998,-9.5258267706,0.1890329854,12.355,-7.638750000000001,5.8012500000000005,20.5
2.0543644428253174,-8.599206218749998,-9.315856587449998,0.48275195955,20.04625,-9.082500000000001,13.343750000000002,20.5
2.059816360473633,-8.58365287185,-8.924630092349998,0.70887369525,27.361250000000002,-8.0675,19.958750000000002,20.5
2.0654492378234863,-8.446663778,-8.828318982699999,0.7393821834,32.34,-5.7575,23.17,20.5
2.0708401203155518,-8.2468630909,-8.81097101885,0.5383850849999999,34.807500000000005,-2.0562500000000004,24.955000000000002,20.5
2.076282024383545,-8.2037922841,-8.449654806249999,0.045463629400000004,34.580000000000005,0.9975,26.01375,20.5
2.081655979156494,-8.00339339135,-8.417949906799999,-0.7196413969499998,30.213750000000005,4.103750000000001,26.643750000000004,20.5
2.0875229835510254,-8.1308111948,-8.529216157699999,-1.6875381386499997,23.450000000000003,4.8475,26.573750000000004,20.5
2.092944860458374,-8.2564343813,-8.61475956565,-2.7499513730499996,15.618750000000002,5.10125,25.585,20.5
2.098402738571167,-8.29890698245,-9.095118702599999,-3.52881512935,6.308750000000001,2.6862500000000002,24.4125,20.5
2.103804588317871,-8.37308448305,-9.30628529705,-4.1120656381,-1.82875,-2.6775,23.301250000000003,20.5
2.109320640563965,-8.61595597695,-9.57188860565,-4.106681787249999,-8.4,-8.242500000000001,23.21375,20.5
2.1149144172668457,-8.8510507974,-9.669396126599999,-3.8099717848499997,-12.600000000000001,-12.538750000000002,24.2725,20.5
2.1203434467315674,-9.249455760299998,-9.767501853199999,-3.24167641735,-16.625,-14.971250000000001,28.035000000000004,20.5
2.125845432281494,-9.52044291975,-10.080961613799998,-2.6955146588999996,-19.337500000000002,-15.408750000000001,33.46,20.5
2.131314277648926,-9.7794659662,-10.080961613799998,-2.4430718745999997,-20.58875,-15.653750000000002,38.885000000000005,20.5
2.136834144592285,-9.880562721050001,-10.4159567778,-2.0829520732999995,-20.55375,-15.382500000000002,46.08625000000001,20.5
2.1422553062438965,-9.911669414849998,-10.648658775649999,-1.8388841681,-19.17125,-15.330000000000002,55.85125000000001,20.5
2.1477081775665283,-9.5736832226,-10.8287186763,-1.6384852753499999,-17.2025,-15.863750000000001,63.85750000000001,20.5
2.153101921081543,-9.455836709549999,-10.460822201549998,-1.4147563622499997,-16.5725,-16.07375,70.73500000000001,20.5
2.1585168838500977,-9.38524844285,-10.369296737099999,-1.3722837611,-17.2725,-14.971250000000001,75.45125,20.5
2.16404390335083,-9.62692352545,-10.0582297991,-1.3375878333999998,-20.7025,-12.617500000000001,78.52250000000001,20.5
2.1694839000701904,-10.064211855599998,-9.6131647955,-1.6145570493499999,-26.110000000000003,-10.141250000000001,81.41000000000001,20.5
2.1750285625457764,-10.377073410549999,-9.374480741149998,-2.0662023151,-31.640000000000004,-6.22125,82.52125000000001,20.5
2.1804146766662598,-11.018948072999997,-9.0676012427,-2.6763720780999996,-35.42,-3.535,82.75750000000001,20.5
2.185926675796509,-11.814561587499998,-8.46520815315,-3.5425738593,-34.081250000000004,-4.165,81.96125,20.5
2.191340446472168,-12.12024467465,-8.29890698245,-4.39023126535,-27.930000000000003,-10.736250000000002,79.73875000000001,20.5
2.196908473968506,-12.664013610499998,-8.598009807449998,-5.031507722150001,-17.0975,-19.486250000000002,78.44375000000001,20.5
2.2023415565490723,-12.286545845349998,-9.071788682249998,-5.0865426419499995,-5.880000000000001,-32.865,78.05875,20.5
2.2077412605285645,-11.2630159782,-9.890732217099998,-5.04706106905,4.095000000000001,-48.41375000000001,75.84500000000001,20.5
2.213106393814087,-10.500303774449998,-10.154540908749999,-4.09830690815,15.478750000000002,-55.597500000000004,78.58375000000001,20.5
2.218560218811035,-9.812965482600001,-9.67717280005,-3.1513473642,22.583750000000002,-56.463750000000005,81.33125000000001,20.5
2.224069118499756,-9.898508890549998,-9.1573320902,-2.0279171535,26.38125,-48.361250000000005,85.78500000000001,20.5
2.2295660972595215,-9.7304131029,-8.64347343685,-1.3734801723999999,27.1075,-35.0525,89.76625000000001,20.5
2.235100030899048,-9.530014210149998,-7.83469939805,-0.97208418125,25.97875,-19.915000000000003,93.63375,20.5
2.240496873855591,-9.098707936499999,-6.835695962549999,-0.9726823868999999,21.035000000000004,-7.665000000000001,96.20625000000001,20.5
2.2459750175476074,-8.7290168448,-5.768497082949999,-1.5798611216499998,15.400000000000002,4.9437500000000005,95.9,20.5
2.2518715858459473,-7.67677310645,-5.033900544749999,-2.1421744326499996,12.031250000000002,11.392500000000002,92.2775,20.5
2.2574737071990967,-6.716054832549999,-4.768895441799999,-2.3760728418,10.36875,11.71625,87.605,20.5
2.262892723083496,-5.93599466495,-4.4458643908,-2.44127725765,11.707500000000001,6.597500000000001,78.86375000000001,20.5
2.2683374881744385,-5.40478804775,-4.06779842,-2.4203400598999996,15.583750000000002,-3.8237500000000004,70.17500000000001,20.5
2.2737345695495605,-3.9194434187999994,-4.7509492723,-2.2923240507999996,21.42,-16.747500000000002,59.885000000000005,20.5
2.27929949760437,-2.9461628262499997,-5.327619518899999,-1.8454644302499998,28.656250000000004,-28.507500000000004,50.53125000000001,20.5
2.2847542762756348,-2.6063820170499996,-5.517848915599999,-1.27597265145,38.49125,-35.245000000000005,39.830000000000005,20.5
2.290100336074829,-2.880360204749999,-5.8145589179999995,-0.7046862557,42.665000000000006,-32.6375,25.926250000000003,20.5
2.295743227005005,-2.53579375035,-5.873781277349999,-0.39242290639999994,42.813750000000006,-25.698750000000004,10.377500000000001,20.5
2.3011863231658936,-2.0147566292,-3.8691941441999997,-2.0099709839999997,49.55125,-26.41625,-18.716250000000002,20.5
2.306583881378174,-1.7102699533499999,-7.1653072757,-0.5084748025,28.875000000000004,4.655,13.711250000000001,20.5
2.312009811401367,-1.5984054967999999,-7.42791955605,-0.7435696229499998,14.525000000000002,21.6475,15.863750000000001,20.5
2.3175508975982666,-2.0027925162,-7.319644333399999,-1.4446666447499998,-1.1900000000000002,37.791250000000005,22.295,20.5
2.32594895362854,-2.0841484845999996,-7.330412035099999,-1.65762785615,-5.8100000000000005,41.63250000000001,36.627500000000005,20.5
2.3314287662506104,-3.242274623,-6.93858733435,-2.16490624735,-0.8225000000000001,37.441250000000004,43.1375,20.5
2.3369596004486084,-3.3559336964999993,-6.1351971463999995,-2.62313177525,12.127500000000001,26.24125,47.416250000000005,20.5
2.34238862991333,-3.0305098229,-5.9066825881,-3.08494653705,23.61625,8.7675,50.627500000000005,20.5
2.347834587097168,-2.5597219763499997,-5.54117893595,-3.4193434953999997,37.581250000000004,-11.891250000000001,50.8725,20.5
2.3532326221466064,-1.7635102562,-5.45862655625,-3.1393832511999995,51.62500000000001,-40.17125,44.47625000000001,20.5
2.3587775230407715,-1.1946166830499998,-5.283950506449999,-2.52622245995,63.00000000000001,-57.111250000000005,36.846250000000005,20.5
2.364293336868286,-0.7764709337,-5.29232538555,-1.8065810629999999,70.805,-65.3275,28.927500000000002,20.5
2.3696951866149902,-0.0083748791,-5.75772938125,-1.1880364209,69.22125000000001,-66.67500000000001,22.855,20.5
2.3752059936523438,0.37926238209999996,-6.10349224695,-0.99720881855,62.26500000000001,-60.698750000000004,19.845000000000002,20.5
2.3806350231170654,0.31465617189999995,-6.259623921599999,-1.2131610581999999,50.58375,-49.673750000000005,18.725,20.5
2.386057138442993,0.09511469834999998,-6.081358637899999,-1.5314064639999998,36.417500000000004,-39.830000000000005,14.166250000000002,20.5
2.391507863998413,0.36909288605,-5.9904313790999995,-1.8209379985999998,25.558750000000003,-32.261250000000004,8.67125,20.5
2.397061824798584,0.5383850849999999,-6.370291966849999,-2.2468604213999996,15.163750000000002,-27.9825,1.61,20.5
2.402479887008667,-0.25184457865,-6.1106707147499995,-2.80618270415,10.45625,-26.626250000000002,-6.01125,20.5
2.407916784286499,-1.1629117836,-6.022136278549999,-3.0933214161499993,19.31125,-31.281250000000004,-16.21375,20.5
2.4133477210998535,-1.7001004572999998,-6.6017975534,-3.7328032559999995,27.0725,-46.13875,-26.031250000000004,20.5
2.4188876152038574,-0.6747759731999999,-8.747561219949999,-4.993222560549999,47.52125,-61.87125,-39.033750000000005,20.5
2.424323558807373,-1.64446733185,-9.487541608999999,-3.8727833781,62.93000000000001,-77.56,-41.448750000000004,20.5
2.429783582687378,-1.6707883804499999,-9.14596618285,-2.8420750431499995,63.51625000000001,-105.805,-31.867500000000003,20.5
2.4353625774383545,-1.3764712006499997,-10.462018612849999,-2.6889343967499997,56.245000000000005,-123.80375000000001,-23.476250000000004,20.5
2.4407973289489746,-0.7250252477999999,-11.444870495799998,-1.24725878025,48.807500000000005,-125.28250000000001,-18.558750000000003,20.5
2.4462921619415283,-0.10648060570000001,-11.7116702157,-0.5599204883999999,25.856250000000003,-114.97500000000001,-13.221250000000001,20.5
2.4517602920532227,0.3218346397,-11.676376082349998,0.15972090854999998,8.120000000000001,-93.67750000000001,-9.668750000000001,20.5
2.4572949409484863,0.80099736535,-11.810374147949997,0.5682953674999999,-6.763750000000001,-74.03375000000001,-6.781250000000001,20.5
2.462733030319214,1.4608181972999998,-12.770494216200001,0.58205409745,-16.1875,-60.01625000000001,-3.31625,20.5
2.468174934387207,2.16849548125,-13.130015811849999,0.5730810126999999,-23.79125,-48.755,2.1175,20.5
2.47355580329895,2.30847560335,-12.931411536049998,0.41635113239999993,-24.570000000000004,-40.10125,6.01125,20.5
2.4791038036346436,2.7613172804,-13.204791518099999,-0.014955141249999998,-14.901250000000001,-38.465,9.61625,20.5
2.4845597743988037,3.52642230675,-13.58465210585,-0.7256234534499999,-4.375,-42.86625,11.943750000000001,20.5
2.489961624145508,4.5032921331999995,-14.399408201149997,-0.73280192125,6.562500000000001,-51.441250000000004,13.571250000000001,20.5
2.495511770248413,5.526223794700001,-14.509478040749999,-0.42053857194999994,15.242500000000001,-62.03750000000001,16.493750000000002,20.5
2.5009655952453613,6.0143596051,-14.34198045875,-0.08434699664999999,24.246250000000003,-69.20375000000001,17.675,20.5
2.5063893795013428,6.448058701349999,-14.362319450849999,0.3493520996,30.047500000000003,-73.21125,17.508750000000003,20.5
2.5118463039398193,7.127620319749999,-14.7206446352,1.0217352502,32.2175,-73.51750000000001,19.040000000000003,20.5
2.5174143314361572,7.421339293899999,-14.7409836273,1.6055839645999996,27.25625,-66.37750000000001,23.03,20.5
2.5228271484375,7.579863791149998,-14.555539875799997,2.10030003715,16.1525,-56.56875000000001,26.85375,20.5
2.528290271759033,8.3007015994,-14.450853887049998,2.6715864329,1.3125000000000002,-43.93375,32.67250000000001,20.5
2.533764123916626,7.655835908699999,-13.4333060764,2.0027925162,-13.055000000000001,-28.253750000000004,39.78625,20.5
2.5392112731933594,7.945367443299999,-14.301302474549999,2.5423740125,-15.0675,-8.916250000000002,43.347500000000004,20.5
2.544610023498535,7.7916285912499985,-11.4963161817,1.9692929997999997,-30.1,-9.3975,40.1625,20.5
2.550041913986206,7.67677310645,-12.433704435249998,0.8530412569,-25.637500000000003,-8.715000000000002,42.70875,20.5
2.5556137561798096,7.336394091599998,-12.00179995595,0.9912267620499999,-16.2575,-16.126250000000002,38.70125,20.5
2.56103777885437,7.5050880849,-10.97647547185,1.8993029387499998,-8.365,-17.5,31.220000000000002,20.5
2.566493511199951,6.3541404143,-10.6492569813,1.72941253415,-3.0100000000000002,-22.723750000000003,25.130000000000003,20.5
2.571892738342285,5.818148151899999,-10.579266920250001,1.62173551715,-1.7412500000000002,-21.90125,13.93875,20.5
2.577448606491089,4.9112683865,-10.6325072231,0.93140619705,-2.6075000000000004,-15.802500000000002,7.07,20.5
2.582900285720825,4.420141547849999,-11.01595704475,0.35892339,-11.33125,-9.52875,1.0237500000000002,20.5
2.588329315185547,3.4630125078500003,-11.462218459649998,-0.41276189849999995,-21.945000000000004,-2.2225,-1.60125,20.5
2.593780279159546,2.7738795990499994,-11.660224529799999,-0.9702895642999998,-35.166250000000005,3.4475000000000002,-1.0325000000000002,20.5
2.5993683338165283,2.2402801592499997,-11.499905415599999,-1.3387842447,-46.480000000000004,9.02125,1.5050000000000001,20.5
2.6049091815948486,1.80239362345,-11.02792115775,-1.2532408367499999,-54.46875000000001,12.705000000000002,4.62875,20.5
2.61043119430542,1.2604193045499996,-10.7186488367,-1.24965160285,-60.191250000000004,12.197500000000002,6.22125,20.5
2.6158950328826904,0.9828518829499999,-10.676176235549997,-1.16709922315,-57.88125000000001,15.085,7.183750000000001,20.5
2.621243953704834,1.5595221295499997,-11.60818063825,-1.1018948073,-55.282500000000006,16.835,4.40125,20.5
2.6271488666534424,0.83449688175,-10.10668445675,-0.6065805290999999,-45.20250000000001,16.668750000000003,5.08375,20.5
2.632715940475464,0.8015955709999999,-10.101300605899999,-0.5682953674999999,-42.43750000000001,11.5675,8.338750000000001,20.5
2.638145685195923,0.9738787981999999,-10.016953609249999,-0.8333004704499999,-35.9975,10.6925,9.765,20.5
2.6435647010803223,1.0013962581,-10.006185907549998,-0.9607182738999999,-32.550000000000004,7.32375,7.5075,20.5
2.6491246223449707,1.27597265145,-8.997611181649999,-1.1802597474499998,-21.5425,5.188750000000001,-2.1,20.5
2.654533624649048,1.1593225497,-9.553942436149999,-1.4871392458999997,-17.66625,3.3512500000000003,0.9362500000000001,20.5
2.6599395275115967,0.74476603425,-9.921240705249998,-1.72941253415,-12.18875,1.93375,-2.8262500000000004,20.5
2.6654655933380127,0.43609191885,-9.388239471099999,-2.1942183242,-3.9025000000000003,-2.6250000000000004,-14.227500000000001,20.5
2.6708924770355225,0.2141576227,-9.27876783715,-2.38624233785,-2.9137500000000003,-2.7212500000000004,-24.220000000000002,20.5
2.6794424057006836,-0.15074782379999999,-9.9098747979,-2.5381865729499995,-5.206250000000001,-0.1925,-25.812500000000004,20.5
2.6850152015686035,-0.84646099475,-10.730014744049997,-2.80618270415,-10.211250000000001,3.08,-22.461250000000003,20.5
2.690424919128418,-1.2161520864499997,-11.375478640399999,-3.0831519200999997,-12.906250000000002,7.30625,-20.0375,20.5
2.695894956588745,-1.4374881769499999,-11.556136746699998,-3.0831519200999997,-13.238750000000001,9.485000000000001,-13.833750000000002,20.5
2.7013399600982666,-1.3866406966999998,-11.3048903737,-3.0221349437999994,-12.713750000000001,8.391250000000001,-8.041250000000002,20.5
2.706817865371704,-1.1461620253999998,-11.22293619965,-2.8995027855499993,-10.981250000000001,7.32375,-2.09125,20.5
2.7121689319610596,-0.9912267620499999,-10.888539241299997,-2.7439693165500003,-7.700000000000001,6.0287500000000005,2.5025000000000004,20.5
2.71775484085083,-0.6867400861999999,-10.666006739499998,-2.8187450228,-5.1275,5.206250000000001,5.897500000000001,20.5
2.723090648651123,-0.35234312785,-10.362716474949998,-2.79661141375,-2.65125,3.2987500000000005,6.982500000000001,20.5
2.72853946685791,0.011964112999999998,-10.007382318849999,-2.73798726005,-2.31,1.33,6.483750000000001,20.5
2.7340855598449707,0.27936203854999997,-9.977472036350001,-2.5764717345499997,-4.6025,-0.34125000000000005,5.433750000000001,20.5
2.7395083904266357,0.6293123437999999,-10.007382318849999,-2.3868405435,-7.183750000000001,-1.54875,3.9200000000000004,20.5
2.745039224624634,0.8847461563499999,-9.891330422749999,-2.2181465501999997,-8.5225,-2.54625,1.49625,20.5
2.750467300415039,0.98404829425,-9.691529735649999,-1.9148562856499998,-9.2225,-5.29375,-1.1462500000000002,20.5
2.7559003829956055,1.1096714807499999,-9.59581683165,-1.64566374315,-8.74125,-6.8950000000000005,-4.19125,20.5
2.761345148086548,1.2023933564999998,-9.63529840455,-1.4273186808999998,-8.085,-7.98,-6.606250000000001,20.5
2.7669012546539307,1.2275179938,-9.65683380795,-1.1874382152499998,-7.840000000000001,-8.60125,-8.408750000000001,20.5
2.772321939468384,1.0582257948499998,-9.735796953749999,-1.1509476706000001,-5.853750000000001,-8.28625,-9.843750000000002,20.5
2.7778079509735107,0.92183490665,-9.9038927414,-1.25443724805,-2.2575000000000003,-7.647500000000001,-9.96625,20.5
2.7832679748535156,0.7411768003499999,-10.12223780365,-1.3328021881999996,0.7087500000000001,-6.755000000000001,-8.28625,20.5
2.788803815841675,0.7345965381999999,-10.19880812685,-1.3549357972499998,3.7625,-5.5475,-4.62,20.5
2.7943027019500732,0.6484549245999999,-10.13539832795,-1.5816557385999996,5.53875,-3.5525,-2.33625,20.5
2.7997426986694336,0.80578301055,-9.985248709799999,-1.76769769575,6.588750000000001,-2.33625,-0.43750000000000006,20.5
2.805267572402954,1.0085747259,-9.809974454349998,-2.0207386856999996,6.947500000000001,-2.5200000000000005,0.5162500000000001,20.5
2.810727596282959,1.5571293069499996,-9.713663344699999,-1.9292132212499997,5.031250000000001,-3.0712500000000005,0.0175,20.5
2.816195487976074,1.9531414472499997,-9.580861690399999,-1.83110749465,3.4650000000000003,-4.987500000000001,-1.7062500000000003,20.5
2.8215982913970947,2.42931314465,-9.432506689199998,-1.7431712641,-0.07875000000000001,-7.402500000000001,-5.1450000000000005,20.5
2.8271753787994385,2.84566427705,-9.148359005449999,-1.6731812030499997,-2.3975000000000004,-10.176250000000001,-9.450000000000001,20.5
2.832637310028076,3.4151560558499994,-8.918049830200001,-1.4207384187499998,-3.87625,-13.72,-15.400000000000002,20.5
2.8380863666534424,3.86739952725,-8.757730716,-1.11206430335,-4.82125,-17.0275,-20.868750000000002,20.5
2.843492031097412,4.10907460985,-8.53460000855,-0.8063812161999999,-4.760000000000001,-19.372500000000002,-26.442500000000003,20.5
2.8490569591522217,4.24546549805,-8.583054666199999,-0.21894326790000002,-2.4325,-21.008750000000003,-31.185000000000002,20.5
2.854513168334961,4.23948344155,-8.621339827799998,0.14656038424999998,-0.31500000000000006,-21.988750000000003,-38.001250000000006,20.5
2.859968900680542,4.17966287655,-8.702695796199999,0.5611168996999999,3.8587500000000006,-20.501250000000002,-39.795,20.5
2.8655288219451904,4.0450666053,-8.867202349949999,0.9966106129,8.933750000000002,-17.64,-41.667500000000004,20.5
2.870938777923584,3.8201412808999997,-9.049655073199999,1.1832507757,12.713750000000001,-11.847500000000002,-42.63875,20.5
2.8763835430145264,3.47856585475,-9.278169631499999,0.8039883936,16.98375,-5.451250000000001,-43.31250000000001,20.5
2.8817996978759766,3.3463624060999995,-9.427721044,0.7752745223999999,18.795,4.0075,-42.21,20.5
2.887446403503418,3.026920589,-9.605388122049998,0.3337987527,20.685000000000002,13.50125,-40.3025,20.5
2.8928475379943848,3.038884702,-9.76331441365,-0.0263210486,15.128750000000002,21.962500000000002,-37.0125,20.5
2.8983054161071777,3.05025060935,-9.8500542329,-0.7345965381999999,5.232500000000001,32.103750000000005,-31.473750000000003,20.5
2.9037234783172607,3.12921375515,-9.8093762487,-1.11565353725,-8.645000000000001,44.30125,-29.898750000000003,20.5
2.9092464447021484,3.1387850455499997,-9.69751179215,-1.4111671283499998,-28.700000000000003,53.50625000000001,-29.216250000000002,20.5
2.914720058441162,3.3756744829499996,-9.466604411249998,-1.3160524299999998,-42.11375,60.2,-31.071250000000003,20.5
2.92008113861084,3.5988051904000002,-9.307481708349998,-0.9296115801,-55.3175,64.50500000000001,-35.62125,20.5
2.9257090091705322,3.8548372086,-9.1992064857,-0.46839502395,-63.98875,65.03875000000001,-42.00000000000001,20.5
2.9311609268188477,3.7663027724,-9.259625256349999,0.0538385085,-66.07125,64.9775,-47.46000000000001,20.5
2.936635732650757,3.4043883541499995,-9.5066841898,0.48933222169999996,-59.587500000000006,58.660000000000004,-52.526250000000005,20.5
2.9420599937438965,2.9587251449000003,-9.71665437295,0.70408805005,-45.43000000000001,49.4025,-56.472500000000004,20.5
2.947598695755005,2.34436794235,-9.865607579799999,0.8626125472999999,-26.24125,36.487500000000004,-60.252500000000005,20.5
2.95302677154541,2.0853448958999996,-10.2544412523,0.9762716207999999,-4.733750000000001,20.01125,-62.448750000000004,20.5
2.9584505558013916,1.5655041860499999,-10.698908050249997,1.05583297225,20.903750000000002,7.420000000000001,-63.603750000000005,20.5
2.9639875888824463,1.1306086784999998,-11.143973053849999,1.03190474625,39.978750000000005,-0.8925000000000001,-63.05250000000001,20.5
2.969435453414917,0.5461617584499999,-11.455638197499997,1.0612168230999999,52.745000000000005,-3.8062500000000004,-60.13875000000001,20.5
2.974945545196533,0.1292124204,-12.000005339000001,0.9888339394499999,54.53875000000001,0.9100000000000001,-52.79750000000001,20.5
2.9804275035858154,-0.028713871199999998,-12.303295603549998,0.7268198647499999,42.035000000000004,13.291250000000002,-42.79625,20.5
2.985910177230835,-0.11006983959999998,-12.263215825,0.4223331889,23.72125,29.6275,-30.913750000000004,20.5
2.991307258605957,0.022731814700000002,-12.104691327749999,0.21595223965000002,-2.31,49.3325,-18.567500000000003,20.5
2.996880054473877,-0.0538385085,-11.40359430595,-0.0729810893,-29.575000000000003,75.3375,-12.180000000000001,20.5
3.002777099609375,-0.0526420972,-10.337591837649999,-1.1545369045,-48.790000000000006,89.53875000000001,-14.918750000000001,20.5
3.0083189010620117,-0.6185446420999999,-9.286544510599999,-1.5804593272999998,-51.651250000000005,91.8225,-24.70125,20.5
3.0137698650360107,-1.33938245035,-9.433104894849999,-2.37906387005,-33.4425,80.12375,-35.35875,20.5
3.0193049907684326,-1.6223337227999999,-9.780064171849999,-2.91266330985,-9.07375,59.963750000000005,-43.09375000000001,20.5
3.0247209072113037,-2.3599212892499994,-10.402796253499998,-3.18305226365,35.77,10.342500000000001,-49.1225,20.5
3.03309965133667,-3.1417760737999996,-10.4650096411,-2.66141693685,75.00500000000001,-24.01,-51.213750000000005,20.5
3.038524627685547,-3.1597222432999996,-10.1264252432,-1.7682959014,103.24125000000001,-60.191250000000004,-50.2775,20.5
3.0440235137939453,-3.43070940275,-10.177272723449999,-0.8380861156499999,124.73125000000002,-74.83000000000001,-45.815000000000005,20.5
3.0494723320007324,-3.669393457099999,-10.4386885925,0.12981062605,123.41000000000001,-77.5775,-42.49,20.5
3.0549476146698,-4.143770537549999,-11.02433192385,0.48574298779999997,107.91375000000001,-62.965,-35.1925,20.5
3.0603604316711426,-4.3501514868,-11.133205352149998,0.3002992363,78.19875,-34.1075,-27.0725,20.5
3.0658483505249023,-4.701896409,-11.121839444799999,-0.2883351233,41.53625,8.155000000000001,-16.98375,20.5
3.0712380409240723,-4.8299124181,-10.9244315803,-0.7292126873499999,-6.536250000000001,43.636250000000004,-4.62875,20.5
3.0766680240631104,-4.170689791799999,-10.8598253701,-0.9385846648499999,-49.70875,72.56375000000001,8.26875,20.5
3.0820860862731934,-4.5128634236,-9.769894675799998,-2.00578354445,-85.5575,99.19000000000001,24.106250000000003,20.5
3.087584972381592,-5.4281180681,-8.5627156741,-2.380858487,-101.92000000000002,125.71125,29.88125,20.5
3.0929877758026123,-6.1932230944499995,-7.401598507449998,-3.34097855525,-98.81375000000001,133.84875000000002,33.407500000000006,20.5
3.0984609127044678,-7.4835526815,-6.838686990799999,-3.43190581405,-84.805,135.21375,16.966250000000002,20.5
3.103935718536377,-7.11565620675,-7.23051169155,-3.66042037235,-66.64,112.15750000000001,7.910000000000001,20.5
3.1093697547912598,-7.311867659949999,-7.012764834949999,-2.97846593135,-38.8325,94.19375000000001,-0.45500000000000007,20.5
3.1149237155914307,-7.350751027199999,-7.28793943395,-2.2091734654499997,-13.055000000000001,69.72875,-5.73125,20.5
3.1203396320343018,-7.470392157199999,-8.13559684,-1.7210376550499997,10.701250000000002,51.791250000000005,-7.918750000000001,20.5
3.1258254051208496,-7.558926593399999,-8.52383230685,-1.5451651939499997,16.79125,35.1925,-8.05,20.5
3.131171464920044,-7.48295447585,-8.307281861549999,-1.8508482811,17.325000000000003,25.55,-7.9975000000000005,20.5
3.136627435684204,-6.9702922337999995,-8.101499117949999,-1.8287146720499998,6.86,21.09625,-7.376250000000001,20.5
3.1420233249664307,-6.8327049343,-7.687540808149999,-2.5136601413,-11.996250000000002,18.900000000000002,-10.482500000000002,20.5
3.1475682258605957,-6.732804590749999,-7.1653072757,-1.6618152956999999,-33.6875,28.577500000000004,-13.352500000000001,20.5
3.152985095977783,-6.769295135399999,-6.61435987205,-1.2131610581999999,-48.011250000000004,41.97375,-14.787500000000001,20.5
3.1584200859069824,-7.73898649405,-6.236293901249999,-0.6747759731999999,-51.25750000000001,49.901250000000005,-16.012500000000003,20.5
3.1640470027923584,-8.721240171349999,-6.65503785625,-0.06520441585,-43.636250000000004,57.837500000000006,-14.83125,20.5
3.1695148944854736,-9.160323118449998,-6.1776697475499995,0.3038884702,-26.792500000000004,62.142500000000005,-11.69875,20.5
3.1750636100769043,-9.677771005699999,-5.590231799249999,0.5276173833,3.1500000000000004,67.90875000000001,-9.09125,20.5
3.1805148124694824,-10.0295159279,-5.075176734599999,-0.04007977854999999,28.60375,68.53875000000001,-10.57,20.5
3.185988664627075,-9.5736832226,-5.34736030535,-0.6185446420999999,48.291250000000005,63.533750000000005,-18.856250000000003,20.5
3.191391706466675,-9.654440985349998,-7.248457861049999,-0.41814574934999993,67.40125,65.94875,-34.195,20.5
3.1969614028930664,-13.2777726074,-7.356134878049999,-4.07916432735,78.435,53.72500000000001,-30.82625,20.5
3.202388286590576,-9.4672026169,-4.82811780115,-3.6221352107500002,72.17875000000001,57.925000000000004,-57.65375,20.5
3.2078022956848145,-9.97627562505,-4.5900319524499995,-5.25404022395,75.54750000000001,43.0675,-62.588750000000005,20.5
3.2132275104522705,-9.820742156049999,-5.2450671392,-6.04726091585,55.291250000000005,40.17125,-67.55875,20.5
3.218764305114746,-10.18445119125,-6.2799629136999995,-6.702296102599999,28.192500000000003,44.651250000000005,-71.47875,20.5
3.224250316619873,-10.5954184728,-6.00658293165,-6.381657874199998,0.8662500000000001,51.90500000000001,-73.3075,20.5
3.229649066925049,-10.18445119125,-6.72442971165,-5.9659049474499986,-25.278750000000002,64.42625000000001,-77.245,20.5
3.235200881958008,-10.23709328845,-8.2456666796,-6.213562086549999,-43.776250000000005,68.99375,-74.09500000000001,20.5
3.240602970123291,-11.2211415827,-9.2339024134,-6.2177495260999995,-50.59250000000001,72.39750000000001,-68.2325,20.5
3.2460567951202393,-10.734202183599999,-10.4111711326,-6.0155560164,-49.017500000000005,71.6975,-61.267500000000005,20.5
3.2514779567718506,-10.83769176105,-10.56730280725,-5.474778108799999,-42.95375000000001,62.3175,-51.83500000000001,20.5
3.2570197582244873,-10.696515227649998,-10.5714902468,-5.140979356100001,-27.098750000000003,51.003750000000004,-41.658750000000005,20.5
3.2624776363372803,-9.87577707585,-11.22652543355,-4.986044092749999,-14.568750000000001,39.2175,-32.4275,20.5
3.2679245471954346,-10.44766167725,-11.294720877649999,-5.08295340805,-9.6425,29.312500000000004,-22.435000000000002,20.5
3.273303508758545,-9.4707918508,-10.7533447644,-3.7322050503499997,0.026250000000000002,18.15625,-8.70625,20.5
3.278855562210083,-8.983254246049999,-10.220343530249998,-3.4085757937,4.777500000000001,6.947500000000001,-2.5025000000000004,20.5
3.2843363285064697,-7.831110164149998,-9.514460863249997,-3.046063169799999,2.3975000000000004,0.9275000000000001,2.66875,20.5
3.289745330810547,-7.1282185253999995,-8.8749790234,-2.49272294355,-2.7125000000000004,-3.5087500000000005,5.827500000000001,20.5
3.2952845096588135,-6.4091753340999995,-7.85144915625,-1.88374959185,-5.7925,-6.098750000000001,4.567500000000001,20.5
3.3007020950317383,-5.80438942195,-7.501498850999999,-1.48654104025,-8.58375,-8.006250000000001,1.37375,20.5
3.306281089782715,-5.4023952251499985,-7.470392157199999,-1.30349011135,-6.055000000000001,-8.662500000000001,-2.12625,20.5
3.311866044998169,-5.204389154999999,-7.626523831849999,-0.98404829425,-2.44125,-9.3625,-5.7225,20.5
3.317383050918579,-5.5884371823,-8.0291162343,-0.7459624455499999,1.33875,-8.68875,-8.23375,20.5
3.3227689266204834,-5.8253266197,-8.49990408085,-0.4779663143499999,3.43,-4.322500000000001,-7.735,20.5
3.3282358646392822,-6.186044626649999,-8.961120636999999,-0.5024927459999999,2.2837500000000004,1.21625,-6.265000000000001,20.5
3.3336827754974365,-6.406184305849999,-9.401399995399998,-0.78903325235,-1.6625,7.51625,-4.82125,20.5
3.339167594909668,-6.82612467215,-9.486943403349999,-1.1222337993999998,-5.9675,13.431250000000002,-2.2837500000000004,20.5
3.3445825576782227,-6.879364975,-9.4791667299,-1.6277175736499998,-10.535,16.852500000000003,-0.5775,20.5
3.350041627883911,-7.243672215849999,-9.7208418125,-1.81435773645,-12.967500000000001,15.70625,1.4787500000000002,20.5
3.3555595874786377,-7.490132943649999,-9.9038927414,-1.8544375149999999,-12.705000000000002,11.66375,3.3425000000000002,20.5
3.360992431640625,-7.56431044425,-9.892526834049999,-1.8628123941,-8.9075,5.932500000000001,5.075,20.5
3.366431474685669,-7.742575727949999,-9.857830906349998,-1.8125631194999998,-3.1675000000000004,-0.9887500000000001,7.385000000000001,20.5
3.3718373775482178,-7.85264556755,-9.798608546999999,-1.7760725748500001,2.65125,-9.266250000000001,9.345,20.5
3.377366065979004,-7.665407199099999,-9.839884736850001,-1.8879370314,10.193750000000001,-18.47125,11.9,20.5
3.3862781524658203,-7.503293467949998,-9.8668039911,-2.2725832643499997,16.87,-23.966250000000002,15.198750000000002,20.5
3.391753911972046,-7.334001268999999,-9.61974505765,-2.3467607649499995,21.42875,-27.37,17.78,20.5
3.397274971008301,-7.285546611349999,-9.464809794299999,-2.5094727017499996,21.927500000000002,-28.28,20.343750000000004,20.5
3.4026927947998047,-7.350751027199999,-9.535996266649999,-2.83968222055,20.41375,-26.74875,22.977500000000003,20.5
3.40809965133667,-7.536792984349999,-9.5389872949,-3.2590243811999993,17.211250000000003,-22.96,25.278750000000002,20.5
3.4135396480560303,-7.811369377699999,-9.513862657599999,-3.5724841417999995,13.090000000000002,-17.815,27.090000000000003,20.5
3.4190878868103027,-8.150551981249999,-9.558129875699999,-3.9068811001499997,7.455000000000001,-14.5775,28.612500000000004,20.5
3.4245107173919678,-8.551947972399999,-9.6012006825,-4.121636928499999,2.7912500000000002,-12.923750000000002,30.266250000000003,20.5
3.4299533367156982,-8.943174467499999,-9.67956562265,-4.5212383027,0.22750000000000004,-15.295000000000002,31.990000000000002,20.5
3.435513496398926,-9.086743823499999,-9.851848849849999,-4.6073799163,0.35000000000000003,-21.253750000000004,35.525000000000006,20.5
3.4409494400024414,-8.95214755225,-9.655039190999998,-4.70608384855,2.3625000000000003,-30.310000000000002,38.447500000000005,20.5
3.4464073181152344,-9.415158725349999,-9.611968384199999,-4.6995035864,4.3925,-37.852500000000006,41.71125000000001,20.5
3.451817035675049,-9.55513884745,-9.48933622595,-4.56610372645,5.3637500000000005,-41.825,43.776250000000005,20.5
3.457294225692749,-9.5856473356,-9.108877432549999,-4.1300118076,3.2025,-41.597500000000004,44.345000000000006,20.5
3.4627223014831543,-9.644869694949998,-9.032905314999999,-4.1886359613,0.805,-39.06,44.056250000000006,20.5
3.4681639671325684,-10.0008020567,-8.817551280999998,-3.9978083589499995,-3.0975,-33.6175,43.505,20.5
3.4735348224639893,-10.001400262349998,-8.7278204335,-3.70827682435,-6.763750000000001,-27.0725,41.518750000000004,20.5
3.479094982147217,-10.551749460349999,-8.6799639815,-3.34696061175,-10.57,-20.090000000000003,39.9525,20.5
3.4845218658447266,-11.005189343049997,-8.520841278599999,-3.2297123043499996,-14.656250000000002,-12.836250000000001,39.2875,20.5
3.4899187088012695,-11.20738285275,-8.044071375549999,-3.08614294835,-18.36625,-9.283750000000001,39.628750000000004,20.5
3.495473623275757,-11.481361040449999,-8.204390489749999,-3.357728313449999,-20.466250000000002,-9.7125,42.157500000000006,20.5
3.500924587249756,-11.175079747649999,-8.19362278805,-2.9868408104499995,-18.43625,-13.265,46.191250000000004,20.5
3.5063467025756836,-11.245069808699999,-8.1798640581,-3.01316185905,-15.295000000000002,-16.66,49.9975,20.5
3.511765480041504,-11.33061321665,-7.591827904149999,-2.6895326023999995,-6.39625,-19.67875,51.92250000000001,20.5
3.5173182487487793,-10.8478612571,-7.2059852599,-2.6955146588999996,-1.32125,-21.560000000000002,52.84125,20.5
3.522698402404785,-10.206584800299998,-6.991827637199999,-2.784647300749999,2.1612500000000003,-22.461250000000003,51.73875,20.5
3.528165340423584,-9.8201439504,-7.192824735599999,-2.8725835312999997,4.742500000000001,-21.253750000000004,51.03875000000001,20.5
3.5336122512817383,-9.62213788025,-6.99721148805,-2.77507601035,3.1675000000000004,-16.485000000000003,50.09375000000001,20.5
3.5391592979431152,-9.278169631499999,-6.82373184955,-2.5884358475499996,-2.2487500000000002,-10.176250000000001,50.01500000000001,20.5
3.5446228981018066,-8.697910150999999,-6.7573310224,0.23688943739999999,-0.69125,-4.01625,50.767500000000005,20.5
3.5500810146331787,-7.927421273799999,-6.653841444949999,-2.1122641501499997,-21.236250000000002,8.863750000000001,52.097500000000004,20.5
3.555708885192871,-8.877371845999999,-6.1998033565999995,-2.5082762904499996,-35.910000000000004,22.540000000000003,51.6075,20.5
3.561145782470703,-8.742177369099998,-5.9270215802,-2.40418850735,-48.956250000000004,32.85625,48.230000000000004,20.5
3.5665998458862305,-8.80379255105,-5.304289498549998,-2.92103818895,-55.947500000000005,39.103750000000005,43.785000000000004,20.5
3.572002649307251,-8.83370283355,-4.6791645942999995,-3.3810583337999995,-57.688750000000006,39.27,37.073750000000004,20.5
3.577535629272461,-9.169296203199998,-4.2699919297,-3.8093735791999994,-49.385000000000005,30.266250000000003,28.262500000000003,20.5
3.582974672317505,-9.15553747325,-4.266402695799999,-4.06600380305,-30.038750000000004,16.817500000000003,20.343750000000004,20.5
3.5883984565734863,-8.2277205101,-4.979463830599999,-3.84347130125,-13.623750000000001,-5.617500000000001,15.881250000000001,20.5
3.593745231628418,-7.552346331249999,-6.08674248875,-3.3128628897,-1.2775,-27.335,25.567500000000003,20.5
3.5993783473968506,-6.7298135624999995,-7.101299271149999,-3.4133614388999995,20.020000000000003,-57.2075,29.636250000000004,20.5
3.604790210723877,-6.259623921599999,-6.5515482787999995,-2.26779761915,26.78375,-76.14250000000001,38.64875000000001,20.5
3.6102161407470703,-4.78265417175,-6.64905579975,-1.7389838245499998,28.210000000000004,-86.32750000000001,45.57000000000001,20.5
3.6157400608062744,-3.26440823205,-6.9128644914,-0.9714859755999999,25.970000000000002,-88.19125000000001,51.056250000000006,20.5
3.621138095855713,-2.41017056385,-7.100701065499999,-1.1491530536499999,22.74125,-84.55125000000001,56.910000000000004,20.5
3.626587152481079,-1.2197413203499998,-7.545766069099999,-1.5565311012999998,22.793750000000003,-80.09750000000001,64.52250000000001,20.5
3.6320178508758545,-0.43369909624999997,-8.069196012849998,-2.00458713315,25.2875,-75.92375000000001,70.49875,20.5
3.6375479698181152,0.22612173569999997,-8.61475956565,-2.8594230069999997,25.970000000000002,-71.81125,76.965,20.5
3.6429827213287354,0.7992027483999999,-8.9802632178,-3.5252258954499998,22.84625,-69.1075,86.76500000000001,20.5
3.648446559906006,1.0001998468,-8.603991863949998,-3.76570456675,15.540000000000001,-66.83250000000001,88.06,20.5
3.6539406776428223,1.32023986955,-8.21396178015,-3.5730823474499998,3.9025000000000003,-65.73,86.61625000000001,20.5
3.659329414367676,1.7186448324499999,-8.028518028649998,-3.09930347265,-7.490000000000001,-65.59,83.30875,20.5
3.66473650932312,2.3826531039499996,-8.306683655899999,-2.39820645085,-19.0925,-65.05625,81.28750000000001,20.5
3.6701765060424805,3.026920589,-8.725427610899999,-1.3561322085499998,-30.345000000000002,-63.95375000000001,80.43875000000001,20.5
3.675694227218628,3.7160534977999995,-8.961120636999999,-0.47198425785,-37.791250000000005,-60.025000000000006,81.99625,20.5
3.6811373233795166,4.308875296949999,-8.99521835905,0.34636107135,-43.37375,-56.376250000000006,86.24000000000001,20.5
3.6865792274475098,4.864608345799999,-8.914460596299998,0.9822536772999998,-48.737500000000004,-54.68750000000001,90.03750000000001,20.5
3.6919729709625244,5.31386078895,-8.925826503649999,1.78803668785,-54.705000000000005,-52.237500000000004,91.91000000000001,20.5
3.697512149810791,5.7768719620499995,-8.80259613975,2.0422740890999997,-57.23375000000001,-46.033750000000005,93.415,20.5
3.7029271125793457,6.6376898924,-9.14357336025,2.0566310246999997,-56.00000000000001,-40.066250000000004,92.70625000000001,20.5
3.708354949951172,7.071388988649999,-9.19501904615,2.1152551784,-51.40625000000001,-32.821250000000006,91.09625000000001,20.5
3.7139148712158203,7.60977407365,-9.06461021445,1.9250257816999998,-44.48500000000001,-26.425000000000004,88.68125,20.5
3.7193727493286133,7.873582765299999,-9.583254513,1.6163516663,-36.365,-20.44,80.79750000000001,20.5
3.724757671356201,8.23669359485,-10.83769176105,1.32263269215,-30.371250000000003,-21.14,72.64250000000001,20.5
3.7302067279815674,8.2588272039,-12.8685999428,-0.95413801175,-27.991250000000004,-21.673750000000002,67.55875,20.5
3.7387256622314453,8.02373238345,-12.631112299749999,1.5308082583499998,-25.2175,-32.12125,59.57875000000001,20.5
3.7441904544830322,7.651050263499999,-13.3148613577,2.6356940938999998,-25.43625,-35.6475,58.24000000000001,20.5
3.7496354579925537,7.0683979604,-13.659427812099999,2.6321048599999997,-24.841250000000002,-40.68750000000001,58.196250000000006,20.5
3.7556092739105225,7.3447689707,-13.848460797499998,3.3714870433999997,-30.493750000000002,-40.38125,62.19500000000001,20.5
3.76106333732605,7.277171732249999,-13.63011573525,3.7758740628,-36.1375,-35.945,68.60000000000001,20.5
3.766477108001709,8.21037254625,-13.315459563349998,4.996213588799999,-43.400000000000006,-28.840000000000003,69.50125000000001,20.5
3.7719221115112305,5.7846486355,-12.72562879245,3.3535408738999997,-49.87500000000001,-23.021250000000002,73.8675,20.5
3.777435064315796,5.66201647725,-13.13599786835,3.2207392195999995,-51.37125,-26.390000000000004,79.97500000000001,20.5
3.782844066619873,6.082555049199999,-12.386446188899999,2.7990042363499996,-53.620000000000005,-17.63125,88.78625000000001,20.5
3.788250684738159,0.005383850849999999,-10.766505288699998,2.644068973,-48.580000000000005,-19.85375,84.91875,20.5
3.7936346530914307,5.000999233999999,-10.676176235549997,1.1246266219999999,-49.691250000000004,-11.812500000000002,85.1375,20.5
3.7991597652435303,4.9603212498,-10.815558151999998,0.40857445894999994,-39.445,-10.80625,84.00000000000001,20.5
3.8045735359191895,4.6791645942999995,-11.316256281049998,-0.29491538544999996,-31.85,-10.158750000000001,79.72125000000001,20.5
3.809992551803589,4.72403001805,-12.023933564999998,-0.5730810126999999,-29.925000000000004,-13.597500000000002,77.53375000000001,20.5
3.8155434131622314,4.4709890281,-12.18963653005,-0.6095715573499999,-29.863750000000003,-18.016250000000003,74.28750000000001,20.5
3.820983409881592,4.575675016849999,-12.675379517849999,-0.48693939909999995,-31.92,-23.54625,73.89375000000001,20.5
3.8264365196228027,4.479363907199999,-12.85603762415,-0.4019941968,-39.620000000000005,-28.157500000000002,73.73625000000001,20.5
3.831890344619751,4.45962312075,-12.63350512235,0.1339980656,-49.57750000000001,-31.491250000000004,76.09,20.5
3.8374221324920654,4.2903309218,-12.32722382955,0.7393821834,-59.972500000000004,-30.948750000000004,81.70750000000001,20.5
3.8428890705108643,4.06121815785,-11.8301149344,1.43030970915,-66.92,-23.82625,84.92750000000001,20.5
3.8483400344848633,4.1611185014,-11.3192473093,2.1978075581,-74.3575,-16.51125,88.97875,20.5
3.853732109069824,3.7136606751999994,-9.8919286284,2.4514467537,-75.98500000000001,-4.6725,86.38000000000001,20.5
3.8592329025268555,4.371088684549999,-10.121639597999998,3.2853454297999996,-79.21375,5.94125,85.93375,20.5
3.8646697998046875,4.4099720518,-9.2745803976,2.8115665549999997,-76.44000000000001,19.67,80.57875000000001,20.5
3.8700757026672363,4.3154555591,-9.623932497199998,2.4185454429499997,-72.49375,29.198750000000004,80.27250000000001,20.5
3.875567674636841,4.972285362799999,-8.983852451699999,1.5738790651499999,-65.49375,33.862500000000004,75.12750000000001,20.5
3.8810625076293945,5.12722062615,-8.86600593865,0.9308079913999999,-62.05500000000001,38.727500000000006,66.15875000000001,20.5
3.8865315914154053,4.5212383027,-8.2564343813,0.08255237969999998,-54.22375,34.5275,62.160000000000004,20.5
3.891941547393799,4.47278364505,-7.785646534749999,-0.34636107135,-42.65625000000001,23.730000000000004,57.977500000000006,20.5
3.897521495819092,4.331008905999999,-7.61575613015,-0.9469595439499999,-38.088750000000005,11.926250000000001,52.587500000000006,20.5
3.902977466583252,4.331008905999999,-7.737191877099999,-1.0492527101,-31.237500000000004,0.9362500000000001,45.535000000000004,20.5
3.908428430557251,4.216751626849999,-7.46381189505,-1.1964112999999998,-26.390000000000004,-8.8725,36.07625,20.5
3.913940191268921,4.1144584607,-7.42193749955,-1.1784651305,-18.655,-21.700000000000003,28.848750000000003,20.5
3.9194021224975586,3.8572300311999994,-7.436294435149999,-0.8147560952999998,-15.128750000000002,-29.583750000000002,22.40875,20.5
3.924830198287964,3.5671002909499996,-7.46979395155,-0.30568308715,-12.958750000000002,-32.41875,16.68625,20.5
3.930267095565796,3.6155549485999994,-7.811369377699999,0.37387853125,-12.950000000000001,-32.08625,15.102500000000001,20.5
3.935845136642456,2.5639094158999995,-8.01057185915,0.9140582331999999,-14.875000000000002,-24.832500000000003,11.68125,20.5
3.941290855407715,3.0281170003,-7.917849983399999,1.2311072276999997,-19.0225,-15.802500000000002,9.89625,20.5
3.9468188285827637,2.8450660714,-7.9238320399,1.65523503355,-24.2025,-4.15625,9.47625,20.5
3.9522147178649902,2.7984060307,-8.303094422,1.54396878265,-29.347500000000004,6.3875,12.853750000000002,20.5
3.9576666355133057,2.53340092775,-8.423333757650001,1.1856435983,-30.765000000000004,17.045,14.043750000000001,20.5
3.963090658187866,2.54656145205,-8.2408810344,0.9583254512999998,-31.858750000000004,21.113750000000003,12.8275,20.5
3.9684834480285645,2.6099712509499993,-7.934599741599999,0.5826523030999999,-28.647500000000004,23.406250000000004,11.961250000000001,20.5
3.9740214347839355,2.54177580685,-7.951947705449999,-0.0765703232,-24.220000000000002,21.6825,9.756250000000001,20.5
3.9795193672180176,2.48434806445,-7.9567333506499995,-0.5868397426499999,-19.495,14.175,5.76625,20.5
3.9850823879241943,2.4472593141499996,-7.996214923549999,-0.94217389875,-13.97375,7.166250000000001,1.5312500000000002,20.5
3.9905002117156982,2.2600209457,-8.073981658049998,-1.0295119236499999,-10.0975,-0.5775,-3.08875,20.5
3.9959871768951416,2.11944261795,-8.20199766715,-1.1449656141,-6.16875,-7.883750000000001,-7.717500000000001,20.5
4.001428127288818,1.8323039059499997,-8.46999379835,-1.0911271056,-4.01625,-16.966250000000002,-12.530000000000001,20.5
4.006955146789551,1.5661023916999999,-8.6967137397,-0.9954142015999999,-2.7825,-20.798750000000002,-15.242500000000001,20.5
4.012402057647705,1.4081761001,-8.997611181649999,-0.7423732116499998,-3.3950000000000005,-23.3975,-16.528750000000002,20.5
4.017868995666504,1.2891331757499997,-9.346365075599998,-0.29850461935,-4.795000000000001,-23.677500000000002,-15.732500000000002,20.5
4.023261785507202,1.0271191010499998,-9.7806623775,0.017946169499999998,-6.88625,-21.93625,-12.075000000000001,20.5
4.028810739517212,0.849452023,-9.92961558435,0.2943171798,-8.68875,-17.0625,-7.901250000000001,20.5
4.0343005657196045,0.8656035755499999,-10.004391290600001,0.6340979889999999,-9.96625,-11.926250000000001,-3.77125,20.5
4.039706468582153,0.9571290399999999,-9.92363352785,0.6807580296999999,-11.48,-6.090000000000001,-0.18375000000000002,20.5
4.045275449752808,1.07497555305,-9.82911703515,0.66939212235,-12.696250000000001,-0.10500000000000001,2.6775,20.5
4.050710439682007,1.1521440819,-9.74177901025,0.4881358103999999,-15.015,5.425000000000001,3.08875,20.5
4.056118488311768,1.2179467034,-9.798010341349999,0.3152543775499999,-16.528750000000002,7.848750000000001,3.4037500000000005,20.5
4.06156849861145,1.23290184465,-9.856634495049999,0.16331014244999997,-16.056250000000002,7.9625,3.5525,20.5
4.067129373550415,1.2412767237499998,-9.75733235715,0.0394815729,-16.301250000000003,5.73125,2.56375,20.5
4.072533130645752,1.3387842447,-9.705886671250001,0.013758729949999998,-14.84875,0.10500000000000001,1.7587500000000003,20.5
4.077989101409912,1.35972144245,-9.620941468949999,-0.032901310749999996,-13.431250000000002,-2.6950000000000003,0.7350000000000001,20.5
4.0834431648254395,1.39322095885,-9.718448989899999,-0.020338992099999998,-9.7825,-8.933750000000002,-1.44375,20.5
4.091907024383545,1.4530415238499998,-9.828518829499998,0.26380869165,-6.151250000000001,-13.93875,-3.2812500000000004,20.5
4.097470998764038,1.3908281362499997,-9.958927661199999,0.4013959911499999,-2.1437500000000003,-16.625,-3.7012500000000004,20.5
4.102945804595947,1.3411770672999999,-10.00977514145,0.57128639575,0.8487500000000001,-18.445,-3.9462500000000005,20.5
4.108360767364502,1.4177473905,-10.019944637499998,0.7453642399,5.8100000000000005,-18.43625,-3.5787500000000003,20.5
4.113772630691528,1.4267204752499996,-10.0462656861,0.8075776274999998,8.05,-17.4475,-2.1,20.5
4.119288444519043,1.42313124135,-9.979266653299998,0.7734799054499999,9.738750000000001,-15.9075,-1.8987500000000002,20.5
4.124695539474487,1.5996019081,-9.913464031799998,0.8823533337499999,8.98625,-12.162500000000001,-0.9975,20.5
4.130115509033203,1.62293192845,-9.869196813699999,0.7531409133499999,8.07625,-6.22125,-0.7087500000000001,20.5
4.136110544204712,1.6899309612499998,-9.938588669099998,0.6825526466499999,6.545000000000001,-1.6712500000000001,-0.36750000000000005,20.5
4.1416473388671875,1.6331014245,-9.919446088299999,0.53180482285,5.08375,2.0125,0.07,20.5
4.147188186645508,1.7066807194499998,-9.94756175385,0.430708068,3.6925000000000003,4.523750000000001,0.34125000000000005,20.5
4.152616024017334,1.6462619487999999,-9.89491965665,0.34337004309999997,2.66875,5.197500000000001,0.35000000000000003,20.5
4.15805196762085,1.6546368278999999,-9.836893708599998,0.20039889274999997,2.6862500000000002,4.786250000000001,0.2625,20.5
4.163501977920532,1.6923237838499998,-9.892526834049999,0.1052841944,2.5200000000000005,3.5000000000000004,-0.10500000000000001,20.5
4.169065952301025,1.6725829973999997,-9.861420140249999,0.06640082715,3.0275000000000003,1.9250000000000003,-0.08750000000000001,20.5
4.174501895904541,1.6654045295999997,-9.815956510849999,0.08374879099999999,3.2287500000000002,0.525,-0.5425000000000001,20.5
4.179890871047974,1.7090735420499998,-9.74776106675,0.06101697629999999,1.8200000000000003,-0.4025,-1.1025,20.5
4.185526609420776,1.65523503355,-9.71186872775,0.062213387599999996,1.4525000000000001,-0.8487500000000001,-1.5925000000000002,20.5
4.19092059135437,1.6713865861,-9.718448989899999,0.0765703232,0.0,-1.0237500000000002,-2.2925000000000004,20.5
4.196371555328369,1.6103696097999998,-9.637093021499998,0.09690931529999999,-1.6187500000000001,-0.3325,-2.3625000000000003,20.5
4.201810598373413,1.6965112234,-9.655637396649999,0.1292124204,-1.7062500000000003,-0.052500000000000005,-2.63375,20.5
4.207311630249023,1.7371892076,-9.655039190999998,0.16929219894999997,-1.2862500000000001,0.6737500000000001,-2.2750000000000004,20.5
4.212755441665649,1.6175480775999997,-9.69751179215,0.15074782379999999,-0.9187500000000001,0.7875000000000001,-2.2837500000000004,20.5
4.218297243118286,1.7455640866999997,-9.687940501749999,0.2667997199,0.0,0.6475000000000001,-2.3800000000000003,20.5
4.2237021923065186,1.7383856188999998,-9.719047195549999,0.32063822839999995,1.6450000000000002,1.54,-2.5812500000000003,20.5
4.229274272918701,1.80717926865,-9.73699336505,0.41096728154999995,2.33625,1.6625,-3.2900000000000005,20.5
4.234737157821655,1.84905366415,-9.783653405749998,0.4133601041499999,2.1700000000000004,2.2575000000000003,-3.99,20.5
4.240160942077637,1.7868402765499998,-9.823134978649998,0.35473595045,2.65125,3.1412500000000003,-4.121250000000001,20.5
4.245754957199097,1.7024932798999997,-9.8500542329,0.30807590975,1.9425000000000001,3.9025000000000003,-4.760000000000001,20.5
4.251153945922852,1.5930216459499997,-9.89013401145,0.31704899449999996,0.39375000000000004,4.5062500000000005,-5.3725000000000005,20.5
4.256579637527466,1.5176477340499999,-9.916455060049998,0.31286155495,-4.112500000000001,4.777500000000001,-6.081250000000001,20.5
4.262020826339722,1.5541382787,-9.9625168951,0.26500510294999996,-4.532500000000001,5.705000000000001,-6.16,20.5
4.267552614212036,1.43150612045,-10.01934643185,0.28893332894999996,-7.043750000000001,7.052500000000001,-5.775,20.5
4.273000717163086,1.43030970915,-10.0462656861,0.34576286570000003,-10.543750000000001,8.7675,-5.04875,20.5
4.278452634811401,1.39920301535,-9.972686391149999,0.34217363179999993,-13.606250000000001,10.780000000000001,-4.40125,20.5
4.283970355987549,1.4404792052000002,-9.927820967399999,0.2943171798,-16.80875,11.891250000000001,-3.9287500000000004,20.5
4.2893853187561035,1.4775679554999999,-9.926624556099998,0.29850461935,-17.85,12.985000000000001,-3.5875000000000004,20.5
4.294801235198975,1.4033904548999998,-9.88415195495,0.32602207924999993,-18.200000000000003,14.087500000000002,-3.4562500000000003,20.5
4.3002471923828125,1.4446666447499998,-9.92482993915,0.27936203854999997,-17.9375,13.947500000000002,-3.54375,20.5
4.305751323699951,1.5002997702,-9.90688376965,0.2165504453,-16.266250000000003,12.311250000000001,-3.1587500000000004,20.5
4.311186075210571,1.4925230967499998,-9.99182897195,0.04307080679999999,-13.335,10.0975,-2.8087500000000003,20.5
4.316629886627197,1.5116656775499997,-10.04985492,0.06640082715,-9.17875,7.9887500000000005,-3.3950000000000005,20.5
4.322049856185913,1.5702898312499998,-10.00259667365,0.19740786449999997,-5.040000000000001,2.75625,-4.01625,20.5
4.32764196395874,1.6181462832499998,-10.048060303049999,0.23449661479999998,-1.715,1.6887500000000002,-4.786250000000001,20.5
4.333093881607056,1.6115660211,-10.036096190049998,0.32542387359999997,0.5687500000000001,0.6825000000000001,-5.390000000000001,20.5
4.338531732559204,1.6630117069999997,-10.016953609249999,0.41216369284999993,1.44375,0.3325,-6.116250000000001,20.5
4.344087600708008,1.64446733185,-10.057033387799999,0.46540399569999996,0.43750000000000006,0.6737500000000001,-6.64125,20.5
4.34955358505249,1.6319050132,-10.104291634149998,0.4755734917499999,-0.9450000000000001,2.24,-6.16875,20.5
4.355068683624268,1.5780665047,-10.087541875949999,0.42293139455,-4.90875,3.4825000000000004,-6.01125,20.5
4.360665559768677,1.5972090855,-10.0175518149,0.4073780476499999,-8.25125,4.357500000000001,-5.031250000000001,20.5
4.366112470626831,1.6115660211,-10.001998467999998,0.41635113239999993,-10.648750000000001,5.985,-4.760000000000001,20.5
4.371524333953857,1.5613167465000002,-10.025926693999999,0.44626141489999993,-12.512500000000001,7.09625,-4.086250000000001,20.5
4.377109050750732,1.5445669883,-9.967302540299999,0.5958128274,-13.256250000000001,7.367500000000001,-3.31625,20.5
4.3825461864471436,1.5475580165499996,-9.9625168951,0.7022934331,-11.908750000000001,8.540000000000001,-2.4937500000000004,20.5
4.387946128845215,1.4464612617,-9.9349994352,0.78903325235,-10.6225,10.360000000000001,-1.8725000000000003,20.5
4.39328408241272,1.46620204815,-9.976873830699999,0.81774712355,-9.03875,11.856250000000001,-1.3562500000000002,20.5
4.39897894859314,1.4279168865499998,-9.98704332675,0.63828542855,-7.09625,13.09875,-0.77875,20.5
4.404412746429443,1.46021999165,-10.0031948793,0.76749784895,-5.53875,13.256250000000001,-0.07875000000000001,20.5
4.40981388092041,1.4823536006999998,-10.019944637499998,0.5922235935,-4.47125,11.71625,0.10500000000000001,20.5
4.415367841720581,1.4757733385499998,-9.999605645399999,0.5306084115499999,-2.0825,9.93125,-0.21875000000000003,20.5
4.4207985401153564,1.4584253746999998,-10.016953609249999,0.5425725245499999,1.82875,7.638750000000001,0.47250000000000003,20.5
4.426227569580078,1.43270253175,-9.988239738049998,0.6981059935499999,5.0925,4.59375,0.25375000000000003,20.5
4.431655645370483,1.3956137814499998,-9.90090171315,0.7830511958499999,8.977500000000001,1.4000000000000001,0.0,20.5
4.4372475147247314,1.3190434582499997,-10.109675485,0.6107679686499999,16.66,-0.11375000000000002,-1.54,20.5
4.445711374282837,1.3076775508999998,-10.2125668568,0.96012006825,13.160000000000002,-1.7937500000000002,-0.63875,20.5
4.451155424118042,1.22333055425,-9.832706269049998,1.0540383553,11.103750000000002,-2.2225,-1.155,20.5
4.456560373306274,1.25443724805,-9.8811609267,1.0456634761999999,10.377500000000001,-1.37375,-0.805,20.5
4.461956262588501,1.2747762401499998,-9.88893760015,1.09172531125,9.520000000000001,-1.00625,0.41125000000000006,20.5
4.467488050460815,1.1006983959999999,-9.868598608049998,1.1210373881,9.100000000000001,-2.7475,1.7062500000000003,20.5
4.4728710651397705,1.2017951508499998,-9.96431151205,1.0779665813,11.0075,-3.0625000000000004,3.9287500000000004,20.5
4.478302955627441,1.0666006739499998,-9.927222761749999,1.1473584366999998,13.807500000000001,-2.56375,7.420000000000001,20.5
4.483720779418945,1.0085747259,-9.7818587888,1.1617153723,15.968750000000002,-2.9050000000000002,12.932500000000001,20.5
4.489234924316406,1.17427769095,-9.57787066215,1.1790633361499998,17.675,-3.2900000000000005,14.1225,20.5
4.494736909866333,1.2239287599,-9.4480600361,0.9332008139999999,18.313750000000002,-2.2225,16.17,20.5
4.5001585483551025,1.3363914221,-9.25244678855,0.78903325235,18.462500000000002,-0.9625000000000001,17.071250000000003,20.5
4.505656480789185,1.1790633361499998,-9.2793660428,0.5144568589999999,16.301250000000003,1.3125000000000002,16.2575,20.5
4.511058568954468,1.4733805159499997,-9.5246303593,0.15553346899999998,12.18875,2.24,16.5375,20.5
4.516947269439697,1.4596217859999998,-9.41755154795,-0.060418770649999995,7.411250000000001,1.0325000000000002,19.0225,20.5
4.522441387176514,1.43030970915,-9.67717280005,-0.36011980130000004,3.3687500000000004,-3.2287500000000002,23.231250000000003,20.5
4.5279014110565186,1.22811619945,-9.799206752649999,-0.5377868793499999,0.035,-9.686250000000001,30.485000000000003,20.5
4.533320426940918,1.24247313505,-9.812965482600001,-0.76989067155,-3.22,-17.1675,34.352500000000006,20.5
4.538843154907227,1.49132668545,-9.561120903949998,-0.72801627605,-3.9375000000000004,-20.903750000000002,36.60125,20.5
4.54433012008667,1.6683955578499998,-9.328418906099998,-0.6257231099,-4.803750000000001,-21.953750000000003,36.96875,20.5
4.549834251403809,1.8879370314,-8.9694955161,-0.31884361145,-6.772500000000001,-20.895000000000003,35.18375,20.5
4.555347919464111,2.2079770541499997,-8.636294969049999,-0.12442677519999999,-10.307500000000001,-16.887500000000003,31.526250000000005,20.5
4.5607826709747314,2.2073788485,-8.63749138035,0.0131605243,-13.203750000000001,-11.9525,27.177500000000002,20.5
4.56624174118042,2.26660120785,-8.68774065495,0.15493526335,-14.568750000000001,-7.09625,21.20125,20.5
4.5716516971588135,2.2839491717,-8.5986080131,-0.15672988029999999,-9.24,-7.883750000000001,16.73,20.5
4.577189683914185,2.4454646972,-8.9946201534,-0.05563312545,-16.091250000000002,-2.7912500000000002,10.64,20.5
4.5826256275177,2.45563419325,-8.961718842649999,-0.0526420972,-14.472500000000002,0.5687500000000001,7.411250000000001,20.5
4.588088512420654,2.3868405435,-9.251250377249999,-0.18125631194999997,-12.705000000000002,0.20125,3.8587500000000006,20.5
4.593488454818726,2.4622144553999994,-9.3128655592,-0.33499516399999996,-8.98625,-1.1375000000000002,-0.9100000000000001,20.5
4.59900426864624,2.3647069344499996,-9.5198447141,-0.4839483708499999,-4.66375,-3.00125,-3.1500000000000004,20.5
4.6044464111328125,2.2031914089499995,-9.714859756,-0.4899304273499999,1.12,-4.89125,-4.89125,20.5
4.6098551750183105,1.9770696732499997,-9.85304526115,-0.5497509923499999,4.9175,-8.015,-6.142500000000001,20.5
4.615383148193359,1.9058832008999997,-10.11625574715,-0.6658028884499999,6.982500000000001,-11.165000000000001,-7.5075,20.5
4.620763063430786,1.7826528369999999,-10.2424771393,-0.7453642399,8.3475,-13.186250000000001,-8.898750000000001,20.5
4.62618613243103,1.9441683625,-10.387841112249998,-0.47258246349999994,6.361250000000001,-9.93125,-8.89,20.5
4.631622076034546,1.7838492482999997,-10.37109135405,-0.2105683888,3.5525,-3.54375,-9.406250000000002,20.5
4.637167692184448,1.64566374315,-10.56610639595,-0.1328016543,-1.4700000000000002,3.0450000000000004,-10.762500000000001,20.5
4.642589807510376,1.5655041860499999,-10.74437167965,-0.0669990328,-6.6762500000000005,9.686250000000001,-12.250000000000002,20.5
4.648108720779419,1.4799607781,-10.83170970455,-0.08195417405,-12.346250000000001,17.325000000000003,-11.436250000000001,20.5
4.653564691543579,1.3286147486499997,-10.875976922649999,-0.08135596839999999,-18.80375,21.6125,-9.922500000000001,20.5
4.659164667129517,0.41635113239999993,-10.939984927199998,-0.05084748024999999,-25.025000000000002,23.992500000000003,-7.936250000000001,20.5
4.664640426635742,1.51525491145,-10.594820267149998,-0.16510475939999997,-21.918750000000003,25.725,-10.49125,20.5
4.6700804233551025,1.4572289634,-10.4697952863,-0.11425727914999999,-22.802500000000002,29.303750000000004,-8.102500000000001,20.5
4.675586462020874,1.2897313813999998,-10.197611715549998,-0.21595223965000002,-21.97125,31.202500000000004,-6.921250000000001,20.5
4.681036472320557,1.3668999102499997,-10.455438350699998,-0.23389840915,-20.25625,33.1625,-5.775,20.5
4.686467170715332,1.1952148887,-10.4231352456,-0.34516466005,-15.995000000000001,34.518750000000004,-9.09125,20.5
4.6918580532073975,1.7216358606999997,-10.1479606466,-0.47138605219999996,-10.955000000000002,34.23875,-12.950000000000001,20.5
4.697380065917969,1.94476656815,-10.06361364995,-0.5982056499999999,-7.97125,32.7425,-11.558750000000002,20.5
4.702744007110596,1.8484554585000001,-10.008578730149999,-0.59521462175,-4.83875,33.1625,-10.6925,20.5
4.708169937133789,1.79042951045,-9.994221794549999,-0.4139583098,-3.2025,35.175000000000004,-10.780000000000001,20.5
4.713624954223633,1.8340985228999995,-9.921240705249998,-0.22432711874999997,-3.0362500000000003,38.19375,-11.68125,20.5
4.719207763671875,1.8364913454999998,-9.8153583052,-0.20219350969999997,-4.0425,42.27125,-13.177500000000002,20.5
4.724642753601074,1.8412769907,-9.7639126193,-0.21714865095,-6.326250000000001,45.64000000000001,-13.965000000000002,20.5
4.7301037311553955,1.9992032822999997,-9.71545796165,-0.4558327053,-9.625000000000002,50.02375000000001,-14.1925,20.5
4.735663414001465,1.93280245515,-9.705886671250001,-0.44446679795,-12.740000000000002,54.783750000000005,-12.258750000000001,20.5
4.74109148979187,1.8664016279999998,-9.608977355949998,-0.6418746624499999,-15.881250000000001,57.855000000000004,-9.940000000000001,20.5
4.74661660194397,2.0350956212999995,-9.3667040677,-0.8207381517999999,-19.521250000000002,56.175000000000004,-7.0875,20.5
4.752047538757324,2.1176480009999996,-9.049655073199999,-0.77706913935,-20.92125,54.285000000000004,-5.08375,20.5
4.757500410079956,2.2528424779,-8.83370283355,-0.7202396026000001,-18.121250000000003,52.77125,-0.8400000000000001,20.5
4.762874364852905,2.3916261886999997,-8.91505880195,-0.7704888771999999,-15.540000000000001,47.792500000000004,2.8525000000000005,20.5
4.768332242965698,2.8002006476499997,-8.29412133725,-0.58444692005,-11.270000000000001,44.511250000000004,4.19125,20.5
4.773721218109131,3.2709884942,-8.05723189985,-0.38763726119999997,-9.10875,43.45250000000001,4.4275,20.5
4.779254913330078,3.0317062341999996,-7.8430742771499995,0.14775679555,-6.518750000000001,43.60125000000001,3.5175000000000005,20.5
4.784936904907227,3.457628657,-7.1054867107,0.25304098994999996,-3.0625000000000004,41.221250000000005,-0.56,20.5
4.790456056594849,3.0436703471999995,-6.784250276649998,0.33798619224999993,2.1612500000000003,42.980000000000004,-11.36625,20.5
4.799303770065308,3.1058837348,-7.503891673599999,-0.1363908882,11.9175,43.347500000000004,-21.6475,20.5
4.804807901382446,2.4963121774499997,-7.66121975955,-0.47138605219999996,24.867500000000003,40.556250000000006,-30.432500000000005,20.5
4.8103296756744385,2.2803599377999997,-7.7916285912499985,-0.6137589969,37.77375000000001,35.7175,-36.260000000000005,20.5
4.8160505294799805,2.1176480009999996,-7.934599741599999,-0.8380861156499999,47.10125000000001,29.863750000000003,-41.83375,20.5
4.821679592132568,2.11106773885,-7.957331556299999,-0.93738825355,52.596250000000005,24.19375,-44.642500000000005,20.5
4.8273773193359375,1.8568303375999997,-7.971090286249999,-0.6412764567999999,56.58625000000001,20.32625,-49.07000000000001,20.5
4.832907438278198,1.6247265453999997,-8.38385218475,-0.23509482044999996,57.08500000000001,15.417500000000002,-48.85125000000001,20.5
4.8384692668914795,1.1198409767999997,-8.934799588399999,-0.10588240005,59.001250000000006,10.158750000000001,-52.78000000000001,20.5
4.844149112701416,1.1976077112999999,-8.518448456,0.7441678286,57.58375,4.567500000000001,-53.27,20.5
4.849752187728882,1.4057832774999999,-8.27378234515,1.36091785375,51.03875000000001,-1.2075,-51.441250000000004,20.5
4.85547399520874,1.543370577,-8.70568682445,1.8460626358999999,43.95125,-2.6862500000000002,-48.9125,20.5
4.860898971557617,1.52841543575,-9.18425134445,2.590828670149999,39.34,-3.21125,-46.51500000000001,20.5
4.866506814956665,1.5732808595,-9.0400837828,3.27158669985,38.70125,-2.8437500000000004,-44.68625,20.5
4.871964931488037,1.7377874132499997,-9.0245304359,3.7304104334,43.5225,-1.32125,-42.36750000000001,20.5
4.877761602401733,1.8107685025499998,-8.7266240222,4.08155714995,50.9425,-0.9012500000000001,-41.300000000000004,20.5
4.883336544036865,2.0135602179,-8.44247633845,4.35433892635,61.6525,-2.6775,-39.9525,20.5
4.88892674446106,2.0153548348499997,-8.719445554399998,4.2161534212,72.05625,-6.65875,-41.081250000000004,20.5
4.8944995403289795,2.1900308846499996,-8.6464644651,4.0199419679999995,80.36000000000001,-9.992500000000001,-43.478750000000005,20.5
4.906173467636108,2.26540479655,-8.5926259566,3.6562329327999996,91.3675,-16.135,-49.962500000000006,20.5
4.912362337112427,2.7714867764499997,-8.757730716,3.9224344470499997,93.59,-21.236250000000002,-51.92250000000001,20.5
4.917937278747559,2.4999014113499998,-9.0041914438,3.75613327635,93.65125,-26.731250000000003,-54.38125000000001,20.5
4.923485040664673,2.6488546182,-9.129814630299999,3.8428730955999995,91.30625,-30.5375,-56.55125,20.5
4.929184198379517,2.7744778047,-9.276973220199999,3.7423745464,85.31250000000001,-32.96125,-59.43000000000001,20.5
4.9347450733184814,2.8941189347,-9.517451891499999,3.7872399701499995,80.36000000000001,-34.20375000000001,-61.635000000000005,20.5
4.940335988998413,2.8965117572999994,-9.744770038499999,3.4683963586999997,71.715,-37.345000000000006,-63.85750000000001,21.5
4.9459428787231445,2.6602205255499998,-10.1479606466,3.357728313449999,62.69375000000001,-41.938750000000006,-65.0125,21.5
4.951624870300293,2.6249263922,-10.810174301149999,3.5760733757,55.91250000000001,-45.78,-66.01875000000001,21.5
4.957168817520142,2.90668125335,-10.990832407449998,4.2652062845,50.925000000000004,-46.12125,-65.80000000000001,20.5
4.962785720825195,2.7595226634499994,-11.231909284399999,4.899304273499999,47.87125,-38.85,-64.58375000000001,20.5
4.968297719955444,2.5375883672999997,-11.73260741345,5.3635118579,48.92125000000001,-33.407500000000006,-64.16375000000001,20.5
4.974034547805786,2.3479571762499996,-12.1017002995,5.237290465749999,54.22375,-31.027500000000003,-63.20125000000001,20.5
4.979626417160034,2.2091734654499997,-12.6245320376,4.5332024157,62.18625000000001,-30.581250000000004,-60.59375000000001,20.5
4.985492467880249,2.2695922361,-13.24008565145,3.3906296242,68.42500000000001,-33.3025,-55.34375000000001,20.5
4.990901470184326,1.9154544912999998,-13.180265086449998,2.0614166699,71.435,-41.30875,-51.31,20.5
4.996464252471924,2.02014048005,-13.237094623199999,0.8548358738499999,68.9325,-51.59,-48.1075,20.5
5.001950025558472,1.9716858223999998,-12.947563088599997,0.029910282499999996,65.23125,-65.0125,-46.095000000000006,20.5
5.00767707824707,1.8203397929499998,-12.6747813122,-0.48873401604999994,59.47375,-76.22125000000001,-45.56125,20.5
5.013282060623169,2.548356069,-12.295518930099998,-1.2185449090499998,52.753750000000004,-83.19500000000001,-46.112500000000004,20.5
5.018838882446289,2.9629125844499997,-11.72064330045,-1.6683955578499998,49.70875,-83.71125,-49.157500000000006,20.5
5.024451971054077,2.86361044655,-11.3359970675,-1.62293192845,51.0825,-90.9475,-53.690000000000005,20.5
5.029966831207275,2.7696921595,-11.764910518549998,-1.3028919057,48.072500000000005,-103.68750000000001,-58.23125,20.5
5.035780668258667,2.2707886474,-12.8279219586,-0.7740781111,45.71,-115.29,-55.685,20.5
5.041171550750732,2.1403798157,-13.0839539768,-0.19561324754999998,41.9825,-117.39000000000001,-50.89000000000001,20.5
5.046876668930054,2.4628126610499996,-13.7982115229,0.53539405675,33.60875,-112.5425,-41.42250000000001,20.5
5.052412509918213,2.6895326023999995,-13.500305109199997,1.0845468434499999,20.65875,-98.03500000000001,-33.5125,20.5
5.058014392852783,2.97009105225,-12.94337564905,1.4883356572,14.42875,-90.2125,-26.328750000000003,21.5
5.063519477844238,2.9455646205999995,-12.903295870499997,0.51385865335,7.665000000000001,-83.09875000000001,-19.521250000000002,21.5
5.069247484207153,3.0251259720499997,-13.21496101415,-0.64426748505,1.6975000000000002,-77.9625,-16.54625,21.5
5.074747323989868,3.0281170003,-13.150953009599998,-1.7264215058999997,-1.225,-76.93,-13.763750000000002,20.5
5.080388307571411,3.7118660582499996,-12.616157158499998,-2.7068805662499993,-2.7037500000000003,-79.72125000000001,-12.7925,20.5
5.0859620571136475,4.12941360195,-12.245269655500001,-3.4007991202499994,-2.0650000000000004,-75.74875,-13.92125,20.5
5.091490983963013,4.49910469365,-11.088339928399998,-4.2257247116,-0.07875000000000001,-72.52875,-20.25625,20.5
5.0971150398254395,4.53021138745,-10.463813229799998,-5.221737118849999,0.026250000000000002,-73.13250000000001,-34.265,20.5
5.102647066116333,4.5439701174,-10.211370445499998,-5.4251270398499996,-3.4475000000000002,-76.51875000000001,-47.39875000000001,20.5
5.108287811279297,4.0109688832499995,-9.668199715299998,-6.480960012100001,-6.973750000000001,-91.55125000000001,-62.93000000000001,20.5
5.1139185428619385,3.1585258319999996,-10.036096190049998,-5.8695938378,-15.671250000000002,-113.79375000000002,-77.84875000000001,20.5
5.1195995807647705,2.6931218363,-12.1172536464,-4.5236311253,-27.938750000000002,-129.29000000000002,-83.72875,20.5
5.125124454498291,2.7224339131499997,-14.194223663199997,-2.7577280464999996,-40.862500000000004,-126.15750000000001,-79.09125,20.5
5.130755424499512,2.9808587539499998,-14.462818000050001,-2.0195422744,-45.36000000000001,-111.16000000000001,-68.32875,20.5
5.136269569396973,3.3326036761499997,-14.383256648599998,-2.12183544055,-44.84375000000001,-102.45375000000001,-55.71125000000001,20.5
5.1419031620025635,3.9804603951,-13.921441886799998,-2.3700907852999995,-36.0675,-100.415,-45.13250000000001,20.5
5.147628307342529,4.5056849558,-13.213166397199998,-3.2602207924999993,-19.13625,-101.69250000000001,-38.745000000000005,20.5
5.153248071670532,5.15354167475,-12.675977723499999,-4.88913477745,-1.4787500000000002,-105.0875,-33.066250000000004,20.5
5.158874034881592,5.2803612725499995,-11.915658342349998,-5.64407030775,21.35875,-111.97375000000001,-30.712500000000002,20.5
5.167776823043823,5.32103925675,-10.1132647189,-6.90628422925,28.236250000000002,-119.2275,-33.425000000000004,20.5
5.173190116882324,5.215156856699999,-9.206384953499999,-7.399205684849999,26.01375,-126.03500000000001,-40.32000000000001,20.5
5.17889404296875,5.520241738199999,-8.50468972605,-7.96869746365,15.085,-134.2775,-49.166250000000005,20.5
5.1844048500061035,5.582455125799999,-7.8406814545499985,-8.055437282899998,3.4825000000000004,-138.04000000000002,-58.441250000000004,20.5
5.189988851547241,5.80199659935,-7.33818870855,-8.220542042299998,-7.5075,-139.43125,-69.65875000000001,20.5
5.19557785987854,5.98863676215,-7.214958344649999,-8.358727547449998,-17.28125,-141.715,-79.555,20.5
5.201048374176025,5.916852084149999,-7.692924659,-8.22831871575,-19.871250000000003,-147.07875,-88.40125,20.5
5.206571340560913,5.9533426288,-8.85045259175,-7.761120103099999,-19.38125,-151.4975,-97.64125000000001,20.5
5.212121486663818,6.26381136115,-9.24287549815,-7.56431044425,-14.743750000000002,-151.78625000000002,-99.81125000000002,20.5
5.217831373214722,6.524030818899999,-9.25723243375,-7.5511499199499985,-9.721250000000001,-147.44625000000002,-99.92500000000001,20.5
5.223451375961304,6.9296142496,-9.38165920895,-7.953742322399998,-5.040000000000001,-142.3625,-98.25375000000001,20.5
5.229032278060913,7.3603223176,-9.658628424899998,-8.164908916849999,0.0175,-138.76625,-95.83000000000001,20.5
5.234553337097168,7.7347990545,-9.6538427797,-8.707481441399999,3.2987500000000005,-138.12750000000003,-95.44500000000001,20.5
5.240170240402222,8.7469630143,-9.388239471099999,-8.007580830899999,10.850000000000001,-137.19125000000003,-103.53000000000002,20.5
5.24581503868103,8.7876409985,-8.89711263245,-8.715258114849998,10.33375,-137.97000000000003,-104.965,20.5
5.2514989376068115,8.58245646055,-9.129216424649998,-9.054440718399999,12.801250000000001,-134.3125,-108.65750000000001,20.5
5.257037878036499,9.00359323815,-9.6059863277,-9.560522698299998,10.465000000000002,-130.54125000000002,-111.87750000000001,20.5
5.2626566886901855,9.205786747849999,-9.91884788265,-9.978070242,3.33375,-128.29250000000002,-114.76500000000001,20.5
5.268145799636841,9.393623321949999,-9.8739824589,-10.0749795573,-5.99375,-125.02000000000001,-115.36000000000001,20.5
5.273754596710205,9.57069219435,-9.852447055499999,-10.815558151999998,-17.648750000000003,-125.44875000000002,-110.55625,20.5
5.279358625411987,9.6634140701,-9.785448022699999,-11.396415838149998,-23.520000000000003,-125.93875000000001,-109.07750000000001,20.5
5.284971475601196,7.6366933279,-9.62931634805,-12.035897678,-28.875000000000004,-136.10625000000002,-121.38000000000001,20.5
5.290518522262573,9.22253650605,-9.242277292499999,-12.165708304049998,-27.956250000000004,-140.81375000000003,-127.49625000000002,20.5
5.296646356582642,8.725427610899999,-8.76072174425,-12.368500019399997,-20.3,-147.735,-129.94625000000002,20.5
5.302318334579468,8.54536771025,-8.9240318867,-12.22313604645,-16.135,-152.50375000000003,-130.41000000000003,20.5
5.307894229888916,8.0566336942,-9.06461021445,-12.10110209385,-13.396250000000002,-154.22750000000002,-132.25625000000002,20.5
5.3134801387786865,7.496115000149999,-9.0963151139,-12.035897678,-13.790000000000001,-152.81875000000002,-134.645,20.5
5.319097995758057,6.761518461949999,-8.916853418899999,-12.086745158249999,-15.671250000000002,-150.00125000000003,-135.45000000000002,20.5
5.324670076370239,6.27816829675,-8.412566055949998,-12.01974612545,-19.06625,-149.16125000000002,-134.82875,20.5
5.330193758010864,5.410171898599999,-7.9034930478,-12.131610581999999,-23.528750000000002,-152.45125000000002,-131.705,20.5
5.335929870605469,4.94297328595,-7.512864758349999,-12.3134650996,-24.78,-158.2175,-130.88250000000002,20.5
5.341425895690918,5.244468933549999,-6.374479406399999,-10.4195460117,-10.963750000000001,-172.7775,-134.75875000000002,20.5
5.347120761871338,3.9960137419999997,-6.32123910355,-13.227523332799997,-16.31875,-179.41000000000003,-135.69500000000002,20.5
5.3526716232299805,3.6777683362,-5.575276658,-13.59541980755,-17.902500000000003,-182.6475,-139.09,20.5
5.358238697052002,3.5312079519499995,-5.146363206949999,-13.4787697058,-17.0275,-187.13625000000002,-140.74375,20.5
5.3637964725494385,2.931207685,-4.833501652,-13.70668605845,-19.810000000000002,-188.71125,-139.78125,20.5
5.369621515274048,2.0482561456,-4.073182270849999,-13.7898366438,-26.78375,-187.0225,-143.50875000000002,20.5
5.37517523765564,1.1353943237,-3.6909288604999997,-13.754542510449998,-35.245000000000005,-188.99125,-143.185,20.5
5.380760192871094,0.04247260115,-3.28953286935,-14.085948440549998,-41.1075,-187.36375,-144.63750000000002,20.5
5.386372327804565,-1.4027922492499998,-2.4011974791,-13.9824588631,-47.73125,-180.88000000000002,-146.91250000000002,20.5
5.391942977905273,-2.5872394362499995,-1.8849460031499998,-14.090135880099998,-53.92625,-178.53500000000003,-149.62500000000003,20.5
5.3976640701293945,-4.0127635002,-1.5020943871499999,-14.1200461626,-59.63125000000001,-182.00875000000002,-149.17000000000002,20.5
5.403172016143799,-5.3850472612999996,-1.24008031245,-14.051850718499997,-66.92875000000001,-194.8625,-144.03375000000003,20.5
5.408869028091431,-6.4893348911999995,-1.24008031245,-13.920843681149998,-70.67375000000001,-209.13375000000002,-137.75125000000003,20.5
5.414495944976807,-7.284948405699999,-1.28674035315,-13.067204218599999,-73.14125000000001,-225.11125,-127.47000000000001,20.5
5.420055627822876,-7.884350467,-1.09411813385,-11.72542894565,-73.39500000000001,-242.04250000000002,-117.38125000000001,20.5
5.425757646560669,-8.395816297749999,-2.3904297774,-11.0464655329,-71.84625000000001,-251.28250000000003,-104.3525,20.5
5.431422710418701,-9.0400837828,-1.8448662245999998,-8.979665012149999,-63.691250000000004,-255.27250000000004,-93.86125000000001,20.5
5.436962366104126,-9.49890751635,-1.80478644605,-7.0701925773499985,-49.77,-259.55125000000004,-83.73750000000001,20.5
5.442501544952393,-10.07438135165,-1.20658079605,-5.4807601652999995,-41.78125000000001,-262.36,-73.7275,20.5
5.448025465011597,-10.82094200285,-1.11804635985,-4.3178483817,-36.2775,-259.77000000000004,-63.94500000000001,20.5
5.453789234161377,-11.501101826900001,-1.3028919057,-3.53479718585,-28.49875,-253.16375000000002,-59.06250000000001,20.5
5.459376335144043,-12.06162052095,-1.8759729183999998,-3.45463762875,-25.488750000000003,-246.15500000000003,-54.52125,20.5
5.464993238449097,-12.533604778799997,-2.6727828442,-3.5204402502499996,-25.261250000000004,-231.56000000000003,-50.557500000000005,20.5
5.470579147338867,-13.03430290785,-3.0604201053999995,-3.3918260355,-15.006250000000001,-220.97250000000003,-45.71,20.5
5.476169109344482,-12.790833208299997,-4.4542392698999995,-4.310669913899999,-15.9075,-213.13250000000002,-37.143750000000004,20.5
5.481872081756592,-12.7286198207,-3.5886356943499993,-4.6576291909,-19.145000000000003,-198.78250000000003,-28.980000000000004,20.5
5.487581968307495,-12.49352500025,-4.070191242599999,-5.513661476049999,-16.65125,-185.34250000000003,-19.083750000000002,20.5
5.49306583404541,-12.75912830885,-4.14975259405,-5.91565567285,-14.481250000000001,-170.96625,-11.340000000000002,20.5
