window size: 30,acc threshold: 12
time,aX,aY,aZ,gX,gY,gZ,faX,faY,faZ,fgX,fgY,fgZ,temp
0.18939208984375,2.8229324623499994,-9.21655444955,1.66959196915,0.4025,5.06625,0.5075000000000001,3.015215698448334,-9.23533810696,1.2530214946783331,-0.6839583333333331,-2.0848333333333358,-7.105875000000001,0.1532906666666666,0.4816560000000001,-0.023216666666666667,15.5,False
0.20570731163024902,2.9682964353,-9.139984126349999,1.3842478741,-4.812500000000001,-2.9487500000000004,3.3512500000000003,3.1533812634099996,-9.293064952185,1.8012570327150002,6.431833333333334,6.289791666666668,-0.41358333333333314,0.15369199999999994,0.48188933333333334,-0.023216666666666667,16.5,False
0.2219083309173584,3.0167510929499994,-9.128618219,1.49611233065,-4.6375,-12.433750000000002,8.006250000000001,3.1327232282966664,-9.294061961601669,1.8090337061650001,6.538291666666668,5.086083333333334,-0.43487499999999973,0.15413999999999994,0.48213199999999995,-0.023702,15.5,False
0.23803329467773438,2.95573411665,-9.111868460799998,1.7276179172000001,-0.08750000000000001,-18.2525,13.728750000000002,3.1134211259899995,-9.297252391735002,1.8248063951366666,6.914250000000001,4.059124999999999,-0.08808333333333304,0.15411199999999994,0.4824213333333332,-0.023249333333333337,15.5,False
0.2571702003479004,3.2530423247,-8.887541342049998,1.7006986629499998,3.7450000000000006,-20.868750000000002,17.395000000000003,3.098206762291666,-9.294999150453332,1.840419562601667,6.721750000000001,3.03975,0.3747916666666669,0.15408399999999997,0.48271066666666657,-0.023249333333333337,15.5,False
0.2731132507324219,3.59222492825,-8.77747150245,1.66002067875,-1.0762500000000002,-20.457500000000003,12.468750000000002,3.099163891331666,-9.281080898996665,1.8494923482933332,6.028750000000001,2.1137083333333337,0.7516250000000001,0.15392533333333333,0.4827759999999999,-0.023282000000000004,16.5,False
0.28934812545776367,3.7806597079999995,-9.00957529465,1.5080764436499998,-7.280000000000001,-19.372500000000002,6.798750000000001,3.112404176384999,-9.270133735601666,1.8514664269383334,4.966208333333335,1.3763749999999992,0.8545833333333331,0.15382266666666666,0.4828506666666666,-0.023557333333333336,15.5,False
0.30558323860168457,3.765106361099999,-9.4576313265,1.5290136414,-7.638750000000001,-23.38875,1.4000000000000001,3.127459018576666,-9.271330146901667,1.8388841681000003,4.009833333333335,0.6740416666666662,0.8017916666666669,0.15371999999999997,0.48292533333333326,-0.023557333333333336,15.5,False
0.3217604160308838,3.5982069847499996,-9.790233667899999,1.53798672615,3.6925000000000003,-25.305000000000003,0.34125000000000005,3.146242675986666,-9.274839620048331,1.8268402943466668,3.4483749999999995,-0.11754166666666635,0.690666666666667,0.15347733333333333,0.4832893333333333,-0.02331,16.5,False
0.33797240257263184,3.569493113549999,-10.06361364995,1.5409777543999998,14.726250000000002,-25.80375,1.21625,3.1610183555416658,-9.289475718284997,1.8018951187416667,3.4124999999999996,-1.0015833333333348,0.5439583333333337,0.153468,0.4832426666666666,-0.02307666666666667,15.5,False
0.35438036918640137,3.7256247882,-9.975079213749998,1.4386845882499997,16.126250000000002,-26.285000000000004,4.61125,3.177648472611666,-9.306424878368334,1.7711473483316664,3.677333333333334,-2.044875,0.4305000000000002,0.15345866666666666,0.483196,-0.02307666666666667,15.5,False
0.37035036087036133,3.8327035995499994,-9.6526463684,1.4279168865499998,12.888750000000002,-25.830000000000002,5.78375,3.203570717444999,-9.318428871745,1.735593992533333,3.97075,-3.320625000000001,0.4141666666666668,0.15319733333333332,0.4834386666666666,-0.023347333333333335,15.5,False
0.3865203857421875,3.9182470074999998,-9.229116768199999,1.3106685791500001,7.32375,-25.593750000000004,6.41375,3.2308488950849985,-9.324231466549998,1.7031712463033333,4.203791666666666,-4.750666666666667,0.4482916666666668,0.15270266666666663,0.48387733333333327,-0.023347333333333335,15.5,False
0.40262341499328613,3.8931223702,-9.041878399749999,1.5421741657,0.6562500000000001,-22.37375,6.562500000000001,3.253939633174999,-9.322496670164998,1.6778272669316665,4.3099583333333324,-6.2746249999999995,0.5821666666666665,0.15216133333333332,0.48430666666666666,-0.023030000000000002,15.5,False
0.41898536682128906,3.6610185779999997,-9.08853844045,1.7359927962999997,-3.5875000000000004,-18.611250000000002,11.777500000000002,3.2702706474199994,-9.318050008166665,1.6678771129533332,4.291875,-7.685999999999999,0.8706250000000002,0.15163866666666664,0.48485733333333336,-0.023258666666666667,15.5,False
0.4352712631225586,3.7028929734999996,-8.77148944595,1.83110749465,-2.23125,-14.901250000000001,15.828750000000001,3.282434162303333,-9.305128766126666,1.6675979503166665,4.269708333333332,-8.988,1.416625,0.151116,0.4854080000000002,-0.023258666666666667,15.5,False
0.45155930519104004,3.888336725,-8.44127992715,1.7371892076,0.27125000000000005,-11.541250000000002,15.566250000000002,3.2999217074716665,-9.281938327094998,1.6746966573633333,4.305583333333333,-10.075625,2.056541666666667,0.15036933333333335,0.4856133333333335,-0.02339866666666667,16.5,False
0.4678173065185547,4.106681787249999,-8.08235653715,1.5314064639999998,0.10500000000000001,-10.955000000000002,12.495000000000001,3.3243883185566663,-9.250711992165,1.6804194914150001,4.346125,-10.988541666666666,2.6915,0.14976266666666666,0.4861826666666669,-0.022848,15.5,False
0.4841771125793457,4.097708702499999,-8.204988695399999,1.4763715442,1.6712500000000001,-10.38625,5.258750000000001,3.3504302045199994,-9.206225431993333,1.6791233791733335,4.320166666666665,-11.756499999999999,3.2439166666666677,0.14915599999999998,0.4867520000000002,-0.022848,15.5,False
0.5002083778381348,3.89132775325,-8.5591264402,1.5020943871499999,7.665000000000001,-9.38,3.4825000000000004,3.3717063854716667,-9.174201489529999,1.68263285232,4.403,-12.309791666666666,3.6318333333333337,0.14846533333333328,0.4872746666666669,-0.023072000000000002,15.5,False
0.5163862705230713,3.7974094662,-8.641080614249999,1.3579268255,11.436250000000001,-6.938750000000001,3.4825000000000004,3.3881570408466666,-9.149854519575,1.6880765237350002,4.564875,-12.661541666666666,4.066416666666667,0.14771866666666664,0.48776933333333355,-0.022890000000000004,15.5,False
0.5333805084228516,3.9068811001499997,-8.738588135199999,1.1054840412,7.043750000000001,-5.223750000000001,-0.24500000000000002,3.4101710087666666,-9.124271257943333,1.6806787138633335,4.607166666666666,-12.791333333333334,4.378791666666667,0.14724266666666666,0.4878626666666669,-0.022890000000000004,16.5,False
0.5497384071350098,3.96430884255,-9.00598606075,0.8829515394,2.2750000000000004,-5.897500000000001,-2.44125,3.437030442451667,-9.105687002416666,1.663430450955,4.316374999999999,-12.793083333333334,4.515583333333335,0.14680400000000002,0.48822666666666686,-0.02324466666666667,15.5,False
0.5657312870025635,3.9236308583499997,-9.2350988247,0.9696913586499999,-0.7087500000000001,-7.74375,-3.33375,3.4682567773816664,-9.094101752994996,1.639262942695,3.817916666666667,-12.777333333333335,4.563416666666667,0.14636533333333338,0.4885906666666669,-0.02324466666666667,15.5,False
0.582024335861206,3.7005001509,-9.6382894328,1.1407781745499999,-1.04125,-6.125000000000001,-0.043750000000000004,3.497608734608333,-9.095019001658333,1.6171293336449999,3.2258333333333336,-12.722500000000002,4.576541666666667,0.14560000000000006,0.48881466666666695,-0.023216666666666667,15.5,False
0.5981874465942383,3.67956295315,-9.82792062385,0.98045906035,1.0675000000000001,-4.59375,5.8012500000000005,3.524169065468333,-9.10768102125,1.586979768885,2.7192083333333334,-12.606416666666668,4.752125,0.14518000000000003,0.4887866666666669,-0.022759333333333336,15.5,False
0.6145975589752197,3.8321053938999996,-9.732207719849999,0.9080761767,0.44625000000000004,-5.1625000000000005,10.78875,3.5539796470266656,-9.121798674589998,1.5494523344416666,2.3496666666666663,-12.544000000000002,5.098916666666668,0.14476000000000006,0.48875866666666684,-0.022759333333333336,15.5,False
0.6307291984558105,3.888336725,-9.415158725349999,0.82971123655,-3.43875,-9.2225,13.23,3.583172082746666,-9.134779737195,1.4966307755466661,2.0332083333333335,-12.685750000000004,5.597666666666668,0.14418133333333338,0.4888706666666669,-0.022918,15.5,False
0.647613525390625,4.266402695799999,-8.931808560149998,0.9810572659999999,-10.141250000000001,-11.76875,10.38625,3.6248470763633325,-9.131888409886669,1.4475579720583331,1.6753333333333333,-13.098750000000003,6.081541666666667,0.1439666666666667,0.4889453333333335,-0.022848,16.5,False
0.663752555847168,4.241876264149999,-8.778667913749999,1.2921242039999998,-13.422500000000001,-8.19875,6.335000000000001,3.675215992093333,-9.1142612834,1.4100504778033334,1.1783333333333335,-13.581166666666668,6.400333333333334,0.14369600000000002,0.4891320000000002,-0.022848,15.5,False
0.6802074909210205,4.2412780585,-8.813962047099999,1.34536450685,-11.287500000000001,-3.115,8.391250000000001,3.7238102310616665,-9.09966506554,1.3896317249499999,0.7035000000000001,-13.930000000000001,6.654083333333334,0.1431266666666667,0.4894773333333335,-0.02339866666666667,15.5,False
0.6972765922546387,4.28733989355,-8.66620525155,1.07497555305,-9.266250000000001,-1.6712500000000001,10.850000000000001,3.767738465959999,-9.083453692425,1.3820544533833332,0.4561666666666667,-14.043750000000001,6.915416666666668,0.14293066666666668,0.4896920000000001,-0.02331,15.5,False
0.7136743068695068,4.2305103568,-8.6464644651,0.9092725879999999,-10.675,-6.536250000000001,12.801250000000001,3.8079977062049997,-9.067621182888333,1.3683555439983333,0.29312499999999986,-13.888,7.139125000000002,0.14268800000000004,0.48989733333333346,-0.02331,16.5,False
0.7300784587860107,4.19401981215,-8.483752528299998,0.9822536772999998,-12.818750000000001,-11.523750000000001,11.340000000000002,3.8498122811399993,-9.048618183406665,1.3462418751366665,0.00962500000000007,-13.604791666666667,7.192500000000001,0.14241733333333337,0.4897666666666668,-0.02330066666666667,15.5,False
0.7466473579406738,4.2759739861999995,-8.306085450249999,1.38723890235,-15.225000000000001,-12.62625,7.3325000000000005,3.8927036262449994,-9.02644469398,1.327139174713333,-0.55825,-13.360375000000001,6.959458333333333,0.14214666666666667,0.4896360000000001,-0.02330066666666667,15.5,False
0.7728075981140137,4.232903179399999,-8.38863782995,1.9573288867999998,-11.75125,-2.8000000000000003,3.7012500000000004,3.923989781739999,-9.010013978793332,1.3339985994999997,-1.0940416666666666,-12.871250000000002,6.544708333333333,0.142072,0.48983200000000016,-0.023296,15.5,False
0.8049595355987549,4.1742790257,-8.3533436966,1.6025929363499998,-8.28625,-2.54625,1.7412500000000002,3.940560078245,-8.991868407410001,1.3430713851916667,-1.2267499999999996,-12.243583333333335,6.345208333333333,0.14195066666666667,0.4899160000000002,-0.023450000000000002,15.5,False
0.8269875049591064,4.18085928785,-8.568697730599999,1.7186448324499999,-5.32875,-8.855,1.0850000000000002,3.955894083073333,-8.964291126945,1.353639685008333,-1.1797916666666666,-11.762916666666667,6.270541666666666,0.14172666666666664,0.4901960000000002,-0.02349666666666667,16.5,False
0.8585186004638672,4.12582436805,-8.830113599649998,2.2121644937,-6.4662500000000005,-5.705000000000001,-0.45500000000000007,3.9727834225916667,-8.933503476158334,1.36043928923,-1.2092499999999997,-11.267666666666665,6.2813333333333325,0.14164266666666664,0.49019600000000024,-0.02363666666666667,15.5,False
0.8911824226379395,4.0935212629499995,-8.532805391599998,2.1260228801,0.3325,0.08750000000000001,1.6450000000000002,3.9906498313383327,-8.900023899946667,1.3799407934199999,-1.6324583333333338,-10.433208333333335,6.318666666666667,0.14154,0.4903826666666669,-0.023762666666666665,16.5,False
0.9155426025390625,4.2460637037,-8.324031619749999,1.8245272325,1.9600000000000002,-2.9662500000000005,-0.7350000000000001,4.009852232703333,-8.847242221428333,1.3913067007699997,-2.093583333333334,-9.614791666666667,6.227374999999999,0.14116666666666663,0.49055066666666686,-0.023865333333333336,15.5,False
0.9319603443145752,4.347160458549999,-8.417949906799999,1.85982136585,1.5137500000000002,-3.8412500000000005,-2.33625,4.025684742239999,-8.79912654698,1.4045071054466662,-2.533708333333334,-8.859666666666667,5.990833333333333,0.141176,0.4903546666666668,-0.023459333333333336,15.5,False
0.9481444358825684,4.3316071116499995,-8.559724645849998,1.9028921726499999,1.8725000000000003,-1.54875,-3.21125,4.040659823678333,-8.766743681126666,1.4247663367933332,-2.8084583333333337,-8.093750000000002,5.700916666666667,0.14118533333333333,0.49015866666666685,-0.023459333333333336,15.5,False
0.9645974636077881,4.28135783705,-8.693722711449999,1.76769769575,0.42000000000000004,0.21000000000000002,-4.751250000000001,4.053939989108333,-8.746464509591666,1.4330614551399998,-2.8994583333333335,-7.2695,5.364041666666667,0.14099866666666663,0.4900746666666668,-0.023557333333333336,15.5,False
0.9808335304260254,4.08993202905,-8.9001036607,1.6139588436999999,-1.3037500000000002,-0.052500000000000005,-5.678750000000001,4.066482367569999,-8.737471484653334,1.4331212757050003,-2.8093333333333335,-6.594291666666667,4.905833333333333,0.14097066666666663,0.4899066666666668,-0.023627333333333337,15.5,False
0.9974794387817383,3.9756747498999996,-9.094520496949999,1.6498511827,-2.2925000000000004,-2.1875,-6.282500000000001,4.078187258121666,-8.739884247441667,1.4265011331783335,-2.7515833333333335,-6.071041666666665,4.216333333333334,0.14094266666666666,0.48973866666666677,-0.023627333333333337,15.5,False
1.0138084888458252,3.8560336199,-9.1812603162,1.8317057002999997,-1.11125,-3.3775000000000004,-5.5912500000000005,4.082653860308333,-8.759465512384999,1.4236696264350002,-2.7909583333333337,-5.751958333333333,3.4775416666666676,0.141064,0.48959866666666674,-0.023678666666666667,15.5,False
1.030242681503296,3.9511483182499996,-9.046664044949999,1.8669998336499998,-0.5687500000000001,-2.2225,-5.486250000000001,4.077449471153333,-8.788179383585,1.4326227709966668,-2.8390833333333334,-5.4874166666666655,2.827416666666667,0.14104533333333333,0.4890946666666667,-0.023678666666666667,15.5,False
1.0476884841918945,3.8428730955999995,-9.21236701,1.86460701105,-2.5725000000000002,-1.995,-6.8950000000000005,4.0657246404133325,-8.824111602961665,1.4479767160133334,-2.8953749999999996,-5.183208333333332,2.2977500000000006,0.14086799999999997,0.48888000000000004,-0.023594666666666667,16.5,False
1.0642833709716797,3.82432872045,-9.20100110265,1.8658034223499997,-1.5925000000000002,-2.45875,-6.65,4.058964916568333,-8.854380808851664,1.46045927391,-3.1021666666666667,-4.924208333333332,1.965833333333334,0.140672,0.48877733333333334,-0.02351066666666667,15.5,False
1.0806126594543457,3.8213376921999997,-9.15912670715,1.8574285432499997,-2.1612500000000003,-2.19625,-7.227500000000001,4.061058636343334,-8.872486499858331,1.4719647625783334,-3.4953333333333343,-4.710999999999999,1.6050416666666674,0.14053199999999996,0.4887026666666666,-0.02351066666666667,15.5,False
1.0969195365905762,3.7339996672999995,-9.1920280179,1.9884355805999996,-2.345,-1.6362500000000002,-4.82125,4.058725634308334,-8.892905252711666,1.4954144240583331,-3.8925833333333344,-4.585875,1.3577083333333337,0.14023333333333332,0.4883946666666666,-0.023170000000000003,15.5,False
1.1133205890655518,3.7298122277499997,-9.220143683449999,1.9513468303,-2.7212500000000004,1.16375,-4.130000000000001,4.051347764625,-8.90413157874333,1.5273386655799999,-4.1092916666666675,-4.4184583333333345,1.2649583333333339,0.13996266666666662,0.4881893333333333,-0.023445333333333335,15.5,False
1.1299357414245605,3.6753755135999997,-9.2135634213,1.84905366415,-5.031250000000001,1.9162500000000002,-3.5612500000000002,4.041517251776666,-8.909096685638334,1.5597614118099998,-4.263291666666668,-4.120375000000001,1.2398750000000005,0.13969200000000004,0.48798400000000003,-0.023445333333333335,16.5,False
1.1462626457214355,3.64606343675,-9.3116691479,1.8616159827999998,-5.57375,2.415,-3.2987500000000005,4.035754537348334,-8.905008947030002,1.5845670060966666,-4.403000000000001,-3.8085833333333334,1.1967083333333337,0.13979466666666668,0.4876480000000001,-0.023520000000000003,15.5,False
1.1627576351165771,3.6981073283,-9.24526832075,1.7108681589999999,-4.751250000000001,1.4262500000000002,-3.2725000000000004,4.034757527931666,-8.889256198246667,1.6097315237733334,-4.568666666666668,-3.5831250000000003,0.9893333333333337,0.1395146666666667,0.4874613333333334,-0.023673999999999997,16.5,False
1.179734706878662,3.6855450096499993,-9.285348099299998,1.84067878505,-6.0287500000000005,1.435,-2.87875,4.0364723841283325,-8.873962073795001,1.6338990320333333,-4.777791666666667,-3.4165833333333335,0.6095833333333337,0.1392346666666667,0.4872746666666667,-0.023673999999999997,16.5,False
1.196138620376587,3.6311082955,-9.18664416705,1.8951154991999999,-5.416250000000001,4.121250000000001,-1.5662500000000001,4.034338783976667,-8.8618184991,1.6720844926916665,-4.928875000000001,-3.083791666666667,0.11550000000000003,0.1390666666666667,0.48731200000000013,-0.023823333333333332,15.5,False
1.2123467922210693,3.63170650115,-9.04786045625,1.7210376550499997,-5.95,5.871250000000001,-1.5575,4.019642865175,-8.86193814023,1.705504248338333,-4.915750000000001,-2.530208333333334,-0.35058333333333397,0.13867466666666667,0.4870973333333335,-0.023417333333333335,16.5,False
1.228759527206421,3.56231464575,-9.0616191862,1.7371892076,-6.483750000000001,6.046250000000001,-1.21625,3.99613338313,-8.872307038163335,1.7252649749766666,-4.699624999999999,-1.988,-0.662666666666667,0.13828266666666666,0.48688266666666685,-0.023417333333333335,15.5,False
1.24483060836792,3.688536037899999,-9.035298137599998,1.7120645702999997,-6.39625,5.55625,-0.07875000000000001,3.975355706886667,-8.880003950860003,1.7342978802916666,-4.500708333333334,-1.6237083333333333,-0.911166666666667,0.13841333333333333,0.48658400000000024,-0.023599333333333337,15.5,False
1.261312484741211,3.785445353199999,-9.031708903699998,1.6522440052999998,-7.630000000000001,3.6400000000000006,-0.31500000000000006,3.9582071449200003,-8.889734762766668,1.7474384644033332,-4.405333333333334,-1.4023333333333334,-1.2512500000000002,0.13817066666666664,0.4864160000000002,-0.023599333333333337,16.5,False
1.2778334617614746,3.68793783225,-9.2614198733,1.7108681589999999,-7.857500000000001,2.2750000000000004,0.45500000000000007,3.9437505083783333,-8.908478539800003,1.77032980061,-4.291291666666668,-1.202541666666667,-1.6569583333333333,0.1378906666666667,0.4862106666666668,-0.02352466666666667,16.5,False
1.2944426536560059,3.5467612988499995,-9.61495941245,1.8891334427,-8.12875,3.8675,6.2387500000000005,3.9224543872383335,-8.936973068928335,1.7979270212633334,-4.191833333333334,-0.8017916666666672,-1.9903333333333335,0.13752666666666666,0.4862853333333335,-0.023389333333333335,16.5,False
1.3106286525726318,3.4492537778999997,-9.769894675799998,1.9166509025999996,-7.918750000000001,8.461250000000001,15.242500000000001,3.8922848822900007,-8.981579270230004,1.822573094043333,-3.9911666666666674,-0.14962500000000076,-1.935208333333333,0.13716266666666668,0.4863600000000002,-0.023389333333333335,16.5,False
1.3270337581634521,3.5641092626999997,-9.91286582615,1.6259229567,-11.541250000000002,7.236250000000001,23.712500000000002,3.869852170415,-9.029296140911669,1.8174684058299995,-3.8400833333333337,0.3718749999999995,-1.396208333333333,0.13679866666666665,0.48652800000000007,-0.02341266666666667,15.5,False
1.3434576988220215,3.5970105734499995,-10.218548913299998,1.6097714041500002,-16.047500000000003,-0.043750000000000004,33.45125,3.8480974249433335,-9.088678021768336,1.8081962182549998,-3.9917500000000006,0.5142083333333327,-0.5375416666666664,0.13673333333333332,0.48650000000000015,-0.023706666666666668,15.5,False
1.3602025508880615,3.6035908356,-10.296913853449999,1.8687944505999998,-20.868750000000002,-5.32875,41.5275,3.830769401281667,-9.151150631816668,1.8083557397616663,-4.385208333333334,0.6165833333333333,0.6600416666666667,0.13677066666666665,0.48627600000000015,-0.023706666666666668,16.5,False
1.3900816440582275,3.77647226845,-9.82792062385,2.1601206021499997,-27.991250000000004,-1.49625,53.00750000000001,3.810769392383334,-9.209256340620003,1.817129422628333,-5.095708333333334,0.8321250000000002,2.3485000000000005,0.13688266666666665,0.48589333333333345,-0.023492000000000002,15.5,False
1.4065887928009033,3.8805600515499994,-9.382257414599998,2.0530417908,-36.102500000000006,-0.21000000000000002,49.603750000000005,3.802215051588334,-9.231708992683336,1.8127226410066661,-6.072500000000001,0.8391250000000002,4.013333333333334,0.137116,0.48539866666666676,-0.023744,16.5,False
1.4230525493621826,3.83390001085,-9.1824567275,1.9573288867999998,-39.173750000000005,-4.1475,45.14125000000001,3.791128306875001,-9.259485675031668,1.814497317768333,-7.422625,0.8338750000000004,5.513375,0.137984,0.4850346666666668,-0.024047333333333334,16.5,False
1.439647912979126,3.7746776514999993,-8.892326987249998,2.0488543512499997,-35.07875000000001,-9.100000000000001,42.48125,3.774278847733334,-9.283772824421668,1.8196618265466664,-8.734833333333334,0.7306250000000003,7.0239166666666675,0.13872133333333334,0.4847453333333335,-0.024047333333333334,15.5,False
1.4561758041381836,3.7292140221,-8.4406817215,2.09910362585,-30.178750000000004,-12.906250000000002,36.330000000000005,3.7533017696066673,-9.291310215611668,1.8213368023666663,-9.854541666666668,0.4407083333333335,8.452208333333335,0.13962666666666665,0.48422266666666675,-0.024112666666666668,16.5,False
1.4729406833648682,3.6430724084999997,-8.1667035338,2.3001007242499996,-25.392500000000002,-13.335,28.918750000000003,3.7310684596150008,-9.281579403705003,1.838066620378333,-10.791666666666666,0.0005833333333333357,9.66816666666667,0.140896,0.48362533333333335,-0.024173333333333335,15.5,False
1.4897396564483643,3.70349117915,-7.93759076985,2.3485553819,-22.767500000000002,-11.103750000000002,22.032500000000002,3.714557983675,-9.252626250245,1.8617954444949996,-11.550583333333332,-0.40716666666666684,10.683750000000002,0.141988,0.48299066666666673,-0.024173333333333335,16.5,False
1.5061826705932617,3.8709887611499996,-7.6935228646499985,2.36351052315,-20.711250000000003,-10.75375,17.438750000000002,3.70612328401,-9.212247368869999,1.8880965529066667,-12.205083333333334,-0.7297500000000003,11.549416666666671,0.14293066666666665,0.4820293333333334,-0.024304,16.5,False
1.522390604019165,3.9565321691,-7.673183872549999,2.44008084635,-17.683750000000003,-11.287500000000001,12.215000000000002,3.703989683858333,-9.161160606360001,1.9073188944599997,-12.795416666666664,-0.9867083333333336,12.240375000000002,0.14394800000000002,0.4814320000000001,-0.024332,16.5,False
1.538970708847046,3.9738801329499998,-7.891528934799999,2.4777678023,-12.871250000000002,-11.602500000000001,7.008750000000001,3.7028331529350003,-9.116793687318333,1.924567157368333,-13.259458333333331,-1.2585416666666667,12.728625000000003,0.14496533333333333,0.48083466666666674,-0.024332,15.5,False
1.5553946495056152,4.099503319449999,-8.0374911134,2.5758735289,-8.120000000000001,-10.430000000000001,2.31875,3.707279814933334,-9.079246312686667,1.946621005665,-13.556958333333334,-1.572083333333334,13.107500000000003,0.14609466666666668,0.47989200000000015,-0.02456533333333333,16.5,False
1.5718507766723633,4.079762532999999,-8.128418372199999,2.7020949210499996,-3.8062500000000004,-5.3637500000000005,0.27125000000000005,3.7172100287233336,-9.041539416548334,1.9736798412333334,-13.703375,-1.7765416666666671,13.363875000000004,0.1473266666666667,0.4788840000000001,-0.02456533333333333,15.5,False
1.588336706161499,4.146163360149999,-8.1451681304,2.6823541345999997,-1.2862500000000001,2.44125,-0.7262500000000001,3.7258840106483335,-9.009794636721667,2.0023538320566665,-13.761124999999996,-1.757291666666667,13.575333333333338,0.14834400000000006,0.4779320000000001,-0.02488733333333333,15.5,False
1.6049525737762451,4.32562505515,-7.829913752849999,2.43649161245,0.6562500000000001,8.295,-0.8925000000000001,3.7419358622566667,-8.967302095383332,2.022952046605,-13.699,-1.4994583333333338,13.765500000000005,0.15002400000000005,0.4768586666666667,-0.024574666666666665,15.5,False
1.6214208602905273,4.3441694303,-7.4177500599999995,2.4382862293999996,0.14875000000000002,10.797500000000001,-5.468750000000001,3.761417426258333,-8.915557306658332,2.037867307478333,-13.618208333333332,-1.1800833333333336,13.82616666666667,0.15163866666666673,0.4754120000000001,-0.024574666666666665,16.5,False
1.638131856918335,4.469194411149999,-7.4512495764,2.4454646972,0.29750000000000004,12.127500000000001,-14.726250000000002,3.785824216778332,-8.851908225498331,2.0558134769783334,-13.442333333333332,-0.8493333333333339,13.603916666666672,0.1531506666666667,0.4743106666666667,-0.02453733333333333,15.5,False
1.6552457809448242,4.265804490149999,-7.636095122249999,2.66979181595,-1.09375,15.365000000000002,-17.45625,3.8101313063566664,-8.795477492515,2.0788045141266664,-13.281625,-0.48183333333333384,13.146875000000001,0.15453200000000003,0.47347066666666665,-0.024668,15.5,False
1.671785831451416,4.003790415449999,-7.833502986749998,2.8229324623499994,-4.69,20.798750000000002,-21.02625,3.8232320100916657,-8.745587141305,2.1107088154599998,-13.223875,0.05395833333333329,12.607875000000003,0.15597866666666668,0.4727146666666666,-0.024668,16.5,False
1.6883876323699951,4.05403969005,-7.2191457842,3.0005995404,-5.1450000000000005,28.60375,-23.292500000000004,3.834777379136666,-8.691190307531667,2.1515862015433327,-13.234083333333333,0.8364999999999998,11.995375000000001,0.15743466666666667,0.47170666666666666,-0.024658666666666662,15.5,False
1.7053108215332031,4.354937132,-6.325426543099999,3.05623266585,-1.8900000000000001,34.0375,-28.428750000000004,3.8509887522516664,-8.609993860638333,2.1888344733499996,-13.206666666666662,1.801333333333333,11.16441666666667,0.158984,0.47053066666666665,-0.02449533333333333,15.5,False
1.721782922744751,5.3192446398,-3.9056846888499996,3.4181470840999997,4.85625,37.33625000000001,-37.633750000000006,3.8814773002133327,-8.474400579971668,2.2367308057266664,-12.972749999999998,2.791833333333334,10.108875000000001,0.16039333333333336,0.469644,-0.02449533333333333,16.5,False
1.738501787185669,7.14437007795,-1.2987044661499998,4.066602008699999,20.790000000000003,41.597500000000004,-55.16875,3.964089500478333,-8.260302777836669,2.30333103476,-12.446291666666665,3.9039583333333336,8.588125,0.16169066666666668,0.468636,-0.024126666666666668,15.5,False
1.7550108432769775,11.56750265405,1.0815558152,4.90349171305,58.60750000000001,50.338750000000005,-71.70625000000001,4.141876219658333,-7.9601032424783345,2.403789703583333,-11.016541666666663,5.221125000000001,6.502125000000001,0.16289466666666666,0.4678146666666667,-0.024425333333333334,15.5,False
1.7716729640960693,19.5996099166,2.356930261,4.259224228,108.95500000000001,50.758750000000006,-103.25000000000001,4.536592247716666,-7.592645451871667,2.509532522315,-7.8679999999999986,6.812750000000002,3.7554999999999996,0.16409866666666667,0.4669933333333334,-0.024425333333333334,15.5,False
1.7883658409118652,19.5996099166,0.10289137179999999,3.4618160965499998,136.01875,40.90625000000001,-149.275,5.064349212334999,-7.237091953700001,2.5933012535033333,-3.44925,8.269333333333334,-0.4993333333333325,0.16501333333333335,0.46668533333333334,-0.02384666666666667,15.5,False
1.8050217628479004,19.5996099166,-4.8670011684,0.2165504453,142.94875000000002,8.951250000000002,-158.16500000000002,5.597131104413332,-7.002415877205,2.611426884698333,1.575291666666667,9.136750000000001,-5.933083333333333,0.165396,0.46662933333333334,-0.023277333333333334,16.5,False
1.8214459419250488,19.5996099166,-8.249255913499999,-4.69531614685,110.215,-48.790000000000006,-102.08625,6.137968832578333,-6.918029000178334,2.4533610117799993,6.285708333333336,8.279833333333334,-10.968125000000002,0.16577866666666663,0.46657333333333334,-0.023277333333333334,16.5,False
1.838026762008667,19.5996099166,-5.3760741765499995,-5.615356436549999,-31.771250000000002,-129.29875,-38.64,6.671089707858332,-6.850371941163334,2.200120619946666,8.356250000000005,4.8101666666666665,-13.723208333333337,0.1656293333333333,0.4668346666666666,-0.022750000000000003,15.5,False
1.8544857501983643,19.5996099166,4.90708094695,-0.41635113239999993,-195.99125,-155.44375000000002,-73.3075,7.205446874814999,-6.510471490833334,2.0478374016449994,4.818625000000003,-0.45529166666666754,-16.069375,0.16517199999999999,0.4673946666666667,-0.022750000000000003,16.5,False
1.8708887100219727,19.5996099166,14.4574341492,5.166103993399999,-273.08750000000003,-136.87625,-206.66625000000002,7.736075226553334,-5.813522028206666,2.0579271369416663,-2.94933333333333,-5.199250000000001,-21.924583333333338,0.16429466666666664,0.4675533333333334,-0.022922666666666668,15.5,False
1.8875057697296143,3.65443831585,18.48515279065,18.065810629999998,-162.365,-108.18500000000002,-238.11375,8.26971454673,-4.887619323136666,2.3034107955133334,-10.030124999999998,-9.503375000000002,-31.995249999999995,0.16198933333333335,0.46718,-0.024154666666666668,15.5,False
1.9154257774353027,-19.5996099166,19.1844551955,-10.813763535049997,50.2075,224.75250000000003,-286.72,7.530551705401668,-3.915674723205,2.887857715563333,-8.623416666666667,-9.65766666666667,-40.52854166666666,0.159348,0.46714266666666665,-0.024154666666666668,15.5,False
1.9437389373779297,-19.5996099166,-7.014559451899999,5.0979085493,-248.19375000000002,44.52,-286.72,6.749155545183333,-3.379403298168334,2.3054845751,-12.674083333333336,-11.247250000000003,-51.58095833333333,0.15334666666666666,0.46561199999999997,-0.024919999999999998,15.5,False
1.970566987991333,-19.5996099166,-19.5996099166,0.36430724085,64.64500000000001,185.8675,-112.83125000000001,5.969155198148333,-3.7301512109516666,2.538605316905,-20.277541666666668,-4.874625000000001,-62.59691666666667,0.14486266666666667,0.46200933333333327,-0.025675999999999994,16.5,False
1.9986319541931152,-10.371689559699998,15.3930277858,-19.0899387028,255.71000000000004,-248.98125000000002,255.98125000000002,5.191128929758334,-4.09388018634,1.8164713964133332,-9.657083333333334,-1.2824583333333328,-54.37541666666667,0.13676133333333335,0.45811733333333327,-0.025745999999999995,15.5,False
2.021267890930176,-14.523236770699997,5.924030551949999,10.4339029473,-211.19875000000002,-80.50875,67.655,4.780779794046667,-3.3339396687683327,1.6630715275649994,-16.606625,-7.385875,-52.22029166666666,0.12915466666666667,0.4564466666666666,-0.023972666666666666,15.5,False
2.0565431118011475,-19.5996099166,-15.197414538249998,8.3844503904,109.05125000000001,24.001250000000002,174.23000000000002,4.00570467353,-3.359921734166667,2.136351897656666,-19.29579166666667,-8.916833333333335,-49.71429166666666,0.12105333333333337,0.4546826666666667,-0.02452333333333333,15.5,False
2.073085069656372,-19.5996099166,-12.447463165199999,1.2550354536999997,132.685,-19.8625,195.48375000000001,3.227419182691666,-3.6104303201983337,2.204367880061666,-13.865541666666665,-8.199041666666668,-44.163,0.1132786666666667,0.453572,-0.02485933333333333,15.5,False
2.089578866958618,-12.270394292799999,-10.393823168749998,-0.09511469834999998,70.91875,-65.39750000000001,196.91000000000003,2.567199546975,-3.72586407046,2.123251193921666,-9.609541666666663,-9.512708333333334,-37.974999999999994,0.10638133333333336,0.45322666666666667,-0.023874666666666666,15.5,False
2.1062350273132324,-4.33998199075,-8.708079647049999,2.9120651042,-14.6475,-66.7275,213.72750000000002,2.156810530886667,-3.7996028869166665,2.097328949088333,-8.286249999999997,-11.513250000000003,-31.507875,0.09948400000000004,0.45288133333333336,-0.023874666666666666,15.5,False
2.1227779388427734,1.9669001771999999,-4.16530594095,4.74676183275,-40.52125,-36.995000000000005,199.82375000000002,1.9807785482800002,-3.727359584585,2.1496121228983327,-9.20470833333333,-12.88466666666667,-24.545208333333328,0.09351066666666669,0.4531426666666667,-0.02383266666666667,15.5,False
2.1393260955810547,9.44028336265,-3.05742907715,6.80100003485,-9.152500000000002,-11.847500000000002,149.45000000000002,2.061596131595,-3.570250840706667,2.258505491386666,-9.865333333333332,-13.41841666666667,-18.725,0.08807866666666668,0.45346,-0.023487333333333336,15.5,False
2.1558618545532227,14.219348300499998,-4.467399794199999,4.8442693537,4.0425,46.01625000000001,101.325,2.3136401121283336,-3.3999217519633333,2.3914467270049995,-9.582708333333333,-12.998125000000005,-14.566416666666665,0.08286133333333333,0.4537213333333333,-0.023487333333333336,15.5,False
2.172171115875244,18.302700067399996,-7.0193450970999995,0.05204389154999999,-56.70875,87.4825,79.36250000000001,2.7304498688600005,-3.330589717128333,2.3789641691083334,-10.214166666666667,-10.61695833333334,-11.689124999999997,0.07801733333333331,0.45453333333333334,-0.023697333333333334,15.5,False
2.188755989074707,19.5996099166,-7.525427076999999,0.06101697629999999,-107.30125000000001,50.478750000000005,72.17875000000001,3.238067243261667,-3.3254850289149993,2.2703300230683334,-13.234666666666667,-8.481958333333342,-9.197124999999998,0.07317333333333331,0.4553453333333334,-0.023697333333333334,15.5,False
2.205725908279419,19.597217093999998,-6.305087550999999,3.7016965622,-76.45750000000001,10.5525,79.19625,3.743311735251667,-3.313820018739999,2.257468601593333,-16.60283333333333,-7.977666666666674,-6.365333333333327,0.06915999999999999,0.45529866666666674,-0.023776666666666668,16.5,False
2.222414970397949,16.586448057549998,-4.729413868899999,7.15035213445,-35.55125,-9.406250000000002,68.46000000000001,4.200919117313334,-3.2234710254016665,2.353620189736666,-18.244625,-8.654625000000008,-3.1972499999999946,0.06556666666666668,0.45536400000000005,-0.024583999999999998,15.5,False
2.2387731075286865,12.96251822985,-5.9748780322,7.81675322855,-35.971250000000005,13.133750000000001,43.435,4.552803620831667,-3.133381254511667,2.5195823772349994,-19.077041666666666,-9.208208333333339,-0.8017916666666719,0.06197333333333334,0.45542933333333335,-0.024583999999999998,15.5,False
2.255396842956543,9.800403163949998,-7.79402141385,7.326822801199999,-72.26625000000001,23.091250000000002,39.20875,4.801996154433332,-3.109014344368334,2.6742384779483332,-20.647083333333335,-9.384375000000007,1.2360833333333348,0.05848266666666667,0.45547600000000005,-0.024784666666666663,15.5,False
2.2719409465789795,7.1461646948999995,-9.319445821349998,6.2799629136999995,-101.39500000000001,26.171250000000004,49.41125,4.94213579804,-3.174178879841667,2.800120886896666,-23.49579166666667,-9.575708333333337,3.509916666666672,0.05532800000000001,0.455252,-0.024924666666666664,15.5,False
2.2884161472320557,5.3407800432,-9.00718247205,5.132604476999999,-102.55875,23.3625,67.3575,4.99250471377,-3.319662493921667,2.8794628962749997,-27.07425,-9.88925,6.592541666666664,0.05217333333333334,0.45502800000000004,-0.024924666666666664,16.5,False
2.304931879043579,4.2113677759999995,-7.195217558199999,5.33419978105,-71.33000000000001,19.048750000000002,54.258750000000006,4.936093920975,-3.493221893175,2.927080066015,-30.331,-10.556291666666668,10.367000000000003,0.04953200000000003,0.4544119999999999,-0.025601333333333327,15.5,False
2.321376085281372,3.4528430117999993,-7.942376415049999,4.4207397534999995,-20.08125,25.40125,29.898750000000003,4.766702021083333,-3.7339597869233336,2.934936500218333,-33.057208333333335,-11.305000000000003,13.710958333333345,0.047348000000000015,0.45308666666666664,-0.02582533333333333,15.5,False
2.3381478786468506,2.9252256285,-9.839286531199999,3.4701909756499996,-3.19375,23.948750000000004,40.46,4.3562731246183315,-4.107120471393333,2.896292415228333,-36.11737500000001,-12.217625,17.54345833333333,0.04516400000000001,0.45176133333333335,-0.02582533333333333,15.5,False
2.354665994644165,3.0149564759999996,-9.37208791855,3.1633114771999993,-20.501250000000002,29.426250000000003,62.23875,3.800021630871666,-4.492484551123334,2.8738995837299997,-40.64608333333333,-12.891375000000002,23.598166666666668,0.043623999999999996,0.45014666666666664,-0.025811333333333332,15.5,False
2.3713438510894775,3.43788787055,-8.2456666796,2.4317059672499997,-40.6525,22.286250000000003,65.9925,3.2599615700516664,-4.701816648246666,2.8865815435099997,-46.44995833333334,-12.893416666666669,31.147083333333338,0.04294266666666667,0.448028,-0.026226666666666662,15.5,False
2.3881301879882812,3.8398820673499996,-6.1686966628,3.1142586138999993,-46.480000000000004,0.25375000000000003,57.9425,2.7226133748449994,-4.69758932832,3.0641489206183325,-52.40637499999999,-11.917500000000006,37.91754166666667,0.04226133333333333,0.4459093333333334,-0.026226666666666662,15.5,False
2.4048168659210205,4.496113665399999,-5.7296137157,4.30169682915,-31.92,-0.9012500000000001,33.040000000000006,2.209093704696666,-4.623391887531666,3.3878778782099994,-55.57591666666666,-8.833708333333336,41.4505,0.042513333333333334,0.443072,-0.025899999999999996,15.5,False
2.4213709831237793,4.81974292205,-6.224927993899999,4.989633326649999,-0.21000000000000002,7.140000000000001,23.931250000000002,1.717468361338333,-4.817489680768332,3.645923855431666,-52.17070833333334,-3.6178333333333383,43.71995833333333,0.042765333333333336,0.4402346666666667,-0.025899999999999996,15.5,False
2.4381251335144043,4.3986061444499995,-7.27597532095,5.007579496149999,23.8,19.372500000000002,27.55375,1.2219945616316659,-5.399803000666665,3.7521851190599995,-43.29470833333333,1.6697916666666648,49.202124999999995,0.04383866666666667,0.43772400000000006,-0.026305999999999996,15.5,False
2.4559402465820312,3.7621153328499997,-9.40319461235,4.2317067681,5.27625,31.132500000000004,31.946250000000003,0.7007979189750002,-6.257550142013332,3.5939597246349995,-34.63454166666667,6.9407916666666685,58.508916666666664,0.04604133333333334,0.43551200000000007,-0.02583933333333333,15.5,False
2.472583055496216,3.9589249916999996,-10.11625574715,3.3559336964999993,-27.973750000000003,32.2875,46.52375000000001,1.4384054256133327,-7.239424955734999,3.0640093392999996,-35.399,8.216833333333335,66.623375,0.048243999999999995,0.4333000000000001,-0.02583933333333333,15.5,False
2.4889039993286133,4.5571306417,-9.00718247205,3.2015966387999995,-41.32625,18.865000000000002,61.5125,2.2338195382299997,-7.793901772719997,3.684867043246667,-31.331125000000007,10.745583333333336,78.01587500000001,0.05386266666666666,0.4325160000000002,-0.026081999999999994,15.5,False
2.5054750442504883,5.09252469845,-7.548757097349999,3.9110685397,-29.828750000000003,5.1625000000000005,60.7075,3.051207738389999,-7.412366209149999,3.5048669631616667,-23.683916666666672,4.914874999999997,89.62508333333336,0.06253333333333334,0.4338040000000002,-0.026394666666666664,15.5,False
2.525040864944458,4.6456650778999995,-7.673183872549999,4.9674997176,-2.66875,4.322500000000001,62.40500000000001,3.872723557534999,-7.008716976718333,4.310231229756666,-33.67583333333334,1.8080416666666643,82.086375,0.07065333333333333,0.4356146666666668,-0.026394666666666664,15.5,False
2.5415842533111572,4.03011146405,-8.1738820016,4.480560318499999,6.702500000000001,15.312500000000002,68.28500000000001,4.30887529695,-7.764051310784999,4.567958163965,-25.64129166666667,8.694,81.04775,0.07825066666666666,0.4347466666666668,-0.02643666666666666,15.5,False
2.5580222606658936,4.6468614892,-8.0243305891,4.0755750934499995,-1.4525000000000001,18.611250000000002,68.08375000000001,5.1112684754833335,-7.744828969231665,4.174917111726667,-22.071875,11.289833333333336,80.02108333333334,0.08667866666666665,0.4343453333333335,-0.025974666666666663,15.5,False
2.574583053588867,5.6051869404999985,-7.570292500749999,3.3487552287,-7.183750000000001,3.19375,66.5,5.927759367168334,-7.495337332804999,4.151128467045,-27.003958333333333,11.304416666666668,76.02991666666668,0.09492933333333334,0.43361733333333347,-0.025974666666666663,15.5,False
2.590961217880249,6.07238555315,-6.9613191490499995,3.8566318255499996,-0.15750000000000003,-9.94875,72.93125,6.660361886534999,-7.371628404385001,4.272923137384999,-30.751875000000002,12.799208333333334,71.69633333333334,0.10267599999999999,0.4320773333333335,-0.026184666666666658,15.5,False
2.6075751781463623,5.8133625067,-6.9924258428499995,5.184050162899999,-2.6075000000000004,0.69125,68.53,7.143971274183333,-7.260122871225001,4.369972034003334,-31.561249999999998,14.895708333333333,67.28954166666668,0.11026399999999999,0.4301266666666668,-0.02623133333333333,15.5,False
2.624127149581909,5.60339232355,-7.4452675199,5.172086049899999,-4.4625,28.883750000000003,71.22500000000001,7.37443997094,-7.3140012601016675,4.420819514253334,-30.449416666666664,17.168083333333332,62.465375000000016,0.11697466666666666,0.4276253333333334,-0.02623133333333333,16.5,False
2.640756130218506,6.184250009699999,-7.2646094136,3.3481570230499993,0.9800000000000001,31.745000000000005,69.86875,7.3503721636216675,-7.446324349881668,4.365246209368333,-29.68379166666666,19.120208333333334,59.003875000000015,0.12359199999999998,0.42512400000000006,-0.02609133333333333,15.5,False
2.657349109649658,6.1686966628,-7.2921268735,2.5746771176,11.812500000000002,10.75375,66.71000000000001,7.175755934386667,-7.581120023015001,4.2309291007550005,-29.644125,19.496166666666667,57.08062500000002,0.13076933333333332,0.42257600000000006,-0.02623133333333333,16.5,False
2.6738810539245605,5.21336223975,-7.794619619499999,3.4713873869499996,21.656250000000004,1.9862500000000003,83.93875000000001,6.807719878318335,-7.641139989898334,4.258247158771667,-28.415041666666664,17.020791666666668,56.64750000000001,0.13706933333333332,0.41983200000000004,-0.02623133333333333,15.5,False
2.690887212753296,4.79820751865,-6.917051930949999,3.98345142335,14.682500000000001,17.4825,107.86125000000001,6.318008793039999,-7.643692334005001,4.420181428226667,-24.677624999999995,14.82454166666667,57.56537500000002,0.14368666666666666,0.41684533333333335,-0.02618933333333333,15.5,False
2.7074952125549316,5.9066825881,-4.7928236678,2.8899314951499995,-15.295000000000002,28.227500000000003,106.63625,5.834578867086665,-7.6052476508983355,4.468416743805,-21.323458333333328,14.778458333333337,58.79970833333335,0.149996,0.41443733333333327,-0.025624666666666664,15.5,False
2.724367141723633,7.092924392049999,-3.64845625935,2.3497517932,-33.2325,21.778750000000002,87.50875,5.4515477893916655,-7.580581637930002,4.370749701348334,-20.59954166666666,15.90779166666667,59.42591666666667,0.15596933333333332,0.41192666666666666,-0.025624666666666664,16.5,False
2.740941047668457,6.6173509003,-4.1581274731499995,2.6745774611499997,-21.46375,9.353750000000002,76.71125,5.200281476203332,-7.531748116701667,4.189313927703334,-20.694916666666657,16.361041666666672,60.335333333333345,0.16234400000000002,0.40906133333333333,-0.025731999999999994,16.5,False
2.757500171661377,6.408577128449999,-3.8835510797999997,3.0783662749,5.241250000000001,8.4,76.30875,5.030052088401666,-7.438467915678335,4.033122432488333,-19.157249999999998,15.945708333333334,61.58600000000001,0.1690826666666667,0.4060653333333333,-0.025624666666666664,15.5,False
2.7740631103515625,6.41695200755,-3.0544380489,2.86241403525,17.185000000000002,17.990000000000002,64.08500000000001,4.965844681968332,-7.2605615553683345,3.902554079281666,-15.646458333333339,15.502083333333333,62.61937500000001,0.1754386666666667,0.403144,-0.025624666666666664,15.5,False
2.790485382080078,6.166902045849999,-3.03709008505,2.90309201945,11.445,33.722500000000004,45.3425,4.974578484458332,-7.041797749163335,3.804209070421666,-11.596958333333337,15.53066666666667,62.43970833333334,0.18214933333333336,0.400148,-0.026021333333333327,15.5,False
2.8068931102752686,6.26022212725,-3.2823544015499997,2.356930261,0.11375000000000002,42.7,31.395000000000003,5.031148798759999,-6.884589304343334,3.718486200776667,-8.418375000000006,16.25254166666667,61.48712500000002,0.18845866666666666,0.39766533333333337,-0.026021333333333327,15.5,False
2.8232171535491943,6.3984076324,-3.8446677125499997,2.44008084635,-10.377500000000001,35.166250000000005,16.922500000000003,5.118048139516666,-6.7566331158083335,3.6291142766666673,-7.0901250000000005,16.814875000000004,61.05691666666669,0.19473066666666666,0.3954533333333334,-0.025540666666666663,15.5,False
2.8399882316589355,6.188437449249999,-4.2197426551,3.2434710343,-17.771250000000002,32.480000000000004,13.343750000000002,5.21886573173,-6.592006920928333,3.6037702972950005,-7.438958333333334,17.054625000000005,60.45083333333335,0.2006666666666667,0.3932693333333334,-0.025666666666666664,15.5,False
2.8562891483306885,6.433701765749999,-4.0965122912,3.6448670254499995,-22.085,34.938750000000006,2.9575000000000005,5.334159900673333,-6.3930836021149995,3.6010185513050006,-7.828625,17.327333333333335,58.97470833333334,0.20628533333333338,0.3908986666666667,-0.025666666666666664,15.5,False
2.8727691173553467,6.5383877545,-4.4141594913499995,3.8991044266999997,-18.051250000000003,40.705000000000005,-14.463750000000001,5.439842898839999,-6.241019725885,3.634498127516667,-7.486208333333334,17.617541666666668,56.57662500000001,0.2121746666666667,0.38841600000000015,-0.025498666666666663,16.5,False
2.8891351222991943,6.3673009386,-5.3862436726,4.15094900535,-4.4275,47.29375,-28.367500000000003,5.534100169091667,-6.169713612404999,3.6864024377483333,-6.351041666666665,18.727041666666665,53.71625000000001,0.21837200000000004,0.3859333333333334,-0.025703999999999998,15.5,False
2.906071186065674,6.690331989599999,-5.632106194749999,3.9511483182499996,12.46,52.298750000000005,-29.566250000000004,5.610152047394999,-6.170969844270001,3.6969308571883333,-4.771666666666666,20.511166666666668,51.27966666666668,0.2241026666666667,0.38365600000000016,-0.025703999999999998,15.5,False
2.922600269317627,7.988438250099999,-3.7603207158999994,3.38763859595,27.422500000000003,48.300000000000004,-25.847500000000004,5.686443207958333,-6.148577012771667,3.659064439543333,-3.5338333333333343,22.146250000000006,49.467541666666676,0.2300666666666667,0.3815373333333334,-0.02550333333333333,16.5,False
2.9392921924591064,10.323833107699999,-0.79381889755,3.4971102298999996,42.35,40.87125,-37.660000000000004,5.8327044893833335,-5.996692598236667,3.6007393886683334,-2.8163333333333327,23.22279166666667,47.54575000000001,0.23574133333333336,0.37966133333333335,-0.02530266666666666,15.5,False
2.9561262130737305,17.282161228499998,4.07078944825,4.75274388925,47.066250000000004,38.526250000000005,-64.53125,6.131209108733334,-5.663651572693334,3.5790045833849997,-1.955916666666667,23.607500000000005,45.05520833333335,0.2416866666666667,0.3780840000000001,-0.02530266666666666,15.5,False
2.972635269165039,19.5996099166,7.2466632441,5.996413435599998,52.20250000000001,46.96125000000001,-123.03375000000001,6.658288106948334,-5.128696200086667,3.643012587935,0.101500000000001,23.943208333333335,40.71316666666668,0.24798666666666672,0.37698266666666674,-0.025349333333333328,15.5,False
2.9893391132354736,19.5996099166,6.9726850564,5.720042425300001,20.606250000000003,25.76,-177.835,7.169514655438334,-4.5497527720166655,3.742554008095,2.9120000000000004,24.563,33.662125,0.25348400000000004,0.3763573333333334,-0.024840666666666664,16.5,False
3.0058772563934326,19.5996099166,8.31326391805,5.587838976649999,-83.19500000000001,-58.065000000000005,-186.75125000000003,7.658767116385001,-4.0307694902649995,3.8054453620983333,2.969166666666667,23.648624999999996,25.147208333333342,0.2584120000000001,0.37573200000000007,-0.024840666666666664,15.5,False
3.0226123332977295,19.5996099166,9.334400962599998,4.0893338234,-78.35625,-83.86875,-146.78125,8.143891958346668,-3.4883365470333323,3.8300714946900003,-0.0839999999999994,20.655541666666668,17.55104166666667,0.2623133333333334,0.37534933333333337,-0.025349333333333328,16.5,False
3.0392003059387207,19.5996099166,10.2424771393,-5.754738352999999,-21.6825,-66.71875,-187.04875,8.649156390525,-2.884567584488332,3.620181072293333,-1.292083333333333,17.932249999999993,10.56766666666667,0.2661213333333334,0.375396,-0.025349333333333328,16.5,False
3.0588252544403076,19.5996099166,19.5996099166,-9.102297170399998,-286.72,-169.60125000000002,-286.72,9.153403873098334,-1.9627526180266661,2.808834749198333,-4.646249999999999,14.189291666666664,-0.6877500000000026,0.26877200000000007,0.37510666666666664,-0.025419333333333332,15.5,False
3.097459316253662,-19.5996099166,17.9354017983,3.1609186545999997,286.67625000000004,22.67125,-286.72,8.600282988920002,-1.0484949829433334,3.083092099535,-13.978125,9.535166666666665,-12.460874999999998,0.26998533333333335,0.3747146666666667,-0.026077333333333327,15.5,False
3.1205391883850098,-19.5996099166,-3.792623821,-9.87458066455,-188.36125,30.327500000000004,-286.72,7.746563765616667,-0.43385861775666634,2.6428725617,-4.986041666666667,10.254416666666662,-24.362333333333332,0.2667000000000001,0.37491066666666667,-0.02638066666666666,15.5,False
3.1486294269561768,-19.5996099166,-19.5996099166,3.0699913958,-286.72,107.90500000000002,94.63125000000001,6.890830583291666,-0.8654041736666664,2.3791436308033336,-14.556791666666667,13.139583333333329,-36.29908333333333,0.2612960000000001,0.37237200000000004,-0.027836666666666662,15.5,False
3.171323299407959,-13.71147170365,10.247860990149999,-3.45703045135,160.60625000000002,-184.1175,286.67625000000004,6.050112362781666,-1.2704890996583338,1.9523637799050002,-4.838749999999999,11.410000000000002,-29.035999999999998,0.25686266666666674,0.36939466666666665,-0.02841066666666666,15.5,False
3.20601224899292,6.5515482787999995,13.43868992725,13.853246442699998,15.96,-12.521250000000002,188.65875000000003,5.790850034071666,-0.6098108396099995,2.1623738434316664,-4.680958333333334,5.9190833333333295,-23.60808333333333,0.25189733333333336,0.36791999999999997,-0.027953333333333327,16.5,False
3.2223961353302,10.351948773250001,8.05005343205,13.323236236799998,142.1875,-34.615,138.23250000000002,5.888357555021667,0.00685942478666662,2.4907887452816655,-1.529208333333332,4.3035416666666695,-20.50533333333333,0.2467266666666668,0.36699600000000004,-0.02712266666666666,15.5,False
3.2396063804626465,7.23649374805,0.7459624455499999,12.818948873849997,113.34750000000001,20.22125,80.97250000000001,6.037510163755,0.3952344729549999,2.8628527193933326,2.626166666666668,3.7097083333333347,-19.463791666666662,0.2415560000000001,0.366072,-0.02712266666666666,15.5,False
3.2563834190368652,2.835494781,-8.160123271649999,6.489933096849999,26.0575,91.21000000000001,36.0675,6.0400226274849995,0.5058426976400004,3.064886707586666,4.330083333333334,5.7225,-21.01720833333333,0.23673066666666678,0.366016,-0.026683999999999992,15.5,False
3.272958278656006,-2.2857437886499996,-14.230116002199999,0.8021937766499999,-41.2475,86.4325,27.142500000000002,5.860959736251667,0.3004986381833338,3.0581469239299994,3.7808750000000004,8.152958333333334,-23.86795833333333,0.23170000000000007,0.3660626666666667,-0.02709466666666666,15.5,False
3.2894864082336426,-3.0233313550999994,-14.8366965313,1.7575281996999998,-29.855000000000004,40.416250000000005,59.99875000000001,5.5202417382,-0.06895317125666664,3.0103104121183324,3.2179583333333337,9.351125000000001,-25.64304166666667,0.22666933333333344,0.3661093333333334,-0.02709466666666666,15.5,False
3.3061695098876953,-0.9248259349,-12.458829072549998,3.8063825509499996,-6.553750000000001,22.51375,82.84500000000001,5.230730143788334,-0.41294136019499983,3.031506832316666,3.787875,9.762666666666668,-25.743666666666666,0.22187200000000012,0.36646400000000007,-0.027467999999999992,15.5,False
3.3228774070739746,-0.3038884702,-10.3405828659,5.3760741765499995,-8.09375,21.953750000000003,78.77625,5.012185679655,-0.6401199258766667,3.093341356338333,3.8386250000000004,10.213291666666667,-25.538041666666672,0.21659866666666674,0.36722000000000005,-0.027467999999999992,15.5,False
3.3395004272460938,-1.0444670649,-10.81256712375,5.98744035085,-28.140000000000004,45.47375,91.14000000000001,4.792125761208334,-0.8833304029783332,3.1956544626766665,2.772291666666668,10.775333333333334,-25.14370833333333,0.2119880000000001,0.3678266666666668,-0.026613999999999992,15.5,False
3.3561923503875732,-0.40079778549999995,-10.4279208908,4.843671148049999,-19.01375,48.790000000000006,104.40500000000002,4.523351962663333,-1.1425129709349997,3.282753205316667,1.1593750000000012,11.689124999999999,-23.632875,0.20751733333333341,0.3684800000000001,-0.027066666666666662,15.5,False
3.372978448867798,3.2177481913499997,-10.857432547499998,3.7800615023499997,6.0375000000000005,32.970000000000006,117.44250000000001,4.379363862708333,-1.3934203607333333,3.3374292017266667,0.9549166666666669,11.634583333333335,-21.24062499999999,0.20304666666666676,0.3691333333333335,-0.027066666666666662,15.5,False
3.389568328857422,6.50907567765,-8.51785025035,3.5994033960499996,-32.57625,26.958750000000002,133.56875000000002,4.34907471663,-1.6176876589183338,3.3797223411816666,0.8782083333333331,11.248708333333337,-17.79575,0.19854800000000009,0.3695626666666668,-0.027001333333333325,15.5,False
3.4063143730163574,6.732804590749999,-5.741577828699999,4.75394030055,-95.13000000000001,38.115,121.10000000000001,4.373999952046666,-1.7172689594550004,3.4173694167549997,-0.7956666666666661,11.206125000000004,-13.935833333333335,0.19459066666666672,0.36976800000000015,-0.027271999999999994,15.5,False
3.423417329788208,4.5798624564,-5.15832731995,5.8408799666,-95.56750000000001,51.52875,92.45250000000001,4.344448592936667,-1.744168273516667,3.4808789165966667,-3.6122916666666667,11.624958333333336,-10.68520833333334,0.19063333333333338,0.36997333333333354,-0.027271999999999994,16.5,False
3.440218448638916,4.44167695125,-3.6346975293999995,5.166103993399999,-31.867500000000003,55.97375,92.62750000000001,4.2702710923366665,-1.7544773508850002,3.5479577101499995,-4.909625,12.220833333333335,-7.409208333333341,0.18748800000000004,0.3699173333333335,-0.02736533333333333,15.5,False
3.456550359725952,7.446463931199999,-2.6362922995499996,3.2333015382499997,2.89625,43.2775,79.48500000000001,4.272444572865,-1.682353689683333,3.54676129885,-4.751541666666666,12.528541666666671,-3.7254583333333344,0.18452933333333335,0.36929200000000023,-0.02733266666666666,16.5,False
3.4730224609375,10.56371357335,-3.4127632332499998,2.8522445392,-2.6950000000000003,26.398750000000003,66.78875000000001,4.362215300741666,-1.5891133690366661,3.500739344176666,-4.805208333333334,11.909625000000004,-0.33833333333332405,0.18157066666666666,0.36866666666666686,-0.02733266666666666,15.5,False
3.4895455837249756,11.5944219083,-3.0113672421,4.06361098045,-5.2675,15.811250000000001,63.07875000000001,4.505445673539999,-1.5494523344416664,3.4913076350949996,-5.695666666666666,10.893750000000002,2.762958333333334,0.17849066666666666,0.3678453333333335,-0.02733266666666666,15.5,False
3.5061724185943604,10.180263751699998,-3.65563472715,5.5298130286000005,-4.61125,25.077500000000004,34.895,4.5663430087100005,-1.5677773675199995,3.5382867188083327,-7.035291666666667,10.01204166666667,5.475749999999996,0.17590533333333339,0.3667720000000001,-0.027449333333333326,15.5,False
3.522622585296631,9.38285562025,-4.35314251505,5.70030163885,2.30125,46.042500000000004,38.220000000000006,4.4577487430466665,-1.7730217260349999,3.6007393886683325,-8.748833333333332,9.979083333333332,8.116791666666655,0.17332000000000006,0.3656986666666668,-0.027449333333333326,15.5,False
3.539252519607544,10.201799155099998,-3.8380874503999998,4.495515459749999,17.255000000000003,48.86000000000001,39.541250000000005,4.12307262206,-2.1087546770033327,3.58528574271,-10.076500000000003,10.261125,12.541666666666675,0.17035200000000003,0.3642240000000001,-0.02722066666666666,15.5,False
3.5557804107666016,11.8002046519,-4.2006000743,2.3629123174999997,24.403750000000002,29.715000000000003,22.793750000000003,3.845565021025,-2.48889442739,3.4854851001016667,-10.866333333333335,10.095166666666668,18.830000000000005,0.1677666666666667,0.361032,-0.027127333333333326,16.5,False
3.572460412979126,11.239685957849998,-4.773681087,1.95194503595,17.578750000000003,-7.236250000000001,-1.2337500000000001,3.5833515444416664,-2.887359210855,3.3590842462566664,-8.944541666666671,11.064958333333333,25.62787500000001,0.16579733333333338,0.3586426666666666,-0.027127333333333326,15.5,False
3.5889384746551514,9.822536773,-6.115456359949999,3.6035908356,2.8525000000000005,-17.360000000000003,-13.405000000000001,3.2867611831716657,-3.36095862396,3.2783663638833334,-5.095416666666665,13.430083333333336,30.823041666666672,0.16501333333333335,0.3561693333333333,-0.02684266666666666,15.5,False
3.6058764457702637,8.120043493099999,-6.8219372326,4.8287160068,-11.725000000000001,-2.52875,-0.10500000000000001,2.932723139313333,-3.9183068280649995,3.46540533045,-4.173750000000001,15.421000000000003,35.32929166666666,0.16422933333333328,0.353696,-0.02684266666666666,15.5,False
3.6223134994506836,7.28435020005,-6.244070574699999,4.2999022122,-30.4675,6.965000000000001,13.72,2.530828643455,-4.792225462149999,4.275954046011666,-1.6517083333333331,18.669000000000004,44.53020833333333,0.16421999999999998,0.35124133333333335,-0.026856666666666657,15.5,False
3.6389355659484863,7.14078084405,-5.0057848792,3.5162528106999997,-31.491250000000004,-0.23625000000000002,16.633750000000003,3.1614969200616665,-5.634538897726666,4.009273967241666,6.820333333333338,23.16795833333333,54.658916666666656,0.16590000000000002,0.3488986666666667,-0.027155333333333326,15.5,False
3.65876841545105,6.579663944349999,-4.6707897152,3.8578282368499996,-9.992500000000001,-19.985000000000003,-0.3325,4.045425528689999,-6.160820288408333,4.4510687799549995,-2.824791666666667,22.214208333333332,64.43704166666666,0.17162133333333338,0.34597733333333347,-0.027155333333333326,16.5,False
3.675771474838257,6.214758497849999,-4.90349171305,4.0869410008,16.94,-23.380000000000003,-16.852500000000003,4.909613350868332,-5.644090247938333,4.693880453290001,6.865541666666669,18.82766666666667,73.73887500000002,0.17946133333333336,0.34609866666666683,-0.026903333333333328,15.5,False
3.692305564880371,5.308476938099999,-6.605984992949999,4.4602213264,33.45125,-6.790000000000001,-12.705000000000002,5.759404357069999,-5.183910581581666,5.078546626428333,-1.8252500000000007,19.499083333333335,63.586833333333324,0.18620933333333337,0.3464626666666668,-0.02708533333333333,15.5,False
3.7095084190368652,5.022534637399999,-6.86201701115,3.7250265825499995,23.056250000000002,11.0775,0.6737500000000001,5.992006653978333,-5.827759322676666,4.8624548054600005,-0.8472916666666667,23.976166666666664,55.637166666666666,0.19304133333333337,0.3452680000000002,-0.02708533333333333,15.5,False
3.7262444496154785,5.155336291699999,-6.45882640305,2.68175592895,3.54375,13.265,3.2900000000000005,5.850670599071665,-6.422754602355,4.550470618796666,-3.8132499999999996,25.327458333333333,50.42829166666666,0.19950933333333337,0.34401733333333345,-0.027066666666666662,15.5,False
3.742708444595337,4.38544562015,-6.932605277849999,3.3792637168499997,3.8675,5.398750000000001,14.708750000000002,5.668277696386666,-6.78556632908,4.179862278433334,-8.549916666666668,26.09425,47.21995833333333,0.2060053333333334,0.3426733333333335,-0.026968666666666658,16.5,False
3.7591135501861572,4.6707897152,-6.3738812007500005,3.6861432152999996,12.285000000000002,5.398750000000001,27.527500000000003,5.650530928769999,-6.860621197966666,3.961337754488333,-10.671208333333336,23.990166666666667,46.15741666666666,0.2118386666666667,0.34070400000000006,-0.026968666666666658,15.5,False
3.775768756866455,5.3551369788,-6.0478591215,3.8841492854499995,15.321250000000001,4.9262500000000005,37.89625,5.8311890350699995,-6.671249229364999,3.9772899051549997,-9.676625000000003,20.86729166666667,46.36187499999998,0.21739200000000006,0.33859466666666665,-0.02683799999999999,15.5,False
3.7922024726867676,5.611168996999999,-5.4981081291499985,4.360320982849999,17.517500000000002,9.231250000000001,43.321250000000006,6.135855172614999,-6.366064646923332,4.085664828746666,-7.563791666666669,18.959500000000002,46.31258333333332,0.22305733333333336,0.33651333333333333,-0.026730666666666663,16.5,False
3.808830499649048,5.65244518685,-6.690331989599999,4.1826539047999995,11.71625,18.681250000000002,50.39125000000001,6.370431548168332,-6.121577997768332,4.146861266741666,-6.568625000000003,18.52870833333333,45.320041666666654,0.228088,0.33447866666666665,-0.026730666666666663,15.5,False
3.8266665935516357,5.413761132499999,-7.188039090399999,4.433302072149999,7.463750000000001,17.211250000000003,60.23500000000001,6.549614080531666,-5.995177143923332,4.128416592533333,-6.163500000000003,18.528125,44.327499999999986,0.2333146666666667,0.332304,-0.026870666666666657,15.5,False
3.8431947231292725,5.891129241199999,-6.34277450695,4.16171670705,22.163750000000004,18.235000000000003,75.9325,6.745187447704999,-5.861538001713332,4.072205201621666,-5.1234166666666665,18.174333333333337,43.79987499999999,0.23802800000000002,0.33026000000000005,-0.026473999999999994,16.5,False
3.8610196113586426,6.192026683149999,-5.33180695845,4.342973019,39.165000000000006,21.341250000000002,88.28750000000001,6.997929334829999,-5.710830058289999,4.041796414413333,-3.0027083333333318,16.943208333333338,43.22966666666667,0.24224666666666667,0.3282440000000001,-0.026473999999999994,15.5,False
3.8776047229766846,6.79741080095,-3.7339996672999995,3.6340993237499997,42.9275,30.126250000000002,87.50875,7.155157719838333,-5.500261669489999,4.036771486953333,-1.5793749999999986,16.52729166666667,42.57720833333334,0.24696933333333337,0.3262746666666667,-0.026133333333333328,15.5,False
3.894141435623169,7.3351976802999985,-3.2446674455999998,3.25483694165,33.81875,31.185000000000002,68.11875,7.208098919863332,-5.276452995636665,4.02544545998,-0.0752499999999974,16.6705,40.933666666666674,0.2515893333333334,0.32474400000000003,-0.026450666666666664,15.5,False
3.9106874465942383,7.283153788749999,-3.43190581405,3.2333015382499997,30.852500000000003,27.973750000000003,45.92,7.221020161903332,-5.146981352788332,3.998984830061666,3.2223333333333337,16.562875000000005,38.527125000000005,0.256004,0.3234093333333334,-0.026450666666666664,15.5,False
3.9269356727600098,7.240681187599998,-4.0606199522,3.649054465,20.816250000000004,26.740000000000002,29.321250000000003,7.275995261138333,-5.112943451303332,3.9403008557966657,7.6349583333333335,15.87716666666667,36.17454166666667,0.2606986666666667,0.321888,-0.02603533333333333,15.5,False
3.9435887336730957,7.32742100685,-4.7437708044999995,3.688536037899999,14.726250000000002,31.26375,16.021250000000002,7.3680192302966665,-5.116153821624999,3.8727434977233326,10.103041666666666,15.061958333333338,33.85754166666667,0.264292,0.32107600000000003,-0.02621733333333333,15.5,False
3.9602246284484863,8.49152920175,-4.74436901015,3.6430724084999997,31.508750000000003,33.355000000000004,3.7012500000000004,7.423054150096665,-5.184867710621664,3.8606398034049993,11.005166666666668,14.335708333333338,31.252083333333342,0.2673906666666667,0.32083333333333336,-0.02621733333333333,15.5,False
3.976848602294922,8.81456025275,-5.215156856699999,3.601198013,51.52875,42.18375,-13.965000000000002,7.411050156719999,-5.256452986738332,3.890111401761666,12.287333333333333,14.527625000000002,28.682791666666677,0.27084400000000003,0.32080533333333333,-0.026119333333333328,15.5,False
3.993311643600464,9.1094756382,-5.655436215099999,2.7182464736,77.04375,51.633750000000006,-18.602500000000003,7.324051115021665,-5.3165327741866655,3.8867415099333322,14.627083333333337,15.378416666666672,25.88600000000001,0.27418533333333334,0.32081466666666675,-0.026119333333333328,15.5,False
4.010101556777954,8.8821574912,-6.36430991035,2.02253330265,95.38375,47.74,-17.648750000000003,7.25443991755,-5.428536812054999,3.805006677954999,17.668583333333338,16.401291666666673,23.590875000000004,0.27706000000000003,0.32115066666666675,-0.025545333333333326,16.5,False
4.026629686355591,8.8869431364,-6.761518461949999,1.5523436617499997,95.95250000000001,45.85875000000001,-11.690000000000001,7.222834719041667,-5.494558775626664,3.6666616512983325,21.065625,16.780166666666673,21.976500000000005,0.28025200000000006,0.32198133333333334,-0.025321333333333328,16.5,False
4.04337477684021,10.127023448849998,-6.46720128215,1.08813607735,68.46875,40.01375,-5.232500000000001,7.219345186083333,-5.587619634578332,3.536332580351666,23.594083333333334,16.515333333333338,20.33762500000001,0.2834720000000001,0.3227373333333333,-0.025321333333333328,15.5,False
4.060184717178345,10.802397627699998,-6.314658841399999,1.2598210988999998,42.84,29.942500000000003,-4.768750000000001,7.1976103808000005,-5.670291655408333,3.470988583183333,24.623666666666672,16.334500000000006,19.098333333333343,0.2866920000000001,0.32528533333333326,-0.024849999999999997,16.5,False
4.076845645904541,10.695917022,-5.85942434175,1.32143628085,45.57000000000001,16.161250000000003,-1.225,7.16590548135,-5.721657580554999,3.4574292551166668,25.16441666666667,16.75741666666667,18.65645833333334,0.2891933333333334,0.32741333333333333,-0.024490666666666664,15.5,False
4.0933518409729,9.7878408453,-6.071189141849999,1.9208383421500002,79.96625,6.9037500000000005,2.7212500000000004,7.149494706351667,-5.737749312539999,3.415175996038333,26.863375000000005,17.59129166666667,19.060125000000014,0.2915360000000001,0.32938266666666666,-0.024490666666666664,15.5,False
4.110073566436768,9.280562454099998,-6.604190375999999,1.5002997702,101.71875000000001,6.501250000000001,1.32125,7.16506799344,-5.717190978368333,3.3222746585933334,30.134125000000004,18.217791666666674,19.492958333333345,0.294112,0.33137066666666665,-0.024131333333333334,16.5,False
4.126444578170776,8.9503529353,-8.15294480385,0.8309076478499999,84.6825,2.9575000000000005,-3.0537500000000004,7.219524647778334,-5.73810823593,3.199642500343333,34.069583333333334,18.244041666666668,19.10533333333335,0.29692133333333337,0.3337693333333334,-0.02323066666666667,16.5,False
4.14314079284668,8.638687791649998,-8.9216390641,1.3286147486499997,59.736250000000005,-5.897500000000001,6.6762500000000005,7.274320285318334,-5.84291386581,3.100878747528333,37.41266666666668,17.964333333333336,18.57129166666668,0.2994786666666667,0.33615866666666677,-0.02323066666666667,16.5,False
4.159621715545654,8.0901332106,-8.7589271273,2.0183458631,68.20625000000001,-7.97125,16.493750000000002,7.320601462440001,-5.982375543013333,3.041576627424999,40.239208333333345,18.086250000000003,18.763791666666677,0.3019893333333334,0.3386880000000001,-0.023860666666666665,16.5,False
4.176608562469482,7.817949639849999,-8.063812162,2.1284157026999995,87.66625,-7.472500000000001,21.192500000000003,7.371987327775002,-6.1262838822150005,2.9739395085983333,42.68191666666668,18.616791666666668,19.68400000000001,0.3045466666666667,0.34156266666666674,-0.023146666666666666,16.5,False
4.19628381729126,7.426124939099999,-7.934599741599999,1.7335999736999999,112.48125000000002,-1.39125,24.185000000000002,7.429036206596668,-6.201737554868333,2.89926350329,45.34600000000001,18.992458333333335,21.008458333333344,0.3072253333333333,0.34463333333333346,-0.023146666666666666,16.5,False
4.224727630615234,7.37408104755,-7.27358249835,0.17527425545,97.79,0.7875000000000001,24.281250000000004,7.520501850481668,-6.21762988497,2.7809184855316667,47.73766666666667,19.016958333333335,21.994000000000014,0.31009999999999993,0.3480493333333335,-0.022540000000000004,16.5,False
4.247449636459351,6.569494448299999,-7.399205684849999,0.29970103065,92.82000000000001,-2.3800000000000003,35.51625000000001,7.580521817365001,-6.250670777038333,2.6792833455966663,50.57879166666668,18.44179166666667,22.82641666666668,0.3130866666666666,0.3512320000000002,-0.022208666666666668,15.5,False
4.270626544952393,6.30090011145,-6.5916280573499995,0.17766707805,73.61375000000001,5.215000000000001,42.58625000000001,7.635457036223333,-6.256413551278332,2.594078920848333,53.404750000000014,18.239375000000003,23.984625000000012,0.31642799999999993,0.35474133333333346,-0.021812,15.5,False
4.294968605041504,6.332006805249999,-6.437290999649999,-0.22073788485,45.018750000000004,9.555000000000001,42.0525,7.696593653653334,-6.276014756409999,2.4883959226816668,54.574333333333335,18.075750000000006,24.600333333333346,0.31975999999999993,0.3584093333333334,-0.021107333333333336,16.5,False
4.321249961853027,6.704688925199999,-5.348556716649999,-0.5515456093,53.48875,6.702500000000001,38.68375,7.767740245626667,-6.270949948573333,2.3437697367,55.75266666666667,18.132916666666674,25.02529166666668,0.3234746666666667,0.362124,-0.021266000000000004,15.5,False
4.347925901412964,6.433701765749999,-5.3766723822,-0.8745766602999999,53.821250000000006,16.4675,41.720000000000006,7.795138064396666,-6.251249042499999,2.176890300538333,56.982916666666675,18.42020833333334,24.99320833333334,0.32746933333333333,0.36542800000000003,-0.020995333333333335,15.5,False
4.375770807266235,7.1653072757,-3.81834666395,-1.8035900347499998,19.880000000000003,7.9975000000000005,36.417500000000004,7.8448290137233325,-6.191946922396666,1.9712271980683336,57.88999999999999,18.43829166666667,24.739166666666673,0.33142666666666665,0.3689840000000001,-0.020883333333333334,15.5,False
4.392423868179321,6.8219372326,-3.9864424516,-0.9882357337999998,19.845000000000002,3.4912500000000004,32.698750000000004,7.895177989265,-6.097430429696666,1.7860626092050003,58.17554166666667,18.062916666666663,24.11791666666667,0.3352253333333333,0.37256800000000007,-0.020547333333333338,16.5,False
4.408792972564697,6.987640197649999,-3.7579278932999998,-0.61196437995,30.747500000000002,1.6275000000000002,29.618750000000002,7.937690470791667,-6.004628793193333,1.6156936400850002,58.5935,17.486875000000005,22.84129166666667,0.33917333333333327,0.37597466666666673,-0.020300000000000002,15.5,False
4.425508737564087,7.2957161074000005,-3.7118660582499996,-0.5377868793499999,24.4125,6.606250000000001,30.03,7.978547916686667,-5.926881998881666,1.451665650855,58.582125,17.096916666666672,21.098583333333337,0.3431213333333333,0.37938133333333346,-0.020300000000000002,15.5,False
4.441927671432495,8.100900912299998,-3.2530423247,-0.7184449856499999,4.751250000000001,10.193750000000001,23.747500000000002,8.015556906233334,-5.900879993294998,1.2960923014783334,57.58520833333333,16.477125000000004,19.056625000000004,0.3466959999999999,0.38284400000000013,-0.019861333333333335,15.5,False
4.458538770675659,8.386843212999999,-3.6137603316499995,-1.11206430335,-3.7100000000000004,11.620000000000001,11.602500000000001,8.052067391071667,-5.895396441503332,1.1593026095116667,56.24587499999999,15.799291666666669,17.0275,0.34963599999999995,0.38664266666666675,-0.020225333333333335,16.5,False
4.474960803985596,8.5112699882,-4.166502352249999,-1.24008031245,10.955000000000002,8.015,8.4525,8.08439043636,-5.917270828105,1.0129815075216664,55.185958333333325,15.177458333333334,15.393875000000001,0.35257599999999995,0.3904413333333334,-0.020225333333333335,15.5,False
4.491560697555542,8.489136379149999,-4.42133795915,-1.0486545044499997,19.74875,7.472500000000001,8.9075,8.12925586011,-5.928995658844999,0.856530789858333,54.93512499999999,14.536666666666669,14.478041666666666,0.3555813333333333,0.39402533333333334,-0.020272000000000002,15.5,False
4.507985830307007,8.6895352719,-4.41894513655,-1.0414760366499998,21.5775,11.742500000000001,12.985000000000001,8.177012611168333,-5.929354582234999,0.6999803712533331,55.14949999999999,13.831708333333335,14.044041666666665,0.35849333333333333,0.3974880000000001,-0.020272000000000002,15.5,False
4.5245747566223145,8.952745757899999,-4.0869410008,-1.2454641632999999,16.40625,15.872500000000002,17.1325,8.202735454118333,-5.911089369721665,0.5394618551699999,55.14949999999998,13.248083333333335,14.26191666666667,0.361172,0.40069866666666665,-0.019712,15.5,False
4.540913820266724,9.2315095908,-3.8841492854499995,-1.7371892076,7.5425,15.30375,14.148750000000001,8.210432366815,-5.878606802926666,0.368913424355,54.09775,12.539333333333335,15.005083333333335,0.3638973333333333,0.40402133333333334,-0.019716666666666667,15.5,False
4.557529926300049,9.3906322937,-4.00977247195,-1.8041882403999998,15.601250000000002,5.95875,11.383750000000001,8.230571957031666,-5.823113258795,0.19988044785333334,52.300791666666655,11.330666666666668,16.030583333333333,0.3666226666666667,0.40734400000000004,-0.019716666666666667,15.5,False
4.574043035507202,9.24287549815,-4.1120656381,-1.67198479175,16.47625,0.8225000000000001,8.925,8.248956810675,-5.7506904947683335,0.06414758586833331,50.022,9.780458333333334,16.98841666666667,0.3691986666666667,0.41015333333333337,-0.019581333333333336,16.5,False
4.590543985366821,8.98086142345,-4.23469779635,-1.65643144485,4.4625,0.69125,11.1125,8.263612849100001,-5.673721367801665,-0.052143592491666814,47.119041666666675,8.207500000000001,17.861958333333337,0.37157866666666667,0.41263599999999995,-0.019600000000000003,16.5,False
4.606927871704102,8.6416788199,-4.342374813349999,-1.8747765071,-12.083750000000002,2.33625,13.92125,8.250013640656666,-5.599065302681666,-0.15248262018500006,44.093583333333335,6.752958333333335,18.56429166666667,0.37395866666666666,0.41511866666666664,-0.019600000000000003,15.5,False
4.623769998550415,8.685946038,-4.326821466449999,-2.1224336461999997,-9.047500000000001,-2.8262500000000004,16.301250000000003,8.188518099836667,-5.536333470184999,-0.2593022090866666,41.89062500000001,5.644041666666669,19.204208333333334,0.3764413333333333,0.41708800000000007,-0.019544000000000002,15.5,False
4.640301942825317,8.72243658265,-4.271188340999999,-1.94357015685,-11.620000000000001,-10.666250000000002,15.995000000000001,8.116195036751668,-5.477350393094999,-0.36861432153,40.30133333333334,4.575958333333334,19.85666666666667,0.3790360000000001,0.41841333333333336,-0.01910066666666667,15.5,False
4.6568357944488525,8.3964145034,-4.326821466449999,-1.3190434582499997,-24.92875,-12.950000000000001,14.682500000000001,8.056234890433334,-5.421797028398332,-0.47990051261833333,37.61887500000001,3.834833333333335,20.312250000000002,0.3816306666666668,0.4197386666666666,-0.01910066666666667,15.5,False
4.673413991928101,8.30010339375,-4.10907460985,-0.8171489178999999,-37.1875,-9.49375,15.802500000000002,8.016374453955,-5.357549741588332,-0.5758327586900001,33.38066666666668,3.236624999999999,20.692583333333335,0.3841133333333334,0.42103599999999997,-0.019450666666666668,15.5,False
4.690139055252075,8.359923958749999,-3.9708891047,-0.7932206919,-49.980000000000004,-6.370000000000001,10.045000000000002,7.991110235336667,-5.242694256788331,-0.6395616006033332,28.72625,2.7929999999999993,21.26745833333333,0.3864933333333333,0.42158666666666655,-0.020034,15.5,False
4.706637859344482,8.3102728898,-4.406382817899999,-0.5802594805,-51.10875000000001,-7.840000000000001,6.64125,7.973144125648333,-5.092185715248331,-0.6930611259016666,24.69454166666667,2.642208333333332,21.460541666666668,0.38887333333333335,0.4221373333333333,-0.020034,16.5,False
4.723635673522949,8.449056600599999,-4.261617050599999,-0.6293123437999999,-46.550000000000004,-13.606250000000001,4.2875000000000005,7.974819101468332,-4.940779865233333,-0.7726623577283332,21.10266666666667,2.583875,21.256958333333333,0.39136533333333323,0.4223053333333333,-0.01996866666666667,15.5,False
4.740077972412109,8.23190794965,-4.298107595249999,-0.5766702466,-53.830000000000005,-17.78,-3.7275000000000005,7.990332567991666,-4.802594360083333,-0.8558727636433333,16.861250000000005,2.299791666666668,20.587875,0.39396933333333334,0.42223066666666664,-0.01996866666666667,16.5,False
4.756735801696777,7.7838519178,-4.7270210463,-0.45403808835,-57.785000000000004,-21.02625,-10.937500000000002,8.00662370186,-4.682155622549999,-0.9440283362649998,11.454916666666668,1.805416666666668,19.595333333333333,0.3963960000000001,0.4226506666666666,-0.020477333333333337,15.5,False
4.773180961608887,7.5583283877500005,-4.924428910799999,-0.10348957745,-55.60625,-16.896250000000002,-11.086250000000001,8.004430281143332,-4.605405837655,-0.9691729137533333,6.143666666666673,0.986416666666667,18.328625000000002,0.3986360000000001,0.42207199999999995,-0.02082266666666667,15.5,False
4.793009996414185,7.743173933599999,-4.35433892635,-0.46301117309999995,-59.815000000000005,-10.395000000000001,-13.842500000000001,8.029335576371667,-4.5176490688,-0.9767701255083332,1.0085833333333363,0.6737500000000004,17.030708333333333,0.4007733333333335,0.42118533333333324,-0.020799333333333336,15.5,False
4.809505939483643,7.5978099606499985,-4.0223347905999995,-0.705882667,-64.28625000000001,-10.5525,-20.475,8.074181059933332,-4.416592194326666,-1.0142975599516666,-3.9369166666666633,0.2794166666666669,14.992250000000004,0.4024440000000001,0.4200653333333333,-0.020799333333333336,15.5,False
4.826343059539795,7.6498538522,-4.177270053949999,-0.8512466399499998,-65.65125,-11.628750000000002,-21.875000000000004,8.130412391033333,-4.301377786136667,-1.0501300783866667,-7.613666666666665,-0.17324999999999863,12.959916666666668,0.4037320000000001,0.4187026666666666,-0.021546000000000003,15.5,False
4.842795133590698,7.5505517143,-3.9409788222,-1.064806057,-68.6875,-11.103750000000002,-19.46,8.143114291001666,-4.2257247116,-1.064148030785,-11.492250000000002,-0.8067499999999997,10.774750000000003,0.40470266666666677,0.4172653333333332,-0.021546000000000003,15.5,False
4.859215974807739,7.410571592199999,-3.3373893213500003,-0.9942177902999998,-87.67500000000001,-12.670000000000002,-20.44,8.179584895463334,-4.165305940950001,-1.0830114489483333,-15.952708333333334,-1.700125000000001,8.773333333333332,0.4053560000000001,0.41607999999999995,-0.02173266666666667,15.5,False
4.875956058502197,7.076772839499999,-3.00359056865,-0.9858429111999999,-101.53500000000001,-14.883750000000001,-28.175000000000004,8.18752109042,-4.109214191168332,-1.0704491302983332,-20.653500000000005,-2.667291666666668,6.640666666666664,0.4060746666666668,0.4148386666666666,-0.02178866666666667,15.5,False
4.89239501953125,6.60837781555,-3.1172496421499996,-0.44446679795,-106.56625000000001,-16.3275,-33.17125,8.187979714751666,-4.069114472429999,-1.04865450445,-24.672083333333337,-3.518666666666668,4.364791666666666,0.40675600000000006,0.4137093333333333,-0.02178866666666667,15.5,False
4.909034013748169,6.417550213199999,-3.0873393596499996,-0.12323036389999999,-115.31625000000001,-10.465000000000002,-32.847500000000004,8.168916894705001,-4.044388638896666,-1.0275179048166667,-29.250375000000005,-4.035208333333335,2.265374999999997,0.40697066666666676,0.41233733333333333,-0.022162000000000005,15.5,False
4.925803184509277,6.306882167949999,-2.6356940938999998,-0.2536391956,-132.055,-11.75125,-32.655,8.14576633605,-4.015933990144999,-1.0176475115916666,-34.36504166666667,-4.512666666666667,0.19804166666666656,0.40685866666666676,0.4105266666666667,-0.022400000000000007,15.5,False
4.942451000213623,6.185446420999999,-2.0482561456,-0.11246266220000001,-145.78375000000003,-14.306250000000002,-37.75625,8.102775290003335,-3.978167273441667,-1.0021938656333333,-39.49020833333334,-5.228125000000002,-1.8835833333333345,0.40661600000000003,0.40861333333333333,-0.022400000000000007,15.5,False
4.958893060684204,6.180660775799999,-1.6953148121,0.5072783912,-148.70625,-12.276250000000001,-51.31,8.034460204773334,-3.930510223325,-0.9676375192516666,-44.337125000000015,-6.092041666666669,-3.9375000000000018,0.40638266666666667,0.406224,-0.023296,15.5,False
4.975764036178589,6.37148837815,-2.0650059038,1.05702938355,-126.9625,-3.6837500000000003,-67.13875,7.9631740314816675,-3.85926393041,-0.9041678997866666,-49.107041666666674,-6.6727500000000015,-6.2419583333333355,0.40588799999999997,0.40351733333333334,-0.023926,15.5,False
4.992281913757324,6.594619085599999,-2.26540479655,1.2251251712,-93.66000000000001,1.88125,-74.69875,7.89595565661,-3.7934214285333328,-0.8261419428383333,-53.361,-6.899666666666667,-8.899625000000004,0.40504799999999996,0.401212,-0.023926,16.5,False
5.008824110031128,6.6562342675499995,-2.2839491717,1.32382910345,-61.775000000000006,3.5000000000000004,-88.87375000000002,7.8329845418533335,-3.715933856669999,-0.7498707224633332,-56.53724999999999,-7.116666666666666,-11.919250000000003,0.40407733333333334,0.3985146666666667,-0.024126666666666668,15.5,False
5.025613069534302,6.831508523,-3.06221472235,1.5517454561000001,-40.87125,8.23375,-108.97250000000001,7.767839946568333,-3.661158159318332,-0.6644270154549999,-58.80233333333333,-7.405125,-15.744750000000005,0.40299466666666667,0.3962746666666667,-0.02443,16.5,False
5.042258024215698,7.049255379599999,-4.7964129017,1.4614164029499999,-30.5725,18.83875,-125.43125,7.698268629473334,-3.659662645193333,-0.5629513970266665,-60.303541666666675,-7.497875000000001,-20.260333333333335,0.40151066666666674,0.393708,-0.02443,15.5,False
5.058659791946411,6.99122943155,-6.98405096375,0.79621172015,-26.45125,24.465000000000003,-132.3,7.622555734371668,-3.7193436288749995,-0.46458644797833326,-61.53291666666667,-7.05425,-25.028500000000005,0.3996253333333334,0.39133733333333337,-0.024686666666666666,16.5,False
5.075412034988403,6.755536405449999,-9.059226363599999,0.5754738353000001,-18.462500000000002,20.501250000000002,-116.48000000000002,7.536653403031665,-3.8612978296199993,-0.3878167228949999,-62.930875,-6.392166666666667,-29.535041666666675,0.39774933333333334,0.3892373333333334,-0.024686666666666666,16.5,False
5.091943979263306,7.275377115299999,-9.891330422749999,0.7459624455499999,-19.10125,18.94375,-96.57375,7.460940507929999,-4.048635899011667,-0.3143969494516666,-63.849916666666665,-5.768583333333334,-33.384458333333335,0.395388,0.38753866666666675,-0.024644666666666662,15.5,False
5.108534097671509,8.32522803105,-11.107482509199999,1.30468652265,-34.877500000000005,27.921250000000004,-83.90375,7.41487867288,-4.247080653305,-0.21730817245666653,-64.45804166666667,-5.054875,-36.87220833333334,0.3929426666666667,0.3858680000000001,-0.024355333333333333,16.5,False
5.124804973602295,9.03111069805,-12.518051431899996,1.6618152956999999,-58.23125,43.767500000000005,-49.84,7.414400108359999,-4.493661022235,-0.0953938609866667,-65.68041666666667,-3.886166666666668,-39.659375,0.3903946666666667,0.38411333333333336,-0.024355333333333333,15.5,False
5.141274929046631,10.088140081599997,-12.25783197415,1.4985051532499998,-53.12125,51.17875000000001,-2.5112500000000004,7.446703213459999,-4.77140790553,0.02789632347833327,-67.3435,-1.9751666666666672,-41.0585,0.387772,0.38266666666666665,-0.02420133333333333,16.5,False
5.157896041870117,10.8119689181,-10.65942647735,0.8973084749999999,-31.045,44.9575,19.2325,7.519584601818333,-5.008616385943333,0.12592228932499994,-68.14995833333334,0.13387500000000047,-41.129374999999996,0.38517733333333337,0.381248,-0.02429,15.5,False
5.174575090408325,10.948958011949998,-9.5018985446,0.8488538173499999,-1.8112500000000002,29.977500000000003,33.635000000000005,7.613901692635,-5.199942493001666,0.18444674208333317,-67.65091666666666,1.6622083333333335,-40.78054166666667,0.38246133333333343,0.3798386666666667,-0.02429,15.5,False
5.19089412689209,10.739586034450001,-8.618947005199999,1.2598210988999998,30.441250000000004,22.96,54.80125,7.693183881448334,-5.3715876341749995,0.25088744960999987,-65.72737500000001,2.7507083333333346,-39.77954166666667,0.3797546666666667,0.37828933333333337,-0.024411333333333333,15.5,False
5.216677188873291,10.20120094945,-6.802794651799999,1.4446666447499998,47.32000000000001,35.1925,85.86375000000001,7.760721299333334,-5.474598647105,0.3254438137883334,-62.43066666666667,3.91125,-37.459041666666685,0.37764533333333344,0.37680533333333327,-0.024364666666666663,15.5,False
5.233206033706665,10.314261817299998,-5.7212388366,0.048454657649999996,44.353750000000005,41.597500000000004,95.21750000000002,7.828617640608334,-5.532983518545,0.37405799294500003,-59.319166666666675,5.647833333333335,-34.59487500000001,0.37585333333333343,0.3752746666666666,-0.024047333333333334,15.5,False
5.250160217285156,10.542776375599999,-5.124229597899999,-1.3627124707,49.27125,23.28375,95.83000000000001,7.895616673408333,-5.5699925080916675,0.3721636750533334,-56.10325000000001,7.320250000000001,-31.353000000000012,0.3740613333333334,0.3737439999999999,-0.024047333333333334,15.5,False
5.26675009727478,9.97029356855,-5.26480792565,-1.30947216785,50.67125000000001,-4.20875,92.47000000000001,7.969515011371667,-5.590211859061667,0.33118658802833334,-52.52391666666667,8.183874999999999,-27.967333333333336,0.3729506666666668,0.3713639999999999,-0.023907333333333333,15.5,False
5.2839250564575195,8.836693861799999,-5.1888358081,-0.34097722049999996,40.17125,-12.328750000000001,100.10000000000001,8.023233878741667,-5.6007602186900005,0.31455647095833333,-49.109375,8.437041666666666,-24.38391666666667,0.3719426666666667,0.3697586666666666,-0.023450000000000002,16.5,False
5.300610065460205,8.724829405249999,-4.3339999342499995,-0.17288143285000002,36.198750000000004,-10.05375,109.12125,8.051768288246667,-5.604648555415,0.31419754756833335,-45.99350000000001,8.488958333333331,-20.542666666666673,0.37093466666666675,0.3682466666666666,-0.023450000000000002,15.5,False
5.317180156707764,10.048658508699999,-2.4406790519999997,-0.33080772444999995,35.175000000000004,-20.6675,104.2125,8.103353555464999,-5.581876860338332,0.32352955570833336,-42.68104166666667,8.395333333333332,-16.29075000000001,0.3701413333333335,0.36635199999999996,-0.023375333333333338,15.5,False
5.337157249450684,13.5804646663,-1.23649107855,1.0863414604,12.766250000000001,-45.05375,83.95625000000001,8.210751409828331,-5.518726283886666,0.3482952696183334,-39.56750000000001,7.665291666666664,-12.474875000000006,0.37006666666666665,0.3644573333333333,-0.02338,15.5,False
5.353704214096069,19.5996099166,-1.75214434885,2.7744778047,-22.70625,-39.410000000000004,78.67125,8.507880156183331,-5.437150973415,0.45032921332,-37.51591666666668,6.5097083333333305,-9.194208333333341,0.369992,0.36256266666666664,-0.02338,15.5,False
5.370344161987305,19.5996099166,-3.33499649875,2.0333010043499997,-47.705000000000005,-24.001250000000002,109.93500000000002,8.91278562048,-5.3889555382133345,0.580678224455,-36.22587500000001,6.077166666666664,-5.804750000000008,0.37017866666666666,0.36051866666666665,-0.023296,16.5,False
5.406590938568115,19.5996099166,-8.858827470849999,0.23928225999999997,103.71375,-81.51500000000001,180.775,9.328857590243333,-5.526522897525,0.6378068640299998,-33.857833333333346,5.320874999999997,-0.6227083333333364,0.37079466666666666,0.35775600000000013,-0.023734666666666668,16.5,False
5.430605173110962,19.5996099166,-15.008979758499999,-5.607579763099999,-136.04500000000002,-117.07500000000002,125.45750000000001,9.756076125284999,-5.760261785168334,0.6060222038266666,-29.14450000000002,2.481791666666663,5.502874999999997,0.37165333333333345,0.3543120000000001,-0.024308666666666662,16.5,False
5.4564573764801025,-0.014955141249999998,-19.5996099166,5.419743188999999,-286.72,-105.55125000000001,183.05875,9.967761164631666,-6.30640360343,0.5903492157966667,-35.014874999999996,-1.230541666666671,11.391916666666667,0.37226933333333334,0.3507280000000001,-0.02401,16.5,False
5.48229718208313,-19.5996099166,-1.3328021881999996,-7.194619352549999,286.67625000000004,2.6775,-47.635000000000005,9.432147765809997,-6.734140583368332,0.7594220726749997,-26.937458333333336,-3.827250000000005,16.611583333333343,0.37321199999999993,0.345632,-0.02523733333333333,15.5,False
5.5164642333984375,-19.5996099166,1.9190437251999999,-11.63210886425,-127.17250000000001,18.3225,48.291250000000005,8.569495338133331,-6.964768801631666,0.3732404452233331,-15.445208333333328,-1.3276666666666692,17.329083333333333,0.37380933333333327,0.3403773333333333,-0.02568533333333333,16.5,False
5.533323287963867,-19.5996099166,13.591830573649998,-4.0342989036,-36.435,-90.06375000000001,36.24250000000001,7.710172921908333,-6.624110624145,0.07884350466999965,-13.65845833333333,-2.261875000000005,20.657291666666666,0.37464,0.33607466666666663,-0.025158,16.5,False
5.549988269805908,3.3433713778499996,16.90110422945,3.999004770249999,-9.8,-93.53750000000001,-64.90750000000001,7.256892560714998,-6.015296793951666,0.06546363829833318,-9.138499999999997,-5.392333333333337,22.444041666666667,0.37591866666666657,0.3313333333333333,-0.02505533333333333,15.5,False
5.566763401031494,12.969696697649999,5.707480106649999,10.60678438015,-39.4275,-78.26,-170.38000000000002,7.362356216809998,-5.530810038016666,0.2777269431066664,-6.554625000000001,-8.215958333333338,20.364166666666662,0.3767026666666665,0.3266853333333333,-0.02588133333333333,16.5,False
5.583288192749023,15.100505222949998,-8.41136964465,13.573286198499998,-40.32875000000001,-52.20250000000001,-173.25000000000003,7.648238696944998,-5.5082576850116665,0.6473183338649998,-5.273333333333331,-10.52683333333334,17.070083333333333,0.37761733333333325,0.32242933333333335,-0.02588133333333333,15.5,False
5.600202322006226,15.32662695865,-17.5023009077,13.720444788399998,-61.96750000000001,-37.511250000000004,-122.43875000000001,7.902176995369998,-5.8882379138916665,1.0614760455483332,-5.481291666666669,-12.07091666666667,15.260000000000002,0.3784293333333332,0.3186866666666666,-0.026175333333333328,15.5,False
5.6167473793029785,15.4552411734,-18.98764553665,13.305888272949998,-91.98,-45.946250000000006,-64.63625,8.201239939993332,-6.395536245279999,1.4551751240016666,-6.874291666666668,-13.88479166666667,16.228041666666662,0.3792413333333332,0.31507466666666667,-0.026324666666666663,15.5,False
5.633423089981079,13.535001036899999,-15.186048630899998,12.80339552695,-123.09500000000001,-28.455000000000002,-28.743750000000002,8.44439059653,-6.782814583089998,1.8583457919133333,-9.711916666666669,-16.116625000000006,19.136833333333342,0.3798106666666666,0.31126666666666675,-0.026324666666666663,16.5,False
5.650153398513794,11.57587753315,-9.90090171315,9.76570723625,-91.84,5.29375,-6.746250000000001,8.636235148484998,-6.916513545864999,2.2226131523866663,-12.732125000000002,-17.23691666666667,22.82787500000001,0.38006266666666655,0.30707600000000007,-0.026903333333333328,15.5,False
5.666784286499023,9.460024149099999,-7.252047094949999,5.71585498575,-58.38875000000001,34.16875,7.5512500000000005,8.745646961869998,-6.872645131531666,2.4705095737466665,-14.35641666666667,-17.19783333333334,26.320291666666673,0.3806786666666666,0.3023160000000001,-0.026903333333333328,15.5,False
5.683157205581665,8.7361953126,-4.920839676899999,1.9148562856499998,-82.95,39.78625,13.693750000000001,8.781519360681667,-6.723831505999998,2.5524238674199995,-15.843041666666668,-16.474208333333333,29.78616666666667,0.3815093333333333,0.2968653333333334,-0.026399333333333327,16.5,False
5.699956178665161,8.58365287185,-2.72721955835,0.5036891573,-96.88000000000001,5.827500000000001,23.79125,8.774400713446665,-6.452106559581665,2.522473704543333,-17.33025,-16.933,32.709541666666674,0.38245199999999996,0.2910133333333334,-0.02658133333333333,16.5,False
5.716371297836304,8.47477944355,-0.7082754896000001,1.6474583601,-97.61500000000001,-14.805000000000001,25.40125,8.740522333468332,-6.082096424868333,2.505225441635,-18.617958333333334,-18.84020833333333,34.497458333333334,0.38346,0.28511466666666674,-0.02658133333333333,15.5,False
5.732974290847778,7.814958611599999,0.4193421606499999,2.715853651,-89.88000000000001,-17.0625,17.220000000000002,8.655756592863332,-5.702036435235,2.53962226651,-20.32625,-21.09333333333333,34.836375,0.38421600000000006,0.2787773333333333,-0.026945333333333325,16.5,False
5.749427318572998,7.3956164509499995,0.2679961312,3.7339996672999995,-71.64500000000001,-8.732500000000002,10.1325,8.537451455481667,-5.352724216011666,2.6252653754016664,-22.462416666666666,-22.70683333333334,34.362125000000006,0.38525200000000004,0.27183333333333337,-0.026618666666666662,15.5,False
5.766357421875,8.052446254649999,-0.2763710103,3.0897321822499997,-58.25750000000001,0.6825000000000001,3.42125,8.439265968128332,-5.053900553648333,2.7008187489966664,-25.015666666666668,-23.576583333333335,33.12633333333334,0.38619466666666663,0.2653093333333334,-0.026618666666666662,15.5,False
5.782597303390503,8.2636128491,-0.30329026454999997,2.8426732488,-54.54750000000001,-8.977500000000001,0.8750000000000001,8.371150284781665,-4.816572432105,2.7478576532749996,-28.407458333333334,-24.628333333333334,30.630541666666666,0.3860826666666667,0.25863600000000003,-0.026739999999999993,15.5,False
5.799267292022705,7.668996432999999,-0.31166514365,3.28714004675,-41.151250000000005,-31.106250000000003,-4.970000000000001,8.287780357359999,-4.626622198041665,2.818505740539999,-31.58545833333334,-26.641708333333334,27.465375,0.3856813333333334,0.2516733333333334,-0.026739999999999993,15.5,False
5.816945314407349,7.31784971645,-0.7064808726499999,4.1898323726,-25.095000000000002,-37.48500000000001,-5.99375,8.194719498408334,-4.459284137548334,2.9618358142799996,-34.190625,-28.979416666666673,24.03916666666667,0.38528000000000007,0.24471066666666677,-0.026739999999999993,15.5,False
5.8332953453063965,6.60957422685,-1.184447187,5.129613448749999,-11.523750000000001,-29.015000000000004,1.7937500000000002,8.078687542496667,-4.324947088746666,3.1830123832733324,-36.52220833333334,-30.33070833333334,20.81479166666667,0.38418800000000003,0.23813066666666677,-0.02677266666666666,15.5,False
5.849949359893799,6.466004870849999,-1.0995019846999998,5.2989056477,11.795000000000002,-15.785000000000002,9.703750000000001,7.983493083393332,-4.1940596925266656,3.3873394931249994,-38.083208333333324,-30.679541666666676,17.852624999999996,0.3828440000000001,0.2312986666666667,-0.02695466666666666,16.5,False
5.866626262664795,6.408577128449999,-0.41216369284999993,4.63788840445,33.67,-5.906250000000001,-0.35875,7.916972615113334,-4.050909080481666,3.560779251248333,-38.50291666666666,-30.629083333333337,14.61133333333333,0.38150000000000006,0.2244666666666667,-0.02695466666666666,15.5,False
5.8833723068237305,5.886343596,-0.44327038664999996,3.9062828944999994,54.040000000000006,-8.23375,-28.358750000000004,7.819365393221667,-3.9497724452549994,3.7126437255949996,-38.24945833333332,-30.390500000000007,10.527124999999995,0.37996,0.21817600000000004,-0.026870666666666657,16.5,False
5.900088310241699,4.75274388925,-1.8299110833499999,3.7782668854,68.97625000000001,-7.420000000000001,-44.5375,7.626065207518334,-3.929912017674999,3.838585955108333,-37.058874999999986,-29.52979166666667,6.108083333333329,0.3780933333333334,0.21236133333333335,-0.02703866666666666,15.5,False
5.916808366775513,3.7154552921499993,-2.8971099629499997,3.6819557757499997,71.50500000000001,3.8937500000000003,-44.92250000000001,7.2157958325600005,-3.9597425394216663,3.894278901123333,-34.51262499999999,-28.033833333333337,1.9649583333333283,0.3760773333333335,0.20654666666666666,-0.02703866666666666,15.5,False
5.936638355255127,3.73699069555,-2.5926232870999995,3.1190442590999994,79.52875,19.06625,-35.1925,6.681139562778335,-3.989313838719999,3.9262829033983326,-30.727666666666657,-26.678750000000004,-2.034666666666673,0.3738186666666668,0.201628,-0.027248666666666657,16.5,False
5.953372478485107,4.26819731275,-1.7736797522499999,2.2552353005,94.77125000000001,11.34875,-46.81250000000001,6.162874127806668,-3.8195231350616656,3.992384627723333,-26.923166666666656,-24.88325000000001,-7.701458333333331,0.3707760000000001,0.19789466666666664,-0.02708533333333333,15.5,False
5.970057249069214,4.03489710925,-1.6462619487999999,2.4526431649999996,116.10375,-0.15750000000000003,-61.46875000000001,5.649015474456665,-3.5340992792583323,4.1219958518899995,-24.66974999999999,-21.34445833333334,-14.558541666666667,0.3674906666666667,0.19484266666666664,-0.02708533333333333,15.5,False
5.986834526062012,3.8793636402499994,-1.5984054967999999,2.9706892578999997,131.46875,8.041250000000002,-68.06625000000001,5.355934586333332,-2.9306493597266656,4.233561205615,-10.930499999999995,-17.113833333333336,-21.510416666666668,0.3646626666666667,0.1929853333333333,-0.027033999999999992,15.5,False
6.003398418426514,5.6482577473,-0.7477570625,2.6362922995499996,138.64375,24.736250000000002,-87.96375,5.836812168179999,-2.4448066709850003,4.16542558208,-10.496499999999994,-13.658458333333336,-28.136791666666674,0.3619186666666667,0.1943853333333333,-0.026604666666666662,15.5,False
6.020179271697998,6.831508523,-0.9056833541,2.3437697366999997,150.43875000000003,37.54625,-116.19125000000001,6.702674966178334,-2.1588643702850003,4.638307148404999,-12.493541666666658,-14.643708333333338,-31.129000000000012,0.35952000000000006,0.19594399999999998,-0.026604666666666662,15.5,False
6.036755561828613,6.615556283349999,-2.12183544055,2.47358036275,162.93375,47.76625000000001,-144.48875,7.583472965238333,-2.483969200871667,5.006801828804999,-4.0912083333333245,-11.851875000000003,-37.37766666666668,0.35719600000000007,0.19744666666666663,-0.026385333333333327,15.5,False
6.053535223007202,5.855236902199999,-3.5886356943499993,2.8151557889,165.025,70.41125000000001,-157.41250000000002,8.033822118746667,-3.1303104655083316,5.0863432400666655,1.56625000000001,-6.542958333333335,-42.23420833333334,0.3546853333333334,0.1997053333333333,-0.026385333333333327,15.5,False
6.070087432861328,5.9688959757,-4.066602008699999,2.0177476574499997,176.25125000000003,92.66250000000001,-168.77,7.897650572618334,-3.6644482903933326,4.922295310648332,8.21391666666667,-0.9476249999999993,-43.185625,0.35241733333333336,0.20362533333333327,-0.025498666666666663,16.5,False
6.0866782665252686,7.439883669049999,-4.5990050371999995,0.04127618984999999,218.51375000000002,111.86875,-178.5875,7.616653438625,-3.751945836799999,4.539682976908334,16.053916666666677,4.740458333333335,-43.05758333333333,0.3500560000000001,0.20858133333333334,-0.024705333333333333,15.5,False
6.1032304763793945,8.9503529353,-5.15593449735,-1.36091785375,229.2675,126.54250000000002,-180.145,7.418886650734999,-3.4452059196683327,4.049034702778334,25.583833333333338,10.156125000000001,-43.93433333333334,0.3481426666666668,0.21281866666666668,-0.024705333333333333,15.5,False
6.1199445724487305,9.09332408565,-6.185446420999999,-1.64566374315,195.72000000000003,140.41125000000002,-174.84250000000003,7.190411972811664,-2.999084086086667,3.5525240132783344,35.24470833333335,15.939000000000002,-46.888916666666674,0.34585600000000016,0.21822266666666668,-0.023678666666666667,15.5,False
6.136418342590332,9.339186607799999,-7.129414936699999,-2.85284274485,161.85750000000002,148.2075,-168.1225,7.010910397434998,-2.6445674777083332,3.0424938760883338,44.89479166666668,22.37141666666667,-51.115750000000006,0.3439800000000001,0.22518533333333332,-0.02268,15.5,False
6.153002500534058,10.4697952863,-8.795417671949998,-4.58165707335,163.6775,125.68500000000002,-167.335,6.913343055919998,-2.4935604314599997,2.5269004263533343,53.97495833333334,27.396833333333333,-56.265708333333336,0.3424213333333334,0.2325306666666667,-0.02268,15.5,False
6.1694605350494385,11.843275458699997,-11.294122672,-4.5978086259,154.3675,98.35875000000001,-152.3725,6.946423828364999,-2.5449462967949996,2.099482489428334,61.59154166666668,30.447666666666667,-61.74641666666667,0.3404613333333334,0.2407626666666667,-0.021443333333333335,15.5,False
6.18615460395813,15.958930330699998,-12.4809626816,-4.3465622529,122.98125000000002,84.88375,-118.30875000000002,7.115755907691666,-2.7521248535783327,1.8407984261800003,68.44395833333334,31.925541666666668,-66.68258333333334,0.3378386666666667,0.25037600000000004,-0.020500666666666667,15.5,False
6.202624559402466,19.5996099166,-15.616756698899998,-6.759723844999999,71.33875,64.49625,-93.37125,7.467062145748332,-3.0875587017216666,1.6446866739216668,74.89941666666667,33.845875,-70.74229166666667,0.33510400000000007,0.2603906666666667,-0.020500666666666667,15.5,False
6.219326496124268,19.5996099166,-19.5996099166,-9.56351372655,51.196250000000006,-20.32625,-86.96625,7.834878859745,-3.62847619064,1.3224931108316673,79.75070833333332,34.98745833333333,-74.5955,0.33196800000000004,0.27076000000000006,-0.01952066666666667,15.5,False
6.236229419708252,19.5996099166,-19.5996099166,-10.28913718,124.11000000000001,-106.00625000000001,-48.12500000000001,8.219724494578333,-4.28327209513,0.9200004093233337,85.740375,32.88220833333333,-78.03541666666668,0.32856133333333337,0.28184800000000004,-0.019707333333333337,16.5,False
6.253213405609131,19.5996099166,-19.5996099166,-17.558532238799998,134.82875,-91.09625000000001,77.25375000000001,8.622037734391666,-4.953681167085,0.38512479746999967,93.77170833333335,29.96233333333333,-77.99050000000003,0.3248746666666667,0.2935426666666668,-0.019707333333333337,15.5,False
6.270089626312256,19.5996099166,-19.5996099166,-19.5996099166,-52.17625,-163.87,264.88000000000005,9.01364309307,-5.604189931083332,-0.3810569990500003,97.54791666666667,26.14120833333333,-72.15979166666669,0.32114133333333333,0.3053773333333334,-0.018741333333333336,15.5,False
6.286404371261597,17.316857156199998,-19.5996099166,-19.5996099166,-133.34125,-284.46250000000003,286.67625000000004,9.389994207673332,-6.248537176886667,-1.134158032023333,95.47416666666668,18.64333333333333,-62.659041666666674,0.31786533333333333,0.317296,-0.019455333333333335,15.5,False
6.30305552482605,2.4155544147,-19.5996099166,-19.5996099166,-116.6025,-286.72,286.67625000000004,9.432526629388331,-6.888058897113334,-1.887059663113333,93.06033333333333,9.715708333333328,-53.011875000000025,0.3155226666666666,0.32926133333333335,-0.019455333333333335,15.5,False
6.31944465637207,-9.927820967399999,-19.5996099166,-19.5996099166,-170.12625000000003,-286.72,286.67625000000004,9.07599606198833,-7.529395174478333,-2.6608586115766664,89.66620833333334,1.3594583333333314,-43.26729166666669,0.31565333333333334,0.33923866666666674,-0.021163333333333333,15.5,False
6.336201429367065,-19.5996099166,-2.23429810275,-2.3054845751,-247.03000000000003,-286.72,286.67625000000004,8.216215021431665,-8.00255590344,-3.2972098418583333,82.58483333333334,-7.0536666666666745,-33.60845833333336,0.3159706666666666,0.34918800000000005,-0.021163333333333333,15.5,False
6.352682590484619,-19.5996099166,19.5996099166,0.77228349415,-206.08,-175.70875,286.67625000000004,7.348757008366665,-7.585088120493333,-3.3839496611083337,74.92129166666669,-15.837208333333336,-24.27191666666669,0.31751066666666666,0.3569440000000001,-0.02296466666666667,16.5,False
6.369370460510254,-19.5996099166,19.5996099166,-12.1495567515,1.9075000000000002,-53.978750000000005,241.15875000000003,6.47796898385,-6.909933283715,-3.786422422428333,70.55416666666669,-17.875083333333336,-14.958416666666682,0.31966666666666665,0.3618160000000001,-0.025036666666666662,16.5,False
6.386197566986084,-19.5996099166,8.5938223679,-11.404192511599998,1.61,-84.45500000000001,84.03500000000001,5.614020443931666,-6.354459457313333,-4.355754679721667,70.195125,-20.524291666666674,-10.12870833333337,0.321888,0.3665293333333334,-0.025036666666666662,16.5,False
6.402809381484985,-19.5996099166,1.33579321645,-8.7062850301,-12.145000000000001,-20.8775,91.28000000000002,4.783152676458333,-6.2818173512149995,-4.801278307653333,67.26037500000001,-21.734416666666675,-6.184208333333356,0.324156,0.3702440000000001,-0.024933999999999998,15.5,False
6.419178485870361,-19.5996099166,3.6185459768499992,-5.54357175855,10.42125,-48.230000000000004,19.41625,3.9876388629,-6.098088455911666,-5.193661333676667,65.12945833333333,-22.520750000000007,-2.545666666666684,0.3265079999999999,0.3733986666666667,-0.024994666666666665,16.5,False
6.4358296394348145,-19.5996099166,4.210769570349999,1.88853523705,-3.6400000000000006,-74.935,-34.1075,3.215654471574999,-5.880800223643334,-5.371268591161667,62.878375,-25.23995833333334,-1.7071250000000229,0.32876666666666665,0.3759373333333334,-0.024994666666666665,15.5,False
6.452232599258423,-11.353943237,3.45463762875,8.0111700648,-30.861250000000002,-80.49125000000001,-74.9525,2.528236418971666,-5.640381372908334,-5.298008339225,59.54054166666666,-28.438666666666673,-2.292208333333351,0.33118400000000003,0.37777599999999995,-0.025162666666666663,16.5,False
6.472041606903076,-1.8029918290999998,-1.3256237203999999,12.27697455495,-80.59625000000001,-62.11625000000001,-106.89000000000001,2.1840089477733327,-5.539623601260001,-5.025386084331667,53.769916666666674,-30.943791666666677,-3.670625000000027,0.33305066666666666,0.37967999999999996,-0.025783333333333328,16.5,False
6.48856258392334,3.5874392830499997,-4.1718862031,13.13480145705,-45.167500000000004,-46.05125,-113.67125000000001,2.1014964484499994,-5.582973570696667,-4.688596303381667,47.42091666666668,-32.76758333333334,-5.225500000000009,0.33487066666666665,0.380968,-0.025783333333333328,16.5,False
6.505046606063843,7.235895542399999,-6.967301205549999,12.212368344749999,-3.31625,-26.048750000000002,-115.03625000000001,2.132084697353333,-5.736871944253334,-4.358087681756667,42.29487499999998,-34.453416666666676,-6.559874999999997,0.3361026666666667,0.38144399999999995,-0.02575533333333333,15.5,False
6.534919500350952,11.198409768,-8.6392859973,8.8953180155,-5.5475,16.58125,-101.22000000000001,2.201835476143333,-5.995017622416667,-4.054199211556667,37.56345833333334,-36.08354166666667,-6.760249999999997,0.33691466666666675,0.38210666666666665,-0.026207999999999995,15.5,False
6.561947822570801,13.2825582526,-7.716852884999999,4.96690151195,35.95375000000001,37.782500000000006,-80.465,2.3824935824433324,-6.230192203620001,-3.88618318466,32.98254166666665,-36.29820833333334,-5.3051249999999985,0.33751200000000003,0.3821813333333333,-0.026282666666666663,16.5,False
6.583004474639893,12.3015009866,-6.53300390365,2.6398815334499997,30.126250000000002,39.515,-61.416250000000005,2.5957738368566665,-6.376333843914998,-3.8615969324450004,28.845833333333324,-36.83283333333335,-2.5716250000000036,0.33796000000000004,0.38288133333333335,-0.02649266666666666,15.5,False
6.606410503387451,12.029317415849999,-4.07916432735,1.6199409001999998,4.4625,36.09375,-63.227500000000006,2.8081767229833328,-6.438088607183332,-3.884049584508334,24.0135,-38.34833333333333,0.8233749999999974,0.33870666666666677,0.382256,-0.02583933333333333,15.5,False
6.631673574447632,12.265608647599997,-4.1982072517,1.2041879734499998,25.742500000000003,24.185000000000002,-81.53250000000001,2.9914669341433324,-6.412605046493332,-3.864069515798334,17.70066666666667,-40.832166666666666,4.056791666666668,0.3392013333333334,0.3807813333333333,-0.025671333333333327,15.5,False
6.658132553100586,11.808579530999998,-3.6574293440999996,1.8293128776999996,35.77875,-18.9875,-72.0125,3.128057224226666,-6.39027203556,-3.802753436673334,11.521125000000003,-44.95166666666666,7.66966666666666,0.3398546666666667,0.3797453333333333,-0.025367999999999995,15.5,False
6.682909727096558,9.655039190999998,-3.3655049868999996,3.8189448695999997,-29.618750000000002,-17.01875,-84.30625,3.1583862506816662,-6.327061638543332,-3.6370903519999995,4.134083333333339,-50.07858333333332,10.940416666666655,0.3406106666666667,0.377916,-0.025549999999999996,16.5,False
6.700043678283691,9.4085784632,-2.6608187311999996,3.8907295475999994,-24.78,-4.85625,-100.4325,3.1709286291433325,-6.1947385487633335,-3.4336206702466674,-2.877000000000001,-55.421333333333315,13.603333333333337,0.34103999999999995,0.37487333333333334,-0.025535999999999996,15.5,False
6.7167134284973145,9.0783689444,-3.1926235540500003,3.1357940173,35.323750000000004,8.3125,-110.57375,3.1643284268049996,-6.02895582296,-3.1830323234616666,-8.15558333333333,-60.02995833333332,15.64850000000001,0.34146933333333335,0.3718306666666667,-0.025535999999999996,15.5,False
6.733121633529663,8.54895694415,-4.021138379299999,1.6995022516499998,99.96875000000001,21.21,-109.13875000000002,3.0831519200999993,-5.816014551748333,-2.9361727918950007,-11.25745833333333,-63.238583333333324,17.425041666666672,0.34207599999999994,0.368032,-0.02538666666666666,16.5,False
6.749741554260254,8.333004704499999,-4.4733818507,0.31824540579999994,128.9225,22.207500000000003,-101.37750000000001,2.908156827286667,-5.555994495881666,-2.767259456523334,-11.64508333333333,-65.31058333333334,18.416125000000005,0.34321466666666667,0.3635146666666667,-0.02538666666666666,16.5,False
6.766405820846558,8.438887104549998,-4.31605376475,0.31405796625,90.0725,1.4262500000000002,-101.51750000000001,2.556132742450001,-5.249394160068333,-2.593500655386666,-11.207583333333327,-67.6235,18.589666666666663,0.34386799999999995,0.3597720000000001,-0.024868666666666664,16.5,False
6.783353567123413,8.260621820849998,-4.3932222936,1.8951154991999999,34.151250000000005,-9.336250000000001,-118.54500000000002,2.1841485290916665,-4.799204528066666,-2.274597223371666,-10.959083333333323,-68.73212500000001,17.826083333333315,0.344736,0.3563653333333334,-0.024621333333333332,15.5,False
6.799933671951294,8.02253597215,-4.963312278049999,3.2488548851499996,16.563750000000002,0.4025,-122.46500000000002,1.802951948723333,-4.303292044216667,-1.8567904572233336,-13.203458333333321,-66.25558333333335,16.458749999999974,0.34609866666666667,0.3526506666666668,-0.024621333333333332,15.5,False
6.8164427280426025,7.961518995849999,-5.35573518445,3.5599218231499994,39.5675,22.163750000000004,-120.21625000000002,1.4167703212716658,-3.823650754046666,-1.3156536262333334,-17.646124999999987,-62.458666666666666,11.939083333333313,0.34691999999999995,0.34940266666666686,-0.024112666666666668,15.5,False
6.832928657531738,7.701299538099999,-6.2709898289499995,2.9425735923499996,79.07375,45.456250000000004,-116.50625000000001,1.0228718409350002,-3.3612776669733333,-0.5501497961166664,-17.35912499999998,-57.477291666666666,1.9573750000000028,0.3471626666666666,0.3467240000000001,-0.024444,16.5,False
6.8496317863464355,7.9609207902,-7.477570624999999,1.471585899,95.62,53.261250000000004,-104.09,0.6330212188300001,-2.936252552648333,0.17262221040166714,-10.320333333333327,-48.091166666666666,-11.27320833333332,0.3474053333333334,0.34404533333333337,-0.024444,15.5,False
6.86620569229126,7.8209406681,-8.038687524699998,0.76630143765,79.38000000000001,41.60625,-97.06375000000001,0.5882554960216667,-2.541137720823333,0.8560522253383329,-3.220291666666656,-36.924708333333335,-24.13483333333333,0.34622,0.34231866666666666,-0.023776666666666668,16.5,False
6.88284969329834,7.66121975955,-8.82173872055,0.8207381517999999,47.98500000000001,32.3575,-100.03000000000002,0.9487342207116666,-2.168814524263333,1.5357733652449994,3.3623333333333463,-26.180000000000007,-36.964375,0.34208533333333346,0.3428693333333333,-0.023254,15.5,False
6.899402856826782,7.737191877099999,-9.900303507499999,1.2699905949499997,31.255000000000003,27.282500000000002,-97.09,1.838465424145,-1.967338861343333,2.040678874033333,12.255833333333337,-15.644416666666665,-49.86420833333333,0.3379506666666668,0.34341999999999995,-0.023254,15.5,False
6.916144609451294,8.12183811005,-10.907681822099999,1.7102699533499999,48.8425,33.53875,-81.31375000000001,2.7571896614149995,-2.6904099706866664,2.0008184375549996,21.159541666666673,-5.1225416666666685,-62.45254166666667,0.3322853333333334,0.3467519999999999,-0.023403333333333335,15.5,False
6.93271279335022,8.08355294845,-11.461620254,1.4847464232999996,81.78625000000001,42.79625,-62.67625,3.6788052259933335,-3.7174094306066654,2.2908883572399996,26.908291666666674,-1.5125833333333367,-74.41670833333335,0.3258920000000002,0.3532293333333333,-0.022978666666666668,15.5,False
6.949401617050171,8.062017545049999,-11.2534446878,0.45523449964999996,111.48375000000001,49.63,-45.13250000000001,4.603770742211666,-4.641357997219999,2.755235522958333,29.169875000000005,2.8971250000000004,-80.57495833333336,0.3194986666666668,0.3597066666666666,-0.022978666666666668,15.5,False
6.96599268913269,7.9669028467,-11.4891377139,-0.9098707936499998,110.02250000000001,44.8875,-35.665000000000006,5.522195876656667,-5.051866654438333,3.063231671955,33.90129166666667,6.085625000000003,-84.53725000000001,0.3129280000000001,0.3673599999999999,-0.022418666666666667,15.5,False
6.983461618423462,7.709076211549999,-11.547761867599998,-1.02352986715,61.66125,22.933750000000003,-28.043750000000003,6.437570162286668,-5.5437512202449994,3.292563777976667,36.61408333333334,8.013541666666667,-87.67237500000003,0.30647866666666673,0.3758439999999999,-0.021700000000000004,15.5,False
7.000166654586792,7.51047193575,-10.872387688749997,-0.29970103065,8.7675,11.235000000000001,-19.9675,7.346822810098333,-6.035875068311666,3.3270603037933335,37.50016666666667,10.740333333333334,-88.01537500000002,0.3000293333333334,0.3843279999999999,-0.021700000000000004,15.5,False
7.016809701919556,7.26999326445,-10.12104139235,0.29371897415,-16.3625,8.575000000000001,-15.531250000000002,8.146563943583333,-6.552106604073333,3.1650662137733336,37.687416666666664,13.667208333333333,-86.71133333333336,0.29367333333333334,0.39285866666666663,-0.021569333333333336,16.5,False
7.033358573913574,6.798009006599999,-9.855438083749998,0.6065805290999999,-15.986250000000002,8.697500000000002,-3.3950000000000005,8.584171316746668,-6.935456724781667,2.8319653676650005,39.350208333333335,16.301833333333335,-83.79058333333336,0.28786799999999996,0.40132399999999996,-0.021322000000000004,16.5,False
7.050200939178467,6.668796586199999,-8.86600593865,0.47437708045,-3.9112500000000003,8.225000000000001,8.321250000000001,8.759266110501667,-7.155536583416667,2.424926303216667,41.15941666666667,18.375875000000004,-79.90150000000003,0.2819226666666667,0.40975200000000006,-0.021322000000000004,15.5,False
7.069811820983887,6.0346985971999985,-8.33240649885,0.01734796385,10.395000000000001,2.7475,9.633750000000001,8.787521357369998,-7.239405015546666,2.009711761551666,42.04841666666667,19.674958333333333,-75.75691666666668,0.27656533333333333,0.4180680000000001,-0.021667333333333334,15.5,False
7.086292743682861,5.571089218449999,-8.14815915865,-0.41814574934999993,11.69875,-2.1787500000000004,18.462500000000002,8.695836371413332,-7.237510697654999,1.6200007207649993,42.3605,20.269083333333338,-71.71062500000001,0.27159066666666665,0.4260760000000002,-0.02171866666666667,15.5,False
7.102583885192871,5.210371211499999,-7.819744256799999,-0.46719861264999996,3.6750000000000003,-6.370000000000001,21.6475,8.465248033526667,-7.217730030828332,1.3545569336716663,41.920958333333346,18.90058333333333,-68.05983333333333,0.26672799999999997,0.43387866666666686,-0.02171866666666667,15.5,False
7.11925482749939,4.743172598849999,-7.307082014749999,-0.44446679795,-23.896250000000002,-4.742500000000001,21.13125,8.209076434008333,-7.219265425329999,1.2192428156416666,40.31241666666667,17.320333333333334,-64.99091666666666,0.26209866666666665,0.44099066666666686,-0.021728000000000004,16.5,False
7.135795831680298,4.67258433215,-6.798009006599999,-0.7716852885,-45.79750000000001,-8.0325,20.88625,7.961279713589999,-7.264230550021665,1.1312467645266662,38.32150000000001,15.921791666666667,-62.280750000000005,0.25742266666666663,0.44767333333333353,-0.021728000000000004,15.5,False
7.1523277759552,4.680959211249999,-6.731608179449999,-0.3565305674,-55.09875,-20.755000000000003,19.845000000000002,7.705307515954998,-7.380840771394999,1.0575079480699998,36.292666666666676,14.41970833333333,-58.928916666666666,0.2531853333333333,0.4541600000000002,-0.021518000000000002,16.5,False
7.16870379447937,4.506283161449999,-6.835695962549999,0.5545366375499999,-62.32625000000001,-21.883750000000003,11.655000000000001,7.434081074244997,-7.465407110116666,1.0284152132916666,32.79500000000001,13.752666666666665,-56.00758333333332,0.24874266666666667,0.46010533333333353,-0.021373333333333338,16.5,False
7.185454845428467,4.471587233749999,-6.930212455249999,0.8907282128499999,-66.42125,-16.00375,4.45375,7.257989271073329,-7.562097083344998,0.9381260405183335,30.876416666666675,13.818583333333331,-53.07837500000001,0.24457066666666671,0.46554666666666683,-0.021373333333333338,15.5,False
7.202324867248535,4.825724978549999,-7.3184479221,1.0055836976499999,-62.09875,-8.12875,-4.9,7.097610336308331,-7.707142013281666,0.8333602910149999,29.830791666666677,13.758791666666665,-50.068083333333334,0.24096800000000004,0.47012000000000015,-0.02182133333333334,15.5,False
7.2189507484436035,5.3347979867,-7.659425142599999,0.65024954155,-65.33625,3.7275000000000005,-17.49125,6.952106782039997,-7.857132109924999,0.7406583554533331,27.791750000000015,13.628416666666665,-46.838166666666666,0.23722533333333334,0.4747493333333334,-0.022288000000000006,15.5,False
7.235574960708618,6.2679988007,-8.6775711589,0.3026920589,-91.1225,8.505,-24.255000000000003,6.8585075380033285,-8.003592793233333,0.6688337970766665,22.869875000000015,13.359791666666665,-43.915958333333336,0.23370666666666667,0.4792480000000001,-0.022288000000000006,15.5,False
7.252604722976685,6.891329088,-9.080761767,0.024526431649999996,-124.62625000000001,-0.9800000000000001,-29.400000000000002,6.790391854656663,-8.151449289724999,0.6439484420366666,15.136333333333338,12.725124999999995,-41.265875,0.23033733333333334,0.483364,-0.02296,16.5,False
7.268983840942383,7.28913584525,-9.251250377249999,0.27936203854999997,-174.47500000000002,-20.965000000000003,-37.52,6.745426729964996,-8.306344672698334,0.6415954998133331,6.424541666666667,12.006749999999995,-39.144875,0.22732266666666667,0.4865373333333334,-0.023739333333333335,15.5,False
7.285651683807373,7.13360237625,-9.1609213241,1.47218410465,-238.46375000000003,-34.62375,-35.096250000000005,6.705027908401663,-8.475636871648332,0.6329414580766665,-2.499291666666671,11.269416666666663,-36.684083333333334,0.22449466666666665,0.48902000000000007,-0.023739333333333335,15.5,False
7.302114963531494,7.3603223176,-7.846663511049999,2.60877483965,-268.58125,-45.377500000000005,-33.67,6.674300078179996,-8.605886181841665,0.6115855163716666,-11.841375000000005,10.11470833333333,-33.74904166666666,0.22140533333333334,0.4905973333333334,-0.024644666666666662,15.5,False
7.318702936172485,7.75932548615,-5.57228562975,3.6340993237499997,-264.19750000000005,-55.02,-54.74875000000001,6.661478537081664,-8.647301953009999,0.6005187118466665,-21.667625000000005,7.988166666666662,-31.046166666666668,0.21852133333333337,0.49036399999999997,-0.02589533333333333,16.5,False
7.33539891242981,6.487540274249999,-6.141179202899999,4.46081953205,-234.90250000000003,-66.35125000000001,-90.77250000000001,6.654898274931664,-8.631409622908333,0.6177270943783333,-32.05591666666667,4.859749999999996,-29.710916666666666,0.21626266666666671,0.4894213333333334,-0.02589533333333333,16.5,False
7.3520448207855225,4.854438849749999,-8.231309743999999,5.7631132321,-199.5525,-69.64125000000001,-77.13125000000001,6.5712491848733325,-8.658966963185,0.724845786105,-42.432833333333335,0.7355833333333275,-28.985541666666673,0.21348133333333338,0.48746133333333336,-0.026912666666666658,15.5,False
7.368535995483398,3.18305226365,-9.364909450749998,7.21136911075,-160.2125,-61.285000000000004,-27.58875,6.440920113926665,-8.701658906406665,0.9091728870583334,-51.5095,-3.0969166666666705,-27.201416666666674,0.21042000000000008,0.484064,-0.027295333333333328,15.5,False
7.385195732116699,2.9599215562,-8.8354974505,7.95075129415,-136.8325,-42.28,3.1412500000000003,6.2775302107233335,-8.736414654671666,1.1394222417433333,-58.55558333333334,-6.059666666666669,-24.313041666666674,0.20783466666666672,0.4803773333333334,-0.027295333333333328,15.5,False
