time,accX,accY,accZ,gyroX,gyroY,gyroZ,temp
1607124644.0647252,-1.1005189343050001,-0.13958131833333332,9.391988226506669,-6.5473333333333334,-7.037624999999998,5.673208333333332,0.09639466666666664,-0.18991466666666668,-0.11308266666666669,17.5,False
1607124644.0731921,-0.9144969173433334,-0.16923237838499997,9.923812989545002,-0.6159999999999999,0.21320833333333328,11.778958333333337,0.09600266666666665,-0.1895413333333333,-0.11308266666666669,17.5,False
1607124644.0815752,-0.9103294179816667,-0.143748817695,9.92319484370667,-0.008458333333333175,-0.06445833333333326,10.720208333333336,0.09568533333333333,-0.18913066666666667,-0.11278866666666669,17.5,False
1607124644.0899472,-0.9021340005766667,-0.085363946255,9.929137019829998,0.267166666666667,0.0061250000000000245,9.800291666666665,0.09524666666666666,-0.18885066666666664,-0.11278866666666669,17.5,False
1607124644.098497,-0.9662018256916667,-0.08438687702666667,9.932806014483333,0.07845833333333348,-0.12191666666666665,8.834291666666667,0.09480799999999999,-0.18857066666666664,-0.11278866666666669,17.5,False
1607124644.106747,-1.0492925904766668,-0.05543372356666665,9.929137019829998,-0.23683333333333323,-0.26483333333333337,6.691125000000001,0.09446266666666665,-0.1884213333333333,-0.11286800000000002,17.5,False
1607124644.118036,-1.0313065406,-0.07070790782999999,9.930413191883332,-0.7046666666666663,-0.5107083333333334,4.445291666666668,0.09411733333333333,-0.18827199999999997,-0.11286800000000002,17.5,False
1607124644.1263807,-1.0149954665433334,-0.04709872484333336,9.94385287882,-0.5422083333333331,-0.40425000000000005,2.21725,0.093772,-0.18812266666666663,-0.11286800000000002,17.5,False
1607124644.1346989,-1.0282158114083333,-0.036011980130000024,9.955836932008333,0.09595833333333334,0.07787499999999999,-0.23974999999999985,0.09382800000000001,-0.1880013333333333,-0.11301266666666669,17.5,False
1607124644.1430748,-1.0492327699116664,-0.015433705770000002,9.953145006583332,0.8709166666666669,0.5696250000000002,-3.055208333333333,0.09388400000000001,-0.18787999999999996,-0.11301266666666669,17.5,False
1607124644.1513896,-1.0569496227966664,-0.008354938911666684,9.957571728393335,1.6604583333333334,0.9683333333333334,-6.115083333333335,0.09394000000000001,-0.18775866666666668,-0.11301266666666669,17.5,False
1607124644.1598628,-1.0317053443666664,0.0005383850849999871,9.970074226478333,2.4164583333333334,1.3253333333333335,-9.154250000000001,0.09474266666666668,-0.18733866666666668,-0.11323200000000003,17.5,False
1607124644.1681607,-1.0106485054866663,-0.010588240005000036,9.987860874471666,3.0426666666666673,1.7374583333333335,-12.132750000000003,0.09534000000000002,-0.1866946666666667,-0.11323200000000003,17.5,False
1607124644.1764326,-0.9708279493849996,-0.03264208830166669,10.008319507701666,3.7152500000000006,2.118375,-15.113583333333336,0.09593733333333336,-0.1860506666666667,-0.11323200000000003,17.5,False
1607124644.1847117,-0.965643500418333,-0.08703892207500001,10.031809049558332,4.473875000000001,2.6515416666666667,-18.160625000000003,0.09696400000000004,-0.18530400000000005,-0.11310600000000003,17.5,False
1607124644.1931725,-1.007438135165,-0.11409775764333335,10.042098186738333,5.4217916666666675,3.549875,-21.438375000000004,0.0979906666666667,-0.1845573333333334,-0.11310600000000003,17.5,False
1607124644.2015114,-1.0712666780199995,-0.14658032443833324,10.037511943421665,6.302041666666668,4.70575,-25.109,0.09923200000000003,-0.18392266666666673,-0.11310600000000003,17.5,False
1607124644.2099133,-1.058544837863333,-0.1776670780499999,10.030173954114998,6.968208333333334,5.807958333333334,-28.74754166666667,0.10104266666666668,-0.18321333333333337,-0.1133626666666667,17.5,False
1607124644.2183375,-0.9594819822233333,-0.221276269935,10.043115136343335,7.778750000000001,6.870500000000002,-32.13991666666667,0.10285333333333332,-0.18250400000000003,-0.1133626666666667,17.5,False
1607124644.2266042,-0.8650452502766665,-0.2906880655233333,10.142915778951668,8.850625,8.183291666666667,-35.486791666666676,0.10466400000000001,-0.18179466666666666,-0.1133626666666667,17.5,False
1607124644.2348194,-0.8216952808399999,-0.37702908100666654,10.281440267303333,10.397625000000003,9.580375,-38.71029166666667,0.10689466666666665,-0.18085199999999998,-0.11344200000000003,17.5,False
1607124644.2433105,-0.8151947794433331,-0.4325226251383333,10.411869039191664,12.440458333333336,10.712916666666668,-42.067375000000006,0.10912533333333332,-0.17990933333333334,-0.11344200000000003,17.5,False
1607124644.2514782,-0.8143174111566664,-0.4637689002566665,10.517432396228331,15.00741666666667,11.227125000000001,-45.63883333333334,0.11135599999999998,-0.1789666666666667,-0.11344200000000003,17.5,False
1607124644.2596922,-0.7953542920516664,-0.4617748814233332,10.616515192056664,18.116000000000003,11.02675,-49.53345833333333,0.11358666666666664,-0.17739866666666668,-0.11412800000000003,17.5,False
1607124644.268047,-0.7348956410249998,-0.48486561951333323,10.735458415464997,21.345333333333333,10.413083333333335,-53.45025,0.11631199999999997,-0.17583066666666666,-0.11412800000000003,17.5,False
1607124644.2763093,-0.762911605633333,-0.37962130549,10.910493388654997,24.781458333333337,9.384083333333335,-56.26454166666667,0.1192613333333333,-0.17452399999999998,-0.11412800000000003,17.5,False
1607124644.28462,-0.7706683388949999,-0.38512479746999995,11.021659938613332,27.98366666666667,7.911166666666667,-57.07391666666667,0.12221066666666665,-0.17321733333333336,-0.11412800000000003,17.5,False
1607124644.2929862,-0.7363113943966665,-0.391405956795,11.120383811051664,30.71891666666667,4.978458333333333,-57.237833333333334,0.12487999999999996,-0.17126666666666665,-0.1143846666666667,17.5,False
1607124644.3013701,-0.7348158802716667,-0.38556348161333337,11.183055822983333,33.226083333333335,1.2608749999999995,-57.258541666666666,0.12754933333333332,-0.16931600000000005,-0.1143846666666667,17.5,False
1607124644.30961,-0.6977869505366667,-0.4577669035683333,11.200862411164998,36.02316666666666,-1.879500000000001,-56.62854166666668,0.13010666666666665,-0.16718800000000003,-0.1143846666666667,17.5,False
1607124644.317947,-0.6427320905483334,-0.5601996510366667,11.173384831641664,39.07895833333334,-4.149833333333334,-55.828500000000005,0.13162799999999997,-0.16440666666666673,-0.11464133333333336,17.5,False
1607124644.3262668,-0.6171687691050001,-0.6610571236266666,11.085049797325,42.21641666666667,-5.663000000000001,-55.29825000000001,0.13314933333333331,-0.16162533333333337,-0.11464133333333336,17.5,False
1607124644.3345287,-0.632482833745,-0.7209973297566666,10.994162418901668,45.69804166666666,-6.167875,-55.21308333333334,0.134596,-0.15888133333333335,-0.11464133333333336,17.5,False
1607124644.3428047,-0.6506483453166666,-0.8342974798666665,10.943015835826666,49.73033333333333,-5.896916666666668,-55.302041666666675,0.13594000000000003,-0.15490533333333334,-0.11473933333333336,17.5,False
1607124644.351218,-0.547657272575,-0.8662217213883333,10.949117533456667,53.78683333333333,-5.174166666666668,-55.37000000000001,0.13728400000000002,-0.1509293333333333,-0.11473933333333336,17.5,False
1607124644.3595748,-0.4139782499883333,-0.9481958356266665,10.994601103045,56.63670833333334,-4.4502500000000005,-53.673083333333345,0.1385346666666667,-0.14682266666666663,-0.11473933333333336,17.5,False
1607124644.3679006,-0.49395834539333333,-0.9807182827983333,10.983893221910002,58.447374999999994,-3.7178750000000007,-51.825666666666685,0.1398226666666667,-0.142072,-0.1153926666666667,17.5,False
1607124644.3762877,-0.57439706513,-1.0515458317583333,10.93356418655667,59.99058333333333,-3.707958333333333,-50.12670833333335,0.14111066666666666,-0.13732133333333332,-0.1153926666666667,17.5,False
1607124644.3845665,-0.5698108218133334,-1.148096223668333,10.8945212978,61.513083333333334,-4.671916666666667,-48.27783333333334,0.14219333333333334,-0.13264533333333334,-0.1153926666666667,17.5,False
1607124644.3930595,-0.5293322394966666,-1.2764512159699999,10.89523914458,63.23975,-5.9701249999999995,-45.776791666666675,0.14286533333333334,-0.127344,-0.11527600000000003,17.5,False
1607124644.4014456,-0.5320042247333333,-1.4094522721533334,10.928898182486668,65.22366666666667,-7.310041666666666,-42.71575000000001,0.14353733333333332,-0.12204266666666669,-0.11527600000000003,17.5,False
1607124644.4103575,-0.5727220893099999,-1.5687943171249998,10.992587144023334,67.78450000000001,-8.766333333333334,-39.394250000000014,0.14346266666666668,-0.11704000000000002,-0.11527600000000003,17.5,False
1607124644.4185824,-0.6189833262433332,-1.7234105374616666,11.066325960479999,71.13079166666667,-10.605875,-35.90416666666668,0.14347200000000002,-0.11150533333333336,-0.11549533333333335,17.5,False
1607124644.4268665,-0.7379664300283333,-1.8373886539749997,11.133963079306666,74.98429166666666,-12.904208333333335,-32.42458333333334,0.14348133333333338,-0.1059706666666667,-0.11549533333333335,17.5,False
1607124644.4352393,-0.8224928883733332,-1.9226329590999998,11.172746745615001,79.223375,-15.895833333333334,-29.26904166666667,0.14306133333333335,-0.10053866666666672,-0.11549533333333335,17.5,False
1607124644.4434893,-0.8204988695399998,-2.013978961855,11.182158514508334,83.42308333333334,-19.53904166666667,-26.45154166666667,0.141904,-0.09361333333333341,-0.1154206666666667,17.5,False
1607124644.4517703,-0.81463645417,-2.089073711118333,11.185269183888332,87.83162500000002,-23.465750000000007,-23.791541666666667,0.1407466666666667,-0.08668800000000008,-0.1154206666666667,17.5,False
1607124644.4601362,-0.9430512670366668,-2.1663618810983327,11.119566263329997,93.22862500000001,-27.919791666666676,-22.000125,0.13901999999999998,-0.0798373333333334,-0.1154206666666667,17.5,False
1607124644.4684253,-1.0742975866466666,-2.3245075147699996,11.008100610546666,99.67358333333335,-33.962250000000004,-20.866708333333335,0.13640666666666665,-0.07182000000000005,-0.11580333333333336,17.5,False
1607124644.4767761,-1.1512068930483332,-2.4381665882699997,10.884232160619998,104.39945833333334,-40.76420833333335,-19.65775,0.1337933333333333,-0.06380266666666672,-0.11580333333333336,17.5,False
1607124644.4851112,-1.2725429390566665,-2.557987179964999,10.664571045939997,109.54300000000002,-48.27054166666668,-17.906875,0.13095599999999996,-0.05618666666666669,-0.11580333333333336,17.5,False
1607124644.493529,-1.3545569336716665,-2.6905296118166655,10.482576947021666,114.24233333333333,-55.85737500000002,-15.698083333333326,0.12699866666666662,-0.04708666666666669,-0.11537400000000003,17.5,False
1607124644.501872,-1.39669055162,-2.827638346796666,10.303733397859999,118.39479166666668,-62.99154166666668,-12.814375000000002,0.1230413333333333,-0.037986666666666696,-0.11537400000000003,17.5,False
1607124644.51007,-1.4491731273133335,-2.983770021446666,10.093384351131666,121.73204166666666,-69.38837500000002,-9.325458333333335,0.11908399999999997,-0.029512000000000028,-0.11537400000000003,17.5,False
1607124644.5219011,-1.5187045640316665,-3.1281569251683323,9.779904650343331,124.46000000000001,-75.46058333333335,-5.379500000000002,0.11291466666666664,-0.019254666666666687,-0.1144686666666667,17.5,False
1607124644.5374458,-1.6179269411783335,-3.1413373896566665,9.43749173628333,126.48358333333334,-81.07633333333335,-2.018916666666672,0.1067453333333333,-0.008997333333333347,-0.1144686666666667,17.5,False
1607124644.55016,-1.7118452282283334,-3.258525876491666,9.131230383671666,128.5990416666667,-86.375625,0.895125,0.09952133333333331,0.0024079999999999887,-0.11437533333333336,17.5,False
1607124644.5689588,-1.8619150856250002,-3.467678511919999,8.858608128778334,131.4016666666667,-90.76783333333334,4.19475,0.0925773333333333,0.013169333333333335,-0.11437533333333336,17.5,False
1607124644.5815568,-1.9834505335166668,-3.6657244624466663,8.562855255418333,134.52075000000002,-95.08187500000001,7.902416666666667,0.08429866666666662,0.025116000000000006,-0.1133486666666667,17.5,False
1607124644.5916147,-2.127398753095,-3.771826204568333,8.289654735063332,137.20612500000004,-100.35054166666669,11.323666666666668,0.07601999999999996,0.037062666666666674,-0.1133486666666667,17.5,False
1607124644.6116257,-2.3006191691466666,-3.9018362325016662,8.088916859111666,139.19354166666668,-106.29062500000002,14.548916666666672,0.0676573333333333,0.049746666666666675,-0.1117666666666667,17.5,False
1607124644.6203656,-2.457329109258333,-4.099702721333333,8.007959694478332,140.9269166666667,-112.074375,18.182208333333335,0.05929466666666664,0.06243066666666667,-0.11057200000000003,17.5,False
1607124644.6339736,-2.573042022156667,-4.365505431816667,7.957790180631664,142.19158333333337,-118.38195833333333,22.193208333333335,0.0499613333333333,0.07624399999999999,-0.11054866666666668,17.5,False
1607124644.6476123,-2.6812973046183335,-4.574797648563333,7.834161012964998,142.96129166666668,-125.34695833333332,26.26954166666667,0.04004933333333331,0.089908,-0.10908333333333337,17.5,False
1607124644.6586142,-2.8414369571233338,-4.797948296201667,7.579724209831666,143.822875,-132.94691666666665,30.29366666666667,0.030137333333333342,0.10357199999999998,-0.10908333333333337,17.5,False
1607124644.6776214,-3.0347172026383338,-4.998087966503332,7.258647297288332,144.0769166666667,-139.68179166666667,34.097875,0.019656,0.11804799999999999,-0.10788400000000002,17.5,False
1607124644.6858232,-3.1034111514466662,-5.267619492204999,6.915157613058333,144.96620833333336,-145.44833333333332,37.97733333333334,0.00913733333333333,0.13188,-0.10788400000000002,17.5,False
1607124644.6942203,-3.132065202081667,-5.534419212104998,6.663971060623331,145.23308333333335,-150.0044583333333,42.13591666666667,-0.0013813333333333362,0.145712,-0.10788400000000002,17.5,False
1607124644.7025461,-3.204228743659999,-5.800780247861666,6.428856299985,144.98808333333335,-153.1063333333333,46.18541666666667,-0.011629333333333344,0.15988933333333336,-0.10716066666666668,17.5,False
1607124644.710839,-3.311088212938332,-6.062834202938332,6.188477329626665,144.81716666666668,-155.7855833333333,49.616,-0.021466666666666676,0.17344133333333336,-0.10716066666666668,17.5,False
1607124644.7190793,-3.418007502781666,-6.245944952403333,5.8934024226699995,144.0570833333334,-158.04745833333334,52.53295833333333,-0.03130400000000001,0.1869933333333334,-0.10716066666666668,17.5,False
1607124644.7273872,-3.5150165190233325,-6.415237151353333,5.509194873863334,142.63345833333332,-159.82312499999998,55.09845833333334,-0.04144933333333333,0.20124533333333341,-0.10607333333333334,17.5,False
1607124644.735787,-3.6242488707133322,-6.572206313913332,5.097569566098333,139.91220833333335,-161.07466666666667,57.48254166666667,-0.051678666666666664,0.21496533333333337,-0.10607333333333334,17.5,False
1607124644.7441988,-3.7087553888699984,-6.751548367783333,4.678885431663335,136.29583333333338,-161.70233333333334,60.05154166666668,-0.061908,0.2286853333333334,-0.10607333333333334,17.5,False
1607124645.752488,-3.844248968594999,-6.9853670161800006,4.309014878268334,132.28483333333335,-161.84525,62.914541666666665,-0.07166133333333334,0.24293733333333342,-0.10535000000000001,16.5,False
1607124645.7607288,-3.9854653823716655,-7.227859646501667,4.002813346221667,128.57162499999998,-161.92195833333335,65.71804166666668,-0.08067733333333334,0.2556960000000001,-0.10535000000000001,16.5,False
1607124644.769202,-4.041038687256666,-7.473881690158334,3.7177683539966666,125.18420833333332,-162.15120833333333,68.54370833333334,-0.08969333333333336,0.2684546666666668,-0.10535000000000001,17.5,False
1607124644.7775369,-3.9801612922749987,-7.69459963482,3.5020753367949995,121.05945833333334,-161.66383333333334,71.88504166666667,-0.09851333333333336,0.28154000000000007,-0.10505600000000001,17.5,False
1607124644.7858667,-3.939443427698333,-7.792166976334999,3.2994032625749994,115.55745833333334,-158.88658333333333,75.11583333333333,-0.10644666666666668,0.29345866666666676,-0.10505600000000001,17.5,False
1607124644.7944076,-3.8530027112733323,-7.913084278388333,3.0925038684283326,110.844125,-154.48241666666667,78.024625,-0.11438000000000001,0.3053773333333334,-0.10505600000000001,17.5,False
1607124644.8026006,-3.7753755580916657,-8.023832084391666,2.891825813041666,104.44116666666667,-148.70625,80.25966666666666,-0.12196800000000002,0.3175386666666667,-0.10464066666666667,17.5,False
1607124644.8107786,-3.7207992626233324,-8.147700534318334,2.6364717612449993,97.03749999999998,-142.541,81.93558333333334,-0.12843600000000002,0.328216,-0.10464066666666667,17.5,False
1607124644.8197775,-3.707539037381666,-8.169754382614999,2.43062919708,88.73870833333332,-136.79225000000002,83.117125,-0.13490400000000002,0.33889333333333327,-0.10464066666666667,17.5,False
1607124644.8282166,-3.7171502081583325,-8.256853125254999,2.2379072768383335,80.29962499999996,-131.00470833333335,83.79116666666667,-0.1409986666666667,0.35000933333333334,-0.10451,17.5,False
1607124644.8365057,-3.7059438223149996,-8.357371614643332,2.1005791997866665,72.14374999999997,-124.67000000000003,84.077875,-0.14537600000000003,0.3593426666666667,-0.10451,17.5,False
1607124644.8448167,-3.645425350723333,-8.557232122308333,1.99824615326,64.31949999999999,-118.29037500000003,84.99341666666666,-0.14975333333333338,0.368676,-0.10451,17.5,False
1607124644.8531656,-3.5544781517349993,-8.61148937476333,1.9082361431233332,56.32025,-111.83345833333335,85.761375,-0.1527026666666667,0.37669333333333344,-0.10552266666666668,17.5,False
1607124644.8615105,-3.328057313209999,-8.498787430303333,1.8345571472316669,48.29416666666666,-104.81887500000002,86.44008333333335,-0.155652,0.38471066666666676,-0.10552266666666668,17.5,False
1607124644.8697953,-3.093261595584999,-8.371927952126663,1.812622940065,41.08883333333334,-96.9144166666667,88.43420833333336,-0.15726666666666667,0.39154266666666687,-0.10552266666666668,17.5,False
1607124644.8782554,-2.8459833200633327,-8.393862159293331,1.822273991218333,35.014,-88.23033333333335,91.07758333333337,-0.15888133333333332,0.3983746666666669,-0.10552733333333335,17.5,False
1607124644.8864942,-2.6537997849066657,-8.422237047291665,1.8013567336566658,30.255750000000013,-79.94116666666667,93.65212500000001,-0.15878799999999996,0.40434800000000026,-0.10552733333333335,17.5,False
1607124644.8948133,-2.4972294261133325,-8.514340777203333,1.6654643501649995,26.88962500000001,-73.05608333333333,94.14591666666666,-0.1586946666666666,0.41032133333333365,-0.10552733333333335,17.5,False
1607124644.9031973,-2.3152353271949986,-8.577551174219998,1.5144772441049998,24.754333333333342,-67.00458333333333,92.182125,-0.1576306666666666,0.41516533333333355,-0.10552733333333335,17.5,False
1607124644.9114423,-2.1422541934033323,-8.652845325366664,1.398345587251667,23.452041666666673,-61.26808333333334,89.26399999999998,-0.1556986666666666,0.4192160000000003,-0.10491600000000001,17.5,False
1607124644.9195611,-1.986621023461666,-8.703114540154997,1.3646466689683334,21.76854166666668,-55.76083333333333,86.14637499999998,-0.15376666666666666,0.4232666666666669,-0.10491600000000001,17.5,False
1607124644.927896,-1.8384454839566664,-8.812905217118331,1.6445470926033332,19.86891666666667,-51.666125,82.69537499999998,-0.15126533333333333,0.4265053333333336,-0.10491600000000001,17.5,False
1607124644.936249,-1.6787644557833334,-8.838009914229998,1.7874185420116666,15.203416666666673,-48.52108333333334,79.19975,-0.14852133333333337,0.42989333333333357,-0.104496,17.5,False
1607124644.944534,-1.5538989964400003,-8.854221287345,1.7506288945366668,10.992625000000002,-46.12095833333333,75.83245833333334,-0.14577733333333331,0.4332813333333336,-0.104496,17.5,False
1607124644.9527879,-1.4515061293483338,-8.827142511588333,1.747657806475,8.339625000000003,-43.7955,72.98112499999999,-0.143304,0.43632400000000027,-0.104496,17.5,False
1607124644.961021,-1.3242279072166672,-8.752326924961666,1.73348033257,5.785208333333334,-41.376416666666664,70.38033333333333,-0.14070933333333333,0.43946000000000024,-0.10430933333333334,17.5,False
1607124644.969271,-1.1719048085383332,-8.736873279003333,1.7205989709066667,3.647583333333334,-39.24083333333335,67.769625,-0.13811466666666666,0.44259600000000016,-0.10430933333333334,17.5,False
1607124644.9776018,-1.0313464209766667,-8.707082637633334,1.7594823381566667,1.8240833333333335,-37.35345833333334,65.04925000000001,-0.13521200000000005,0.4450320000000002,-0.10430933333333334,17.5,False
1607124644.9997888,-0.8712865292249998,-8.669834365826667,1.7847664969633332,1.0021666666666686,-35.60433333333334,62.126166666666684,-0.13254266666666673,0.44730933333333345,-0.10465466666666666,17.5,False
1607124645.0081818,-0.6877769759933333,-8.673603061421668,1.7947166509416665,0.47220833333333384,-33.973333333333336,59.07475000000002,-0.12988266666666673,0.4496613333333334,-0.104328,17.5,False
1607124645.0165248,-0.4803790771383337,-8.658288996781668,1.7848661979049998,-0.38616666666666705,-32.666666666666664,55.78270833333336,-0.1276986666666667,0.4514813333333334,-0.104328,17.5,False
1607124645.0248597,-0.3044667356616669,-8.648039739978334,1.7299509192349996,-1.7972499999999987,-31.318,52.474041666666686,-0.1255146666666667,0.45330133333333333,-0.104328,17.5,False
1607124645.0333376,-0.21096719256666654,-8.683732677095001,1.665783393178333,-3.688416666666666,-29.67854166666667,49.20008333333335,-0.12348000000000002,0.4551213333333334,-0.1043,17.5,False
1607124645.0416198,-0.18289140739333326,-8.73727208277,1.5834902359266663,-5.792500000000002,-28.11608333333334,45.847083333333345,-0.12164133333333335,0.45661466666666667,-0.1043,17.5,False
1607124645.0499787,-0.16785650539,-8.806025852143332,1.4948959791616663,-7.807041666666668,-27.139583333333338,42.736458333333346,-0.1198026666666667,0.458108,-0.1043,17.5,False
1607124645.0583606,-0.2165703854883333,-8.880981020088333,1.3692727926616661,-8.9075,-27.15241666666667,39.55379166666668,-0.11796400000000003,0.4596013333333333,-0.1043,17.5,False
1607124645.0667284,-0.19998014879499995,-8.948019933264998,1.3011571093149996,-8.791708333333332,-28.146416666666667,36.56712500000002,-0.11654533333333336,0.46092666666666665,-0.10380533333333333,17.5,False
1607124645.0749664,-0.16542380241333332,-9.036055864756666,1.2521042460149994,-7.268916666666668,-29.487500000000004,33.85054166666667,-0.1151266666666667,0.462252,-0.10380533333333333,17.5,False
1607124645.0833504,-0.10011968562166668,-9.208119749884998,1.2241879823483328,-4.330958333333334,-29.875708333333332,31.210958333333338,-0.11370800000000002,0.46357733333333334,-0.10380533333333333,17.5,False
1607124645.0916402,0.006221338760000023,-9.27717262208333,1.2082557718699996,-1.5595416666666655,-29.931125,28.842624999999998,-0.11276533333333336,0.46431466666666665,-0.103726,17.5,False
1607124645.1000285,0.09122636162500006,-9.34815969255,1.1871590526133327,0.8219166666666669,-30.356083333333334,26.399625,-0.11182266666666668,0.465052,-0.103726,17.5,False
1607124645.1084304,0.14093725113999991,-9.421459824863332,1.1417153634016661,3.047041666666667,-30.91929166666667,23.477708333333332,-0.11088000000000003,0.4657893333333334,-0.103726,17.5,False
1607124645.1167243,0.1566501195466665,-9.517691173759998,1.0615558063016661,5.326416666666669,-31.679666666666677,20.170499999999997,-0.11041333333333335,0.4667226666666667,-0.10357666666666666,17.5,False
1607124645.1251252,0.07874380372833323,-9.736056176198332,0.9475976299766662,7.205916666666665,-32.99187500000001,15.760208333333333,-0.10994666666666669,0.46765599999999996,-0.10357666666666666,17.5,False
1607124645.13351,0.00019940188333336846,-10.026624600591665,0.8295317748549996,8.287999999999998,-34.44933333333334,9.548875000000002,-0.10948000000000002,0.4685893333333333,-0.10357666666666666,17.5,False
1607124645.141828,-0.06392824379666666,-10.17866853663333,0.7469993353433332,9.113708333333333,-34.956250000000004,3.195499999999998,-0.10948933333333334,0.4694013333333334,-0.10368400000000001,17.5,False
1607124645.150244,-0.08725826414666664,-10.312447260161663,0.6732206385099997,9.179333333333334,-34.51495833333334,-2.5354583333333336,-0.11008666666666667,0.46968133333333334,-0.10368400000000001,17.5,False
1607124645.158593,-0.1528016631983333,-10.322337593574998,0.6302096522749999,7.550958333333331,-33.58191666666668,-6.809833333333334,-0.11068399999999999,0.46996133333333334,-0.10368400000000001,17.5,False
1607124645.166949,-0.30927232104999997,-10.317950752141664,0.5424130030433332,5.402833333333333,-32.20204166666668,-7.795083333333335,-0.11115066666666665,0.47008266666666665,-0.10360933333333334,17.5,False
1607124645.175266,-0.44440697738499996,-10.326983657456667,0.4513461629249999,2.8312083333333335,-30.206750000000007,-7.983208333333335,-0.111804,0.46991466666666665,-0.10360933333333334,17.5,False
1607124645.1843138,-0.5424728236083334,-10.347661632758333,0.36536407083166667,0.5556250000000001,-27.638625,-8.200208333333334,-0.11245733333333333,0.4697466666666666,-0.10360933333333334,17.5,False
1607124645.192759,-0.5954738441983333,-10.307262811194999,0.019341982683333363,-0.2686250000000006,-24.655750000000005,-8.973125000000001,-0.11317599999999997,0.4693266666666666,-0.10343666666666666,17.5,False
1607124645.201058,-0.6771289154233333,-10.304072381061665,-0.10143573805166657,2.311166666666667,-21.58041666666667,-10.178875000000001,-0.11413733333333329,0.4687573333333333,-0.10343666666666666,17.5,False
1607124645.2093558,-0.79549387337,-10.276136177206665,-0.11595219515833328,5.212958333333334,-18.205250000000003,-11.968250000000001,-0.11509866666666663,0.468188,-0.10343666666666666,17.5,False
1607124645.2176857,-0.9068398850233332,-10.27515910797833,-0.18500506735666666,6.973166666666667,-15.050000000000004,-14.347375000000001,-0.11606933333333329,0.46752533333333335,-0.10330133333333333,17.5,False
1607124645.2262847,-0.9851848849849999,-10.331589840961664,-0.27672993368999993,8.182125000000001,-11.997125,-16.349958333333333,-0.11716133333333327,0.46676933333333337,-0.10330133333333333,17.5,False
1607124645.2345347,-1.047158990325,-10.404311707813331,-0.4234099590699999,10.311291666666667,-9.63870833333333,-17.38479166666667,-0.11825333333333328,0.46601333333333333,-0.10330133333333333,17.5,False
1607124645.2429266,-1.115354434425,-10.4697952863,-0.575772938125,13.22825,-7.842041666666665,-17.43904166666667,-0.11939199999999996,0.46522933333333333,-0.10353466666666668,17.5,False
1607124645.2513394,-1.2185847894266668,-10.502716537238333,-0.7288138835833332,17.21475,-6.201124999999997,-17.00329166666667,-0.1202973333333333,0.46460399999999996,-0.10353466666666668,17.5,False
1607124645.2595336,-1.35565364403,-10.595597934494998,-0.5664409299849998,19.68341666666667,-4.08158333333333,-16.731458333333332,-0.1211933333333333,0.463904,-0.10353466666666668,17.5,False
1607124645.2678137,-1.44538449153,-10.588160244246664,-0.5249653382516665,19.417125000000002,-1.8882499999999973,-16.32866666666667,-0.12211733333333333,0.4634373333333333,-0.10308666666666667,17.5,False
1607124645.2762766,-1.4930814220233335,-10.580622853056664,-0.5756333568066665,18.409416666666672,0.28174999999999906,-15.803958333333334,-0.12304133333333332,0.4629706666666667,-0.10308666666666667,17.5,False
1607124645.2845256,-1.557528110716667,-10.541221040909996,-0.6245865191649999,17.857000000000006,2.3275000000000015,-15.218875,-0.12381599999999998,0.46250399999999997,-0.10308666666666667,17.5,False
1607124645.2928524,-1.5820545423666668,-10.491609852336664,-0.6218746535516665,17.894625000000005,4.019166666666666,-14.395208333333333,-0.12434799999999999,0.46206533333333333,-0.10312866666666667,17.5,False
1607124645.3012655,-1.587458333405,-10.45025390173333,-0.5880959745149998,18.23354166666667,5.382999999999999,-13.500374999999998,-0.12488000000000002,0.4616266666666667,-0.10312866666666667,17.5,False
1607124645.3096704,-1.6321841758366666,-10.396235931538332,-0.5717849004583332,18.515,6.371749999999998,-12.723958333333332,-0.12541200000000002,0.4611880000000001,-0.10312866666666667,17.5,False
1607124645.3180392,-1.6893327556,-10.356714478261667,-0.5820341572616666,18.13554166666667,7.388791666666666,-11.966208333333334,-0.1257386666666667,0.46075866666666676,-0.10307733333333333,17.5,False
1607124645.3263342,-1.73706956647,-10.28806040983,-0.6018547044649998,17.073000000000004,8.818541666666668,-10.942749999999998,-0.12606533333333336,0.4603293333333334,-0.10307733333333333,17.5,False
1607124645.3346732,-1.8158333103866664,-10.238848025023335,-0.6746164516933332,15.692541666666667,9.860375000000003,-9.859208333333333,-0.12639200000000003,0.45990000000000014,-0.10307733333333333,17.5,False
1607124645.342874,-1.882632941303333,-10.232447224568336,-0.7288936443366665,15.017625000000002,10.520125000000002,-8.75875,-0.126616,0.45938666666666683,-0.103222,17.5,False
1607124645.3512774,-1.9378074424216662,-10.210014512693334,-0.7506085094316666,15.306958333333336,11.124166666666667,-7.615124999999998,-0.12684,0.4588733333333334,-0.103222,17.5,False
1607124645.3597062,-1.9639490293266664,-10.176814099118335,-0.7547560686049998,16.07025,11.703125,-6.295916666666665,-0.127064,0.4583600000000001,-0.103222,17.5,False
1607124645.3679233,-1.9717257027766664,-10.147502022268332,-0.772542716598333,17.105958333333334,12.655708333333333,-4.896499999999999,-0.12718533333333332,0.45810800000000007,-0.10296066666666667,17.5,False
1607124645.376425,-1.954417619303333,-10.086764208605,-0.7675576695149997,18.290125000000007,14.06941666666667,-3.1925833333333347,-0.12723199999999996,0.457856,-0.10296066666666667,17.5,False
1607124645.384871,-1.9626329768966666,-10.018728286011667,-0.7648458039016665,19.411875000000006,15.393000000000002,-1.4778750000000003,-0.12727866666666662,0.457604,-0.10296066666666667,17.5,False
1607124645.393315,-2.0000208300216666,-9.97400244358,-0.7966304641049997,19.70412500000001,15.256791666666667,-0.3931666666666667,-0.1268493333333333,0.4574733333333333,-0.10296066666666667,17.5,False
1607124645.404903,-2.038744675765,-9.904052262906667,-0.8147560952999998,19.826041666666676,14.296041666666671,0.2158333333333345,-0.12647599999999995,0.45762266666666657,-0.1029,17.5,False
1607124645.413303,-2.0288144619749997,-9.84359361188,-0.833360291015,20.300291666666674,13.23204166666667,1.33175,-0.1261026666666666,0.4577719999999999,-0.1029,17.5,False
1607124645.421635,-1.9382860069416663,-9.804291500674998,-0.8132007606099999,20.10195833333334,12.058083333333336,1.5397083333333328,-0.12583199999999997,0.4579399999999999,-0.102746,17.5,False
1607124645.4300349,-1.8839290535449993,-9.766365262464998,-0.8069794218499998,19.425000000000004,10.483958333333334,2.0857083333333337,-0.12556133333333327,0.45810799999999996,-0.102746,17.5,False
1607124645.4383898,-1.8490536641499993,-9.758648409579997,-0.8213363574499998,18.620875000000005,8.766916666666667,2.783083333333333,-0.1252906666666666,0.45827599999999996,-0.102746,17.5,False
1607124645.4467168,-1.8294923393949991,-9.756235646791668,-0.8508677763716666,18.23441666666667,7.110833333333333,3.9605416666666673,-0.12488933333333327,0.4585653333333334,-0.10300266666666666,17.5,False
1607124645.4550407,-1.798784449361666,-9.726125962408334,-0.9063214401266665,17.930500000000002,5.536416666666666,5.579,-0.12448799999999995,0.4588546666666667,-0.10300266666666666,17.5,False
1607124645.4633136,-1.7435700678666664,-9.745747107728334,-0.9271589369349998,17.233416666666667,3.6869583333333353,7.704083333333334,-0.12408666666666664,0.45914400000000005,-0.10300266666666666,17.5,False
1607124645.4717135,-1.682074527046666,-9.74979496596,-0.9545168753283334,16.342958333333335,1.2095416666666674,10.039166666666667,-0.1234613333333333,0.45976933333333336,-0.10280666666666667,17.5,False
1607124645.4801986,-1.6742380330316662,-9.740642419515,-0.9674381173683333,15.641500000000002,-1.5000416666666652,12.095416666666665,-0.12283599999999999,0.46039466666666673,-0.10280666666666667,17.5,False
1607124645.4885445,-1.677328762223333,-9.703992353358332,-0.9268000135450001,13.899083333333335,-3.5982916666666673,13.371458333333333,-0.12221066666666666,0.46102000000000004,-0.10280666666666667,17.5,False
1607124645.4969106,-1.6652250679049994,-9.667083064753333,-0.8933802578983335,11.152750000000001,-5.1301250000000005,13.979875,-0.12167866666666667,0.46190666666666663,-0.102592,17.5,False
1607124645.5053556,-1.6402400119233327,-9.647122936231666,-0.843649428195,7.070291666666667,-6.465958333333334,14.373333333333333,-0.1211466666666667,0.4627933333333333,-0.102592,17.5,False
1607124645.5137444,-1.5851851519349993,-9.533104939341666,-1.0633903036283334,4.265625,-8.445791666666667,14.393749999999999,-0.12061466666666669,0.4636799999999999,-0.102592,17.5,False
1607124645.5221975,-1.4897713507599997,-9.524411017228337,-1.1232706891933335,5.124,-9.73525,14.258416666666665,-0.12005466666666667,0.4643333333333332,-0.102592,17.5,False
1607124645.5304322,-1.455932851158333,-9.519984295418336,-1.1141979035016665,6.393625,-10.815875000000002,14.331916666666665,-0.11949466666666668,0.46493066666666655,-0.10248,17.5,False
1607124645.5394223,-1.4140584556583329,-9.521579510485003,-1.07736837565,7.543958333333333,-11.738708333333335,14.289916666666665,-0.11893466666666667,0.4655279999999999,-0.10248,17.5,False
1607124645.5476854,-1.3446865404466664,-9.434201605208333,-1.021436147375,8.409625,-12.45125,14.649833333333332,-0.11861733333333334,0.46609733333333325,-0.10248,17.5,False
1607124645.5559433,-1.312981640996666,-9.352865576996669,-0.9910672405433334,9.158625,-13.30175,15.776833333333334,-0.11822533333333335,0.46673199999999987,-0.10261066666666667,17.5,False
1607124645.5644693,-1.326062404543333,-9.308079914,-0.9807781033633333,9.599333333333334,-14.301,17.503208333333337,-0.11783333333333332,0.46736666666666654,-0.10261066666666667,17.5,False
1607124645.5726273,-1.3079965939133331,-9.291350095988333,-1.0072985538466666,10.165458333333333,-15.277500000000002,19.221416666666666,-0.117572,0.4679173333333332,-0.10261066666666667,17.5,False
1607124645.580779,-1.2873983793649997,-9.281360061633334,-1.0486744446383334,11.160333333333334,-16.17554166666667,20.229125,-0.116844,0.46850533333333316,-0.102242,17.5,False
1607124645.5892322,-1.2275977545533332,-9.314500654643332,-1.11326071465,12.06654166666667,-16.711333333333336,20.76229166666667,-0.11611600000000002,0.4690933333333332,-0.102242,17.5,False
1607124645.59761,-1.2043275547683334,-9.358628291425,-1.182672510238333,12.669416666666669,-16.774916666666666,20.72641666666667,-0.11538800000000002,0.46991466666666654,-0.102242,17.5,False
1607124645.6058218,-1.170249772906667,-9.396554529635,-1.2656835142699998,12.978291666666669,-16.027375,20.272000000000002,-0.11499600000000003,0.4710253333333332,-0.10185466666666666,17.5,False
1607124645.6142569,-1.1439087841183337,-9.434919451988332,-1.3563515506216666,13.60975,-14.556208333333334,19.345375,-0.11460400000000003,0.4721359999999999,-0.10185466666666666,17.5,False
1607124645.622665,-1.101456123156667,-9.454680178626663,-1.3811970252849999,14.759500000000001,-13.119750000000003,18.48904166666667,-0.11421200000000002,0.47295733333333323,-0.10185466666666666,17.5,False
1607124645.630805,-1.0707083527466672,-9.496494753561665,-1.37742832969,15.852375,-11.70925,17.622208333333333,-0.11379200000000002,0.47357333333333324,-0.10188733333333334,17.5,False
1607124645.639103,-1.0157332535116665,-9.536335249851668,-1.3622538463683331,16.814874999999997,-10.264625,16.816625,-0.11337200000000001,0.4741893333333332,-0.10188733333333334,17.5,False
1607124645.647493,-0.9701898633583333,-9.554979325943332,-1.3682359028683335,17.231375,-9.069958333333334,16.162416666666665,-0.11295200000000001,0.4748053333333332,-0.10188733333333334,17.5,False
1607124645.6557007,-0.9391429901233332,-9.562337255438333,-1.3924831718816668,17.497083333333332,-8.097833333333332,15.22383333333333,-0.11238266666666669,0.4749919999999998,-0.101808,17.5,False
1607124645.6641927,-0.9087940234799999,-9.588578543284997,-1.3892528613716664,17.539375,-7.537250000000001,13.950124999999996,-0.11181333333333335,0.4751786666666665,-0.101808,17.5,False
1607124645.6725397,-0.9186644167049998,-9.593583530556664,-1.4189836821766664,17.67820833333333,-7.560583333333335,12.4565,-0.11127200000000004,0.4755053333333333,-0.101808,17.5,False
1607124645.6947415,-0.9240482675549998,-9.609236578398331,-1.4270594584516667,18.17141666666667,-8.127000000000002,10.739749999999997,-0.11069333333333335,0.47582266666666667,-0.10129,17.5,False
1607124645.7078094,-0.859402176978333,-9.624570583226667,-1.4572887839650002,18.784791666666667,-8.48254166666667,9.375333333333334,-0.11064666666666668,0.4760093333333334,-0.10136933333333334,17.5,False
1607124645.7204134,-0.8219345630999997,-9.647222637173334,-1.4976277849633337,18.86558333333334,-8.733083333333335,8.465333333333334,-0.11066533333333335,0.4763266666666668,-0.10136933333333334,17.5,False
1607124645.7354164,-0.8032107262549997,-9.63290558195,-1.5429717732333332,18.726458333333337,-8.39416666666667,8.014125,-0.11075866666666667,0.47643866666666673,-0.101458,17.5,False
1607124645.7468503,-0.8255836175649997,-9.622436983075,-1.6138192623816667,19.045541666666672,-7.955791666666666,7.517708333333331,-0.110852,0.47655066666666684,-0.101458,17.5,False
1607124645.7677033,-0.8564510291049996,-9.616674268646666,-1.631486269245,20.849500000000003,-7.943250000000002,6.285124999999999,-0.11112266666666668,0.4765320000000001,-0.10149533333333334,17.5,False
1607124645.7808433,-0.7971688491899996,-9.628698202211666,-1.6533207754700001,22.10104166666667,-7.95754166666667,5.211499999999997,-0.11139333333333337,0.47651333333333334,-0.10149533333333334,17.5,False
1607124645.7983773,-0.78556365958,-9.633583548353332,-1.7036498108233336,22.159083333333335,-7.764750000000003,4.552041666666666,-0.1115706666666667,0.47642000000000007,-0.10116866666666667,17.5,False
1607124645.811577,-0.8047660609449999,-9.639725126359998,-1.7380466356983333,21.87441666666667,-7.786916666666667,3.7464583333333312,-0.11184133333333338,0.4761493333333335,-0.10073466666666667,17.5,False
1607124645.825108,-0.7451050174516667,-9.673384164266666,-1.7796219283733334,21.074375,-7.6550833333333355,2.912291666666666,-0.11211200000000003,0.4758786666666667,-0.10073466666666667,17.5,False
1607124645.833431,-0.6538188352616666,-9.732626463804998,-1.8195421854166667,20.406750000000002,-6.9448750000000015,2.7162916666666663,-0.11231733333333334,0.47564533333333336,-0.10042666666666666,17.5,False
1607124645.841817,-0.6272585044016665,-9.782875738404998,-1.8998213836466669,18.573625,-6.614416666666667,2.5809583333333332,-0.11252266666666667,0.475412,-0.10042666666666666,17.5,False
1607124645.8504457,-0.6143173221733332,-9.818628496086665,-1.9315262830966669,17.086125,-6.210458333333334,2.271791666666665,-0.112728,0.47523466666666675,-0.10042666666666666,17.5,False
1607124645.858887,-0.5986642743316666,-9.85067237873833,-1.9627924984033336,15.227333333333332,-6.148041666666668,2.0087083333333333,-0.11302666666666666,0.47540266666666664,-0.10129466666666667,17.5,False
1607124645.8671777,-0.6380660864783333,-9.979884799138334,-2.0256040916533338,13.008333333333331,-6.288333333333335,1.3673333333333342,-0.11332533333333333,0.4755706666666667,-0.10129466666666667,17.5,False
1607124645.8789837,-0.6463412646366666,-10.108419253134999,-2.056451563005,9.872333333333332,-6.374958333333334,0.038500000000001755,-0.11369866666666666,0.4756733333333333,-0.10129466666666667,17.5,False
1607124645.8873456,-0.6120640808916665,-10.226844031646666,-2.0075582212116667,5.0230833333333305,-6.776875000000001,-1.6893333333333314,-0.11411866666666665,0.4755706666666667,-0.10136466666666667,17.5,False
1607124645.8956006,-0.5915855074733333,-10.275478150991665,-2.0600009165283333,0.2164166666666669,-7.767375000000002,-3.4594583333333317,-0.11453866666666665,0.475468,-0.10136466666666667,17.5,False
1607124645.9038546,-0.5729214911933334,-10.335557938439997,-2.28454737735,-3.066583333333335,-7.633791666666668,-4.796166666666669,-0.11542533333333331,0.47532800000000003,-0.10136466666666667,17.5,False
1607124645.9124055,-0.587856692255,-10.40658488928333,-2.2318853399616665,-6.617041666666669,-7.065625000000002,-5.786375000000003,-0.11629333333333332,0.4750946666666667,-0.10149999999999999,17.5,False
1607124645.9205346,-0.5646064326583333,-10.447761378191666,-2.1354545891816668,-11.504208333333334,-6.89004166666667,-5.914708333333334,-0.11716133333333335,0.4748613333333333,-0.10149999999999999,17.5,False
1607124645.9287925,-0.5474578706916665,-10.467223002005,-2.0348762792283335,-17.97308333333334,-7.232166666666669,-5.009083333333335,-0.11769333333333334,0.47433866666666663,-0.10149999999999999,17.5,False
1607124645.9369535,-0.5755934764299998,-10.469516123663334,-1.9425532072449998,-25.720333333333336,-8.192916666666669,-3.2774583333333367,-0.11812266666666668,0.473844,-0.10217666666666667,17.5,False
1607124645.9453163,-0.6478367787616666,-10.481918920806667,-1.8811573673666666,-34.080375,-9.223958333333334,-1.7237500000000014,-0.118552,0.4733493333333334,-0.10217666666666667,17.5,False
1607124645.9535334,-0.6877570358049999,-10.52758195209,-1.8184055946816666,-41.976375,-10.745291666666668,-0.08516666666666903,-0.11908400000000001,0.4730600000000001,-0.10217666666666667,17.5,False
1607124645.9626572,-0.7276972330366666,-10.56718316612,-1.7460227110316666,-49.51566666666667,-12.97975,1.2716666666666658,-0.11941066666666669,0.47280800000000006,-0.10348333333333334,17.5,False
1607124645.9709504,-0.7342974353749999,-10.589017672344996,-1.6556138971283332,-56.20912500000001,-15.732208333333334,2.530791666666665,-0.11973733333333336,0.4725560000000001,-0.10348333333333334,17.5,False
1607124645.9792254,-0.761814895275,-10.63408249797833,-1.5664014945249998,-62.61762500000001,-18.80929166666667,4.209041666666666,-0.12015733333333337,0.4724533333333334,-0.10348333333333334,17.5,False
1607124645.9874532,-0.7713463052983334,-10.64120114521333,-1.46021999165,-69.07629166666668,-22.106875000000002,6.400916666666666,-0.12020400000000002,0.4723786666666668,-0.10374466666666667,17.5,False
1607124645.9958992,-0.701755048015,-10.682756497699996,-1.3807384009533332,-76.72816666666668,-24.68958333333334,9.336250000000003,-0.12025066666666669,0.4723040000000001,-0.10374466666666667,17.5,False
1607124646.0043662,-0.621954414305,-10.731749540434999,-1.2535399395749998,-86.82391666666668,-26.028625,13.283083333333334,-0.12033466666666671,0.47223866666666675,-0.10374466666666667,17.5,False
1607124646.012772,-0.6171687691050001,-10.807342794406663,-1.0352746380783333,-97.20025,-26.443958333333338,18.16354166666667,-0.11953200000000003,0.47218266666666675,-0.10518200000000003,17.5,False
1607124646.0211132,-0.5899105316533334,-10.773643876123334,-0.7922236824833334,-107.06441666666666,-25.51820833333334,23.882833333333338,-0.11872933333333338,0.4721266666666668,-0.10518200000000003,17.5,False
1607124646.0294871,-0.5066203649850001,-10.707821314435,-0.6344569123900001,-116.86004166666667,-28.250250000000005,29.63216666666667,-0.11785200000000004,0.4722760000000001,-0.10518200000000003,17.5,False
1607124646.03778,-0.37870405682666664,-10.664730567446666,-0.42073797383333333,-127.00712500000003,-30.322541666666673,36.467958333333335,-0.1169746666666667,0.4712306666666668,-0.10679666666666668,17.5,False
1607124646.046305,-0.2396611235783333,-10.518309764515,-0.29020950100333326,-138.6239166666667,-30.92629166666667,44.701125000000005,-0.11549066666666669,0.4709880000000001,-0.10679666666666668,17.5,False
1607124646.0548198,-0.23417757178666662,-10.428698558144998,-0.16283157792999992,-146.57270833333334,-33.48275,52.51225000000001,-0.11400666666666667,0.4707453333333334,-0.10679666666666668,17.5,False
1607124646.0630758,-0.18687944505999995,-10.338728428384998,-0.00013958131833307074,-151.76962500000002,-35.62562500000001,59.353875,-0.11261600000000002,0.47057733333333335,-0.10679666666666668,17.5,False
1607124646.071411,-0.11098708826333334,-10.25779120394,0.15479568203166702,-154.8761666666667,-36.455708333333334,65.24525,-0.11013333333333336,0.47022266666666673,-0.10747333333333335,17.5,False
1607124646.0798638,-0.0872981445233333,-10.201858975664997,0.3179064225983334,-155.33700000000002,-37.268875,70.00758333333333,-0.1076506666666667,0.46986800000000006,-0.10747333333333335,17.5,False
1607124646.088316,-0.13214362808500002,-10.141440205014998,0.4468596205500002,-153.50970833333338,-38.22729166666667,73.54579166666667,-0.10523333333333336,0.4694760000000001,-0.10747333333333335,17.5,False
1607124646.0966978,-0.2082752671416666,-10.106166011853334,0.564765954165,-149.60750000000004,-38.37370833333334,75.803875,-0.10208800000000003,0.4691120000000001,-0.10749666666666667,17.5,False
1607124646.1050646,-0.22759730963666663,-10.129835015405002,0.6846264262366667,-145.2354166666667,-37.89537500000001,76.72350000000002,-0.09894266666666668,0.4687480000000001,-0.10749666666666667,17.5,False
1607124646.1135259,-0.19172491082499998,-10.187761262513336,0.8003193989466667,-141.37783333333337,-36.36966666666668,76.70075,-0.09570400000000003,0.4680386666666668,-0.10749666666666667,17.5,False
1607124646.1218197,-0.07595217736166664,-10.243872952483338,0.9212167608116666,-137.8810416666667,-33.64054166666668,75.91091666666668,-0.09224133333333336,0.4677120000000002,-0.107198,17.5,False
1607124646.1302505,-0.016550356316666622,-10.26183906217167,1.048195880118333,-134.06604166666668,-30.324583333333344,74.43829166666667,-0.08877866666666669,0.4673853333333335,-0.107198,17.5,False
1607124646.1387725,0.0021734805283333287,-10.220642633075004,1.160518961,-128.25487500000003,-26.716958333333327,72.39545833333335,-0.08526933333333335,0.4672640000000001,-0.107198,17.5,False
1607124646.1470573,0.01665005725833337,-10.207083305008334,1.4703695475116665,-122.22525000000006,-23.34383333333333,69.79700000000003,-0.081928,0.46727333333333354,-0.10693666666666668,17.5,False
1607124646.1553526,0.04911268386500004,-10.166664543256669,2.01188524208,-118.73050000000005,-22.04474999999999,66.82754166666669,-0.07858666666666665,0.46728266666666685,-0.10693666666666668,17.5,False
1607124646.1638255,0.13760723968833335,-10.055159010096666,2.3034506758899997,-116.19912500000007,-22.236958333333327,63.90358333333335,-0.075264,0.46738533333333354,-0.10693666666666668,17.5,False
1607124646.1722593,0.21341983573166667,-9.929775105856667,2.5213769941849997,-113.32708333333336,-23.148416666666662,60.98779166666668,-0.07215600000000001,0.46706800000000015,-0.10685266666666668,17.5,False
1607124646.1806862,0.28498517166,-9.805388211033334,2.7212175616616667,-110.20275000000002,-24.78349999999999,58.290750000000024,-0.06904800000000001,0.46675066666666676,-0.10685266666666668,17.5,False
1607124646.1889722,0.3779064492933333,-9.688618468153331,2.8861428593666667,-107.27033333333338,-26.77062499999999,56.40745833333335,-0.06604266666666668,0.4664053333333334,-0.10685266666666668,17.5,False
1607124646.1974564,0.4752943291133332,-9.582516726031663,3.010788976638333,-105.02537500000003,-28.808208333333326,55.697250000000004,-0.06360666666666669,0.46596666666666675,-0.10713266666666668,17.5,False
1607124646.2057812,0.526002228045,-9.463214579233332,3.0928428516300004,-103.28150000000004,-30.18399999999999,55.621125,-0.06117066666666669,0.4655280000000001,-0.10713266666666668,17.5,False
1607124646.2142272,0.5757330577483334,-9.347681128029999,3.14440817866,-101.61229166666666,-30.37912499999999,55.95304166666667,-0.05894000000000002,0.4650520000000001,-0.10713266666666668,17.5,False
1607124646.2225063,0.6054040579883334,-9.273902431196666,3.1812576466999998,-99.82204166666666,-29.280124999999995,56.11083333333333,-0.05644800000000002,0.46425866666666676,-0.10809866666666669,17.5,False
1607124646.2306662,0.6746563320700001,-9.20124038491,3.235634540285,-97.04625000000003,-27.368249999999996,55.76491666666664,-0.05395600000000002,0.4634653333333335,-0.10809866666666669,17.5,False
1607124646.2388992,0.7386045160550001,-9.168837578868333,3.2738598813199995,-92.88329166666668,-24.48045833333333,54.54312499999998,-0.05183733333333336,0.46264400000000017,-0.10809866666666669,17.5,False
1607124646.2472382,0.7721239726433333,-9.084869445796667,3.389453153088333,-87.44866666666668,-21.263375000000003,52.561833333333304,-0.049728000000000015,0.46174800000000016,-0.10783266666666669,17.5,False
1607124646.2555032,0.8076573882533334,-8.996115667524997,3.476192972338333,-79.69033333333333,-18.393666666666665,49.65333333333331,-0.04761866666666668,0.46085200000000015,-0.10783266666666669,17.5,False
1607124646.263786,0.8545168308366667,-8.882396773459996,3.5207792334516665,-71.56683333333334,-16.391374999999996,45.53237499999998,-0.04586400000000001,0.46007733333333345,-0.10783266666666669,17.5,False
1607124646.272258,0.8968299104799998,-8.87870783861833,3.5531022787399995,-63.22575000000001,-15.918874999999998,40.118458333333315,-0.04430533333333334,0.4591533333333334,-0.10861666666666668,17.5,False
1607124646.283732,0.8857631059549999,-8.950093712851663,3.6905699371099994,-54.84995833333333,-12.540791666666669,34.04041666666665,-0.04274666666666668,0.45822933333333343,-0.10861666666666668,17.5,False
1607124646.2919009,0.8873583210216665,-8.97789033538833,3.774817232818333,-46.396875,-10.145041666666673,26.43841666666667,-0.041188000000000016,0.4585000000000001,-0.10861666666666668,17.5,False
1607124646.3003278,0.8872386798916665,-9.076394865754997,3.9076787076833326,-37.894208333333346,-8.826416666666672,17.96141666666667,-0.040002666666666666,0.45763200000000004,-0.1087006666666667,17.5,False
1607124646.3092647,0.9349555505733331,-9.074899351629998,4.070689747308332,-32.456375,-5.649875000000001,9.62383333333334,-0.038817333333333336,0.456764,-0.1087006666666667,17.5,False
1607124646.3176098,0.9773882713466665,-9.095657087685,4.248556227241666,-28.375375,-3.2792083333333326,1.823791666666665,-0.037632,0.45589599999999997,-0.1087006666666667,17.5,False
1607124646.3258376,1.0136195935483332,-9.12929618540333,4.417050818658333,-25.761458333333334,-2.2504999999999997,-5.006458333333334,-0.037548,0.45505599999999996,-0.10885933333333336,17.5,False
1607124646.3343217,1.0607382585799996,-9.133902368908332,4.584648101599999,-25.301499999999997,-1.3504166666666673,-10.754333333333337,-0.03746399999999999,0.45421599999999995,-0.10885933333333336,17.5,False
1607124646.3427315,1.1730812796499996,-9.107202456729997,4.775595345079998,-26.828958333333333,-0.6314583333333348,-15.442583333333335,-0.03738,0.45337600000000006,-0.10885933333333336,17.5,False
1607124646.3509843,1.2822139303983329,-9.049196448868331,4.977689153838332,-29.467375,-0.9216666666666689,-18.554375,-0.038192000000000004,0.45220933333333335,-0.10852800000000001,17.5,False
1607124646.3592844,1.3722040003466662,-8.956434692741665,5.157509772228333,-32.260375,-2.0457500000000013,-20.17895833333333,-0.03900400000000001,0.4510426666666667,-0.10852800000000001,17.5,False
1607124646.3677344,1.4066805859749998,-8.827900238744999,5.320042247333332,-34.225625,-3.9585,-20.989208333333334,-0.03981600000000001,0.44987600000000005,-0.10852800000000001,17.5,False
1607124646.3760095,1.37599263613,-8.667441543226666,5.4582277524833325,-35.237125000000006,-6.892374999999999,-21.10208333333333,-0.040936000000000014,0.4481213333333335,-0.1085466666666667,17.5,False
1607124646.3845334,1.37575335387,-8.528358729601665,5.551029388986666,-35.24645833333333,-10.175666666666666,-20.462458333333338,-0.04205600000000001,0.4463666666666668,-0.1085466666666667,17.5,False
1607124646.3928652,1.4250056190533333,-8.434320801421666,5.589234789833332,-34.96733333333334,-13.088250000000004,-19.167458333333336,-0.04317600000000001,0.4446120000000001,-0.1085466666666667,17.5,False
1607124646.4012554,1.485763372905,-8.348538111211667,5.585306572731667,-34.40850000000001,-15.00333333333334,-17.14154166666667,-0.04428666666666668,0.4430906666666668,-0.10827600000000001,17.5,False
1607124646.409598,1.5358730661866666,-8.282615848581665,5.574658512161666,-33.63412500000001,-15.96904166666667,-14.464041666666667,-0.04539733333333334,0.4415693333333335,-0.10827600000000001,17.5,False
1607124646.4180322,1.5696716854116666,-8.251568975346666,5.573880844816666,-32.12125000000002,-16.219875000000002,-11.384041666666667,-0.04650800000000001,0.4400480000000001,-0.10827600000000001,17.5,False
1607124646.426525,1.5753147587099998,-8.278229007148333,5.5897931151066675,-29.85062500000001,-16.053333333333338,-8.271666666666667,-0.04735733333333334,0.43911466666666676,-0.10766933333333335,17.5,False
1607124646.4348462,1.5368102550383334,-8.336793340283332,5.605386342383334,-26.716958333333334,-15.659000000000002,-5.664458333333331,-0.04820666666666667,0.43818133333333337,-0.10766933333333335,17.5,False
1607124646.4430392,1.4813964716599999,-8.425886101756667,5.636911780138332,-22.837791666666657,-15.11154166666667,-4.3300833333333335,-0.049056,0.43724799999999997,-0.10766933333333335,17.5,False
1607124646.4514852,1.432483189678333,-8.525228120033335,5.673422264976666,-18.129125,-14.421458333333335,-4.557874999999998,-0.049504,0.4367906666666666,-0.107478,17.5,False
1607124646.459758,1.397248876893333,-8.588837320816667,5.713322581831665,-13.161166666666666,-13.801083333333336,-5.960791666666667,-0.049951999999999996,0.4363333333333332,-0.107478,17.5,False
1607124646.4682891,1.3694323141683329,-8.609355774611666,5.748875937629999,-8.188833333333333,-13.56425,-7.894833333333333,-0.0504,0.4358759999999998,-0.107478,17.5,False
1607124646.476693,1.3396815531749995,-8.60231688813,5.798726408463333,-3.1208333333333345,-13.703958333333334,-9.809625,-0.05128666666666666,0.43529733333333326,-0.10745933333333335,17.5,False
1607124646.4849558,1.287956704638333,-8.569016773613333,5.845107286526667,1.2252916666666673,-13.923583333333333,-11.482333333333335,-0.05217333333333332,0.4347186666666667,-0.10745933333333335,17.5,False
1607124646.4933348,1.2311072276999997,-8.515437487561666,5.889155162554999,4.580041666666667,-14.160999999999998,-12.555083333333334,-0.05305999999999998,0.4341400000000001,-0.10745933333333335,17.5,False
1607124646.5018578,1.178485070688333,-8.497291916178334,5.9263635539849995,7.473083333333334,-14.544833333333335,-13.116541666666668,-0.054067999999999984,0.4338600000000001,-0.10704866666666667,17.5,False
1607124646.5102928,1.1373484621566665,-8.468917028179998,5.947420392865,9.65766666666667,-15.019666666666668,-13.175166666666666,-0.055075999999999986,0.4335800000000001,-0.10704866666666667,17.5,False
1607124646.5186417,1.102512953138333,-8.425985802698333,5.963213022024999,11.362166666666669,-15.721125,-12.627416666666667,-0.05608399999999999,0.4333000000000001,-0.10704866666666667,17.5,False
1607124646.526928,1.0699306854016664,-8.370412497813332,5.97810834271,12.783458333333334,-16.576874999999998,-11.679791666666667,-0.05689599999999999,0.43316933333333346,-0.10704866666666667,17.5,False
1607124646.535169,1.0362118269299996,-8.326723545174998,5.984768365613334,14.263958333333333,-17.619000000000003,-10.404625,-0.057810666666666656,0.43327200000000016,-0.10712800000000001,17.5,False
1607124646.5433917,0.9857830906349997,-8.298488238494999,5.981199071901668,15.641500000000002,-18.575083333333335,-8.57295833333333,-0.05872533333333333,0.4333746666666668,-0.10712800000000001,17.5,False
1607124646.5516477,0.9285946304949998,-8.304191132358332,5.963053500518333,16.801750000000002,-19.285583333333342,-6.519041666666666,-0.05991066666666667,0.43370133333333344,-0.10712800000000001,17.5,False
1607124646.5600307,0.8776673894916664,-8.340203112488332,5.925984690406667,17.458000000000002,-19.553041666666672,-4.316375000000002,-0.060899999999999996,0.43426133333333344,-0.10711866666666668,17.5,False
1607124646.5683634,0.8463612938083332,-8.374241013973334,5.877390451438333,17.631541666666667,-19.410708333333336,-2.0159999999999996,-0.06188933333333334,0.4348213333333334,-0.10711866666666668,17.5,False
1607124646.5767395,0.8223931874316666,-8.405347707773334,5.838806187013333,17.25120833333333,-19.033583333333333,0.312083333333333,-0.062636,0.435484,-0.10711866666666668,17.5,False
1607124646.5849645,0.7865008484316666,-8.418328770378334,5.804628704210001,16.68508333333333,-18.916041666666665,2.5360416666666667,-0.063364,0.43587600000000004,-0.10670333333333334,17.5,False
1607124646.5930924,0.7339783923616665,-8.440940943948332,5.75509727639,16.21958333333333,-19.037083333333328,4.671333333333333,-0.06409200000000001,0.43626799999999993,-0.10670333333333334,17.5,False
1607124646.6014404,0.6755137601683335,-8.4598243023,5.704788181224999,15.440541666666666,-18.963583333333325,6.468875000000001,-0.064652,0.4369586666666666,-0.10670333333333334,17.5,False
1607124646.6096923,0.6271388632716667,-8.469036669310002,5.6671610458399995,14.426999999999998,-18.63691666666666,7.9665833333333325,-0.06482000000000002,0.4378173333333333,-0.10719333333333333,17.5,False
1607124646.6180243,0.6073382562566667,-8.475018725810001,5.632604699458332,13.167874999999999,-18.204374999999995,9.440666666666667,-0.064988,0.438676,-0.10719333333333333,17.5,False
1607124646.6264474,0.5905286774916667,-8.502476365145002,5.6038310076933335,11.655583333333333,-17.600624999999997,10.700083333333334,-0.065072,0.4397400000000001,-0.10719333333333333,17.5,False
1607124646.63474,0.56542398038,-8.530153346551666,5.600181953228333,9.810791666666667,-16.982291666666665,11.668708333333335,-0.06519333333333335,0.4409813333333334,-0.10716066666666668,17.5,False
1607124646.643068,0.5287340338466666,-8.560641894513333,5.622355442654999,7.674916666666669,-16.407125,12.424708333333333,-0.06531466666666669,0.4422226666666667,-0.10716066666666668,17.5,False
1607124646.6513813,0.4857429877999999,-8.567082575345,5.651727340069999,5.148500000000005,-15.99675,13.070166666666667,-0.06527733333333335,0.4431000000000001,-0.10716066666666668,17.5,False
1607124646.6603823,0.44470608020999974,-8.544370700833332,5.661139108963332,2.9927916666666694,-15.835166666666668,13.538000000000002,-0.06510000000000002,0.44388400000000006,-0.10696466666666668,17.5,False
1607124646.6687212,0.3934398560049999,-8.501618937046667,5.660181979923333,0.971250000000004,-15.775666666666666,13.927666666666669,-0.06492266666666668,0.44466800000000006,-0.10696466666666668,17.5,False
1607124646.676954,0.36219358088666664,-8.444589998413333,5.656772207718333,-0.9519999999999981,-15.627208333333336,14.386750000000003,-0.06479200000000002,0.445284,-0.10696466666666668,17.5,False
1607124646.688491,0.3551148140283332,-8.400701643891667,5.661438211788332,-2.765875,-15.333500000000003,14.982041666666671,-0.06461466666666668,0.4461986666666667,-0.10718400000000002,17.5,False
1607124646.696861,0.3594218947083333,-8.377371623541666,5.661079288398332,-4.3376666666666654,-14.845833333333337,15.761083333333337,-0.06443733333333336,0.4471133333333333,-0.10718400000000002,17.5,False
1607124646.705247,0.3521437259666666,-8.350552070233332,5.670191954466665,-5.870375,-14.278833333333333,16.752750000000006,-0.06409200000000002,0.44764533333333323,-0.10718400000000002,17.5,False
1607124646.713681,0.34953156129499985,-8.318887051159999,5.694080300089999,-7.2272083333333335,-13.643875000000005,17.915916666666664,-0.06362533333333335,0.44809333333333323,-0.10735666666666668,17.5,False
1607124646.7220528,0.3398007493883332,-8.300542077893331,5.739204946288333,-8.517541666666666,-12.987916666666667,19.25116666666667,-0.06315866666666667,0.44854133333333324,-0.10735666666666668,17.5,False
1607124646.7303689,0.3364707379366666,-8.309515162643333,5.7926645912099985,-10.225541666666667,-12.376583333333336,20.853875000000002,-0.06251466666666668,0.44942799999999994,-0.10735666666666668,17.5,False
1607124646.7388036,0.34554352362833324,-8.33491896258,5.846064415566667,-12.405166666666668,-11.92216666666667,22.67095833333333,-0.062029333333333346,0.45020266666666664,-0.10766933333333335,17.5,False
1607124646.7470608,0.33463624060999997,-8.403792373083332,5.881896934001666,-15.060499999999998,-11.746000000000002,24.508166666666668,-0.06154400000000001,0.4509773333333333,-0.10766933333333335,17.5,False
1607124646.7553537,0.30412775245999996,-8.488119429545,5.891468224401666,-17.707375000000003,-11.765833333333337,25.925666666666665,-0.06092800000000001,0.45152799999999993,-0.10766933333333335,17.5,False
1607124646.7638047,0.24939193548499994,-8.56857808947,5.881258847975,-19.936,-11.804916666666669,26.710833333333333,-0.06014400000000001,0.45205066666666666,-0.10718866666666668,17.5,False
1607124646.7722118,0.1701695672366666,-8.643313915343333,5.856253851804999,-21.53375,-11.609500000000002,26.519791666666666,-0.05936000000000001,0.4525733333333334,-0.10718866666666668,17.5,False
1607124646.7805686,0.11056834430833341,-8.703573164486667,5.843611772401666,-22.93141666666667,-10.689875000000002,25.480291666666666,-0.05857600000000001,0.4530960000000001,-0.10718866666666668,17.5,False
1607124646.7889376,0.07116653216166673,-8.722177360201666,5.8588859566650004,-24.397333333333336,-9.093875,23.886916666666664,-0.057540000000000015,0.45339466666666683,-0.10784200000000001,17.5,False
1607124646.7971795,0.06658028884500004,-8.689754613971667,5.897151178076667,-25.573333333333334,-7.2992500000000025,22.156166666666667,-0.05650400000000001,0.4536933333333335,-0.10784200000000001,17.5,False
1607124646.8055315,0.0883749146933334,-8.623672829835,5.952006636181667,-26.290541666666662,-5.753125000000002,20.565708333333337,-0.05546800000000001,0.4539920000000002,-0.10784200000000001,17.5,False
1607124646.8140523,0.09435697119333336,-8.530053645610002,6.016034580920001,-26.452708333333337,-4.626708333333335,19.268958333333337,-0.054665333333333344,0.45392666666666676,-0.10822000000000001,17.5,False
1607124646.8355663,0.07036892462833341,-8.452426492428335,6.090232021708334,-26.142374999999998,-3.969875000000002,18.20029166666667,-0.05386266666666669,0.45386133333333334,-0.10822000000000001,17.5,False
1607124646.8535933,0.04999005215166665,-8.396574024906666,6.134000735100001,-26.829541666666668,-3.5772916666666683,18.096458333333334,-0.053274666666666685,0.45383333333333337,-0.10808933333333334,17.5,False
1607124646.8668783,0.029591239486666598,-8.326145279713334,6.138467337286667,-27.319249999999997,-2.9974583333333324,18.719458333333332,-0.05218266666666668,0.4540946666666666,-0.10825266666666669,17.5,False
1607124646.8814032,0.0060019966883332766,-8.302556036915,6.147141319211667,-27.57329166666666,-2.046625,19.161041666666666,-0.05109066666666668,0.45435599999999987,-0.10825266666666669,17.5,False
1607124646.89084,0.024725833533333304,-8.265367585673333,6.174020693085001,-27.601583333333334,-0.6428333333333354,19.230166666666666,-0.049625333333333334,0.45442133333333323,-0.10865400000000001,17.5,False
1607124646.907611,0.045184466763333285,-8.195836148955,6.221239059058334,-27.680333333333337,0.733833333333333,19.31475,-0.048552000000000005,0.4543186666666666,-0.10865400000000001,17.5,False
1607124646.918988,0.06993024048499998,-8.097750362543332,6.276114457351667,-27.713874999999994,1.7637083333333328,19.705291666666664,-0.04733866666666667,0.45439333333333326,-0.10891533333333335,17.5,False
1607124646.937535,0.11082756675666665,-8.001100269691667,6.330670812631667,-28.112874999999995,2.3394583333333316,21.04870833333333,-0.04612533333333333,0.4544679999999999,-0.10891533333333335,17.5,False
1607124646.953348,0.1754736573333333,-7.960940730388333,6.3630536784850005,-29.254749999999998,2.997166666666665,22.928791666666665,-0.044351999999999996,0.4543279999999999,-0.10869133333333335,17.5,False
1607124646.9649417,0.24759731853499997,-7.921219875228333,6.350810402848333,-30.89741666666666,3.7846666666666655,24.76425,-0.04257866666666666,0.45418799999999987,-0.10869133333333335,17.5,False
1607124646.9731987,0.3106282538566666,-7.8746794756583345,6.325845287055,-32.52579166666666,4.841374999999998,26.142958333333333,-0.04048799999999999,0.45394533333333326,-0.10906466666666668,17.5,False
1607124646.9815495,0.3748157201016666,-7.814001482559999,6.302854249906667,-33.432874999999996,6.146583333333334,27.199374999999996,-0.038537333333333326,0.45379599999999987,-0.10906466666666668,17.5,False
1607124646.9901116,0.4370889282666666,-7.743273634541666,6.299304896383334,-33.853750000000005,7.6842500000000005,27.698125,-0.03658666666666666,0.4536466666666666,-0.10906466666666668,17.5,False
1607124646.9984875,0.5040281405016667,-7.650671399921666,6.326403612328334,-33.722500000000004,9.378250000000001,27.70716666666667,-0.03414133333333333,0.4534786666666666,-0.10983466666666669,17.5,False
1607124647.0071266,0.5845466209916667,-7.536493881525,6.384888184709999,-33.455625,11.000499999999999,27.472666666666665,-0.031742666666666676,0.453012,-0.10983466666666669,17.5,False
1607124647.0155814,0.6885546433383333,-7.40710199943,6.462455517326666,-33.48741666666667,12.346541666666667,27.46479166666667,-0.029344000000000016,0.45254533333333335,-0.10983466666666669,17.5,False
1607124647.0238295,0.8092326631316666,-7.2889364433666675,6.5404814742749995,-34.138708333333334,13.460125000000003,27.993000000000002,-0.026852000000000018,0.45220000000000005,-0.10974133333333334,17.5,False
1607124647.0324254,0.9220741889099998,-7.201458837148335,6.600700843041666,-35.492625,14.352041666666668,28.984083333333338,-0.024481333333333348,0.45193866666666666,-0.10974133333333334,17.5,False
1607124647.0407162,1.0346764324283333,-7.109335167048334,6.626563267309999,-37.231833333333334,15.191750000000003,30.084250000000004,-0.022110666666666685,0.4516773333333333,-0.10974133333333334,17.5,False
1607124647.0490484,1.1447462720283332,-6.989753857613335,6.633283110778333,-38.83425,16.176708333333337,30.887208333333337,-0.019180000000000016,0.45136933333333334,-0.10992800000000003,17.5,False
1607124647.0574203,1.2543574872966665,-6.847680015738335,6.638188397108332,-40.036500000000004,17.364375,31.687250000000006,-0.016090666666666684,0.4511733333333334,-0.10992800000000003,17.5,False
1607124647.0658083,1.3840484722166664,-6.675356908161667,6.661239254821665,-40.50229166666667,18.62525,32.44470833333334,-0.013001333333333342,0.45097733333333345,-0.10992800000000003,17.5,False
1607124647.0824301,1.5162319806783333,-6.479384737221667,6.7180089710066655,-39.951916666666676,19.474291666666666,33.27245833333334,-0.00952933333333334,0.45031466666666675,-0.11027800000000003,17.5,False
1607124647.0907593,1.6664613595816664,-6.316872202305001,6.791668026709998,-38.98154166666667,19.818458333333336,34.329750000000004,-0.006225333333333342,0.4496800000000001,-0.11027800000000003,17.5,False
1607124647.0991452,1.8348363098683331,-6.19788909852,6.865087800153331,-38.33725000000001,19.711708333333334,35.75512500000001,-0.0028186666666666703,0.4490640000000001,-0.11047400000000002,17.5,False
1607124647.10745,1.9978074691166665,-6.124349683946667,6.914021022323331,-38.070958333333344,19.0155,37.56870833333334,0.0005879999999999964,0.448448,-0.11047400000000002,17.5,False
1607124647.115752,2.1369899836833333,-6.092265920918334,6.915975160779998,-38.024875,17.862833333333338,39.45112500000001,0.003845333333333332,0.44782266666666665,-0.11047400000000002,17.5,False
1607124647.124254,2.229053833218333,-6.086383565359999,6.888657102763331,-38.191416666666676,16.57425,40.91850000000001,0.007279999999999997,0.4472813333333334,-0.11028733333333336,17.5,False
1607124647.132614,2.285105702623333,-6.083811281065,6.825845509513332,-38.437875000000005,15.50325,41.78300000000001,0.01071466666666667,0.4467400000000001,-0.11028733333333336,17.5,False
1607124647.140809,2.3567507993049994,-6.053502194798332,6.747540389928332,-38.818500000000014,14.818708333333332,42.018083333333344,0.014186666666666669,0.4463293333333334,-0.11028733333333336,17.5,False
1607124647.149173,2.439562401453333,-5.999883028369998,6.662196383861667,-39.214291666666675,14.502541666666666,41.996791666666674,0.017630666666666673,0.44591866666666674,-0.11033866666666668,17.5,False
1607124647.157594,2.5381267523849993,-5.929135240163332,6.614918197323334,-38.23983333333334,14.438083333333333,41.25858333333334,0.02128933333333334,0.4454706666666668,-0.11033866666666668,17.5,False
1607124647.1691217,2.6553750597849994,-5.901258856873333,6.610870339091666,-37.49637500000001,14.461416666666667,40.27479166666667,0.02442533333333334,0.44500400000000007,-0.11033866666666668,17.5,False
1607124647.1774716,2.7575286446166656,-5.842176078841665,6.607739729523333,-37.522625,14.635249999999997,40.33429166666667,0.02783200000000001,0.44417333333333336,-0.11063733333333335,17.5,False
1607124647.1857965,2.836152807214999,-5.828676571339999,6.579923166798334,-38.083499999999994,14.574291666666664,41.053250000000006,0.030865333333333345,0.4435386666666667,-0.11063733333333335,17.5,False
1607124647.1942098,2.9133811566299985,-5.859763324951666,6.529135507113335,-38.52333333333333,14.451208333333334,41.59166666666667,0.033898666666666674,0.442904,-0.11063733333333335,17.5,False
1607124647.2025535,2.9711279420433323,-5.933861064798333,6.479863301741668,-38.603833333333334,14.3675,41.36358333333333,0.03720266666666668,0.44226933333333335,-0.11057200000000003,17.5,False
1607124647.2107255,3.005724168801666,-5.991567969835,6.436254109856667,-38.096333333333334,14.4795,39.94783333333333,0.040506666666666684,0.44163466666666673,-0.11057200000000003,17.5,False
1607124647.2190495,3.0528029534566667,-6.004469271686668,6.401538241968334,-36.920333333333325,14.510999999999997,37.96975,0.043288000000000014,0.4410373333333334,-0.11057200000000003,17.5,False
1607124647.2271464,3.1067411628983326,-6.023173168343334,6.392605037595,-35.540749999999996,14.560583333333332,36.250083333333336,0.046069333333333344,0.4403466666666667,-0.1105206666666667,17.5,False
1607124647.2353175,3.167100112983333,-6.068896020191667,6.379982898379999,-34.60391666666666,14.631166666666665,35.26308333333334,0.04853333333333335,0.4397586666666668,-0.1105206666666667,17.5,False
1607124647.2435904,3.224667436701666,-6.14405059002,6.352285976785,-34.50183333333333,14.682208333333337,34.69316666666667,0.05099733333333335,0.43917066666666676,-0.1105206666666667,17.5,False
1607124647.2518113,3.280360382716666,-6.252246051916667,6.300860231073333,-34.666041666666665,14.687750000000005,34.34316666666666,0.05378800000000002,0.4383400000000001,-0.11101066666666669,17.5,False
1607124647.2600296,3.320300579948333,-6.3905511981966665,6.226902072545,-35.08779166666667,14.74520833333334,33.83654166666667,0.05608400000000003,0.43752800000000014,-0.11101066666666669,17.5,False
1607124647.2684944,3.366701398199999,-6.539723747118333,6.136114395063333,-35.31704166666667,14.94529166666667,32.836125,0.05838000000000003,0.4367160000000002,-0.11101066666666669,17.5,False
1607124647.2767494,3.4104102910266656,-6.681319024473333,6.039902986355,-35.28845833333333,15.346333333333336,31.255583333333334,0.06101200000000003,0.4358946666666669,-0.11077266666666669,17.5,False
1607124647.2849834,3.4579277598249987,-6.794559354018333,5.9454861945966675,-35.072625,15.893500000000001,29.252125,0.0635506666666667,0.4349520000000002,-0.11077266666666669,17.5,False
1607124647.293199,3.529134172363333,-6.877051913153333,5.857928827625,-34.69258333333334,16.537208333333336,27.023791666666668,0.06608933333333336,0.4340093333333336,-0.11077266666666669,17.5,False
1607124647.301613,3.6105300211399993,-6.94624436667,5.786463192638333,-34.21658333333334,17.24420833333334,24.865166666666667,0.06895466666666669,0.4327773333333335,-0.11129066666666669,17.5,False
1607124647.3099062,3.692224972741666,-7.007939309373333,5.724887891064999,-33.849666666666664,17.929625,22.982458333333337,0.07126000000000003,0.4315920000000002,-0.11129066666666669,17.5,False
1607124647.3183432,3.7701512287483325,-7.08766018233,5.668696440341666,-33.62916666666667,18.6305,20.967625,0.07356533333333336,0.4304066666666669,-0.11129066666666669,17.5,False
1607124647.326961,3.846940894019999,-7.1759553362699995,5.61404038412,-33.55916666666667,19.432875000000006,18.728208333333335,0.07571200000000003,0.4287173333333335,-0.11168266666666668,17.5,False
1607124647.3351429,3.931088488786665,-7.266483791303333,5.554100177989999,-34.26325,20.524000000000004,16.289583333333336,0.07747600000000004,0.42749466666666686,-0.11168266666666668,17.5,False
1607124647.343455,4.024209168303332,-7.336533672918334,5.494718297133333,-35.363708333333335,21.813750000000006,13.562500000000002,0.07924000000000003,0.42627200000000015,-0.11168266666666668,17.5,False
1607124647.351924,4.1177485917749985,-7.36594545071,5.445844895528333,-36.63100000000001,23.218708333333336,10.744125000000006,0.08090133333333337,0.42383600000000005,-0.1120046666666667,17.5,False
1607124647.3601868,4.204548231589999,-7.355476851835001,5.410431121048334,-37.836750000000016,24.553375000000006,7.831250000000006,0.08302000000000002,0.4222120000000001,-0.1120046666666667,17.5,False
1607124647.368743,4.30026113559,-7.329534666813333,5.379743171203333,-38.917958333333345,25.70954166666667,4.9227500000000015,0.08513866666666668,0.42058800000000013,-0.1120046666666667,17.5,False
1607124647.377075,4.412404754776666,-7.305686201566668,5.342514839585001,-39.98633333333335,26.70529166666667,2.065875000000001,0.08708,0.4188800000000001,-0.1120046666666667,17.5,False
1607124647.3854408,4.531208396866666,-7.280561564266666,5.304628481751667,-41.058208333333354,27.556083333333337,-0.703499999999998,0.08888133333333334,0.41694800000000015,-0.11213066666666668,17.5,False
1607124647.3937829,4.640719911193333,-7.273422976843334,5.253023274345001,-41.73720833333335,28.26483333333334,-3.583999999999999,0.09068266666666666,0.41501600000000016,-0.11213066666666668,17.5,False
1607124647.4022667,4.761278289856666,-7.262615394766668,5.194758044035001,-42.05833333333335,29.011500000000005,-6.721749999999999,0.09251199999999998,0.4130840000000002,-0.11213066666666668,17.5,False
1607124647.4105928,4.865904458041666,-7.24989355461,5.145206676026667,-42.23595833333334,29.90545833333334,-10.191708333333333,0.09416399999999998,0.4109093333333335,-0.1124386666666667,17.5,False
1607124647.4190466,4.950012172431666,-7.241917479276666,5.111427996990001,-42.49350000000001,30.816625000000005,-13.992416666666667,0.09581599999999998,0.40873466666666686,-0.1124386666666667,17.5,False
1607124647.4273274,5.027001239586666,-7.2450480888449995,5.08941402907,-42.73529166666667,31.346291666666673,-18.598125,0.09719733333333333,0.4069240000000003,-0.1124386666666667,17.5,False
1607124647.4364345,5.086861684963333,-7.2141806773049995,5.073342237273334,-42.83008333333333,31.49854166666667,-23.793000000000006,0.09840133333333334,0.4045720000000002,-0.11232200000000002,17.5,False
1607124647.4447486,5.1409793561,-7.132485725703334,5.052444919899998,-42.55416666666667,31.343666666666675,-29.335833333333337,0.09960533333333334,0.40222000000000013,-0.11232200000000002,17.5,False
1607124647.4531856,5.193840795371667,-7.023432835708332,5.016512700523332,-42.147,31.243041666666674,-34.73283333333334,0.10039866666666668,0.3996906666666668,-0.11232200000000002,17.5,False
1607124647.4615674,5.2607201870416676,-6.903333081376667,4.9699124803883326,-41.774833333333326,31.336083333333345,-39.86325,0.10083733333333335,0.39744133333333337,-0.11301266666666669,17.5,False
1607124647.4699023,5.310191794296668,-6.764030925679999,4.923511662136666,-41.23583333333333,31.626000000000012,-44.80233333333334,0.101276,0.39519200000000004,-0.11301266666666669,17.5,False
1607124647.4783943,5.354817935786667,-6.623791581131666,4.8904907102566675,-40.54516666666667,32.12066666666667,-49.733833333333344,0.10171466666666668,0.393036,-0.11301266666666669,17.5,False
1607124647.4868023,5.409793035021668,-6.466822418571667,4.882155711533333,-39.59520833333334,32.69408333333334,-54.76304166666668,0.10187333333333333,0.39073066666666667,-0.11246200000000002,17.5,False
1607124647.4951563,5.472465046953335,-6.307280971716667,4.907619332035,-38.457125,33.118750000000006,-59.727208333333344,0.102032,0.3884253333333333,-0.11246200000000002,17.5,False
1607124647.5032833,5.521218807428334,-6.144549094728332,4.957908487011665,-37.50833333333333,33.32962500000001,-64.23550000000002,0.101864,0.3863626666666666,-0.11246200000000002,17.5,False
1607124647.5115693,5.560221815808333,-5.970949815098333,5.014977306021665,-36.82991666666666,33.297833333333344,-68.36783333333334,0.10133199999999999,0.38421599999999995,-0.11286333333333336,17.5,False
1607124647.5199783,5.550112140323333,-5.800321623529999,5.077449916069999,-36.17804166666666,33.060125000000006,-72.4535,0.10079999999999999,0.3820693333333332,-0.11286333333333336,17.5,False
1607124647.528343,5.522175936468333,-5.614578769205,5.1335017854750005,-35.20183333333333,32.67279166666667,-76.76987500000001,0.09993199999999998,0.37993199999999994,-0.11286333333333336,17.5,False
1607124647.536667,5.507719299926665,-5.431348378609999,5.192803905578333,-33.49879166666667,32.12445833333334,-81.50741666666669,0.09882133333333333,0.37749599999999994,-0.11293333333333336,17.5,False
1607124647.544933,5.509154993486665,-5.256931551258333,5.253561659430001,-31.298750000000002,31.517791666666668,-86.31495833333334,0.09771066666666668,0.37506,-0.11293333333333336,17.5,False
1607124647.553008,5.498965557248332,-5.096612437058334,5.317669364921666,-29.117375000000003,30.853666666666662,-91.01808333333337,0.09627333333333336,0.37291333333333326,-0.11293333333333336,17.5,False
1607124647.5612092,5.479862856824998,-4.952225533336668,5.374319439976665,-26.971000000000004,30.022708333333334,-95.47037500000002,0.09439733333333336,0.3708786666666667,-0.11287266666666669,17.5,False
1607124647.5728178,5.437150973415,-4.819483699601667,5.4102516593533325,-24.938083333333335,28.976208333333332,-99.66454166666671,0.09252133333333336,0.368844,-0.11287266666666669,17.5,False
1607124647.581129,5.357749143471667,-4.722335102041668,5.409214769559999,-23.030583333333336,27.930583333333338,-103.60700000000004,0.09080400000000002,0.3673133333333334,-0.11287266666666669,17.5,False
1607124647.5894618,5.2615377347633325,-4.6600220135,5.3742197390349995,-20.928250000000002,26.985875000000004,-107.57600000000002,0.08896533333333334,0.36567066666666664,-0.11284933333333336,17.5,False
1607124647.5977466,5.162295417428331,-4.614139640144999,5.318786015468333,-18.569541666666673,26.301625000000005,-111.49162500000001,0.08712666666666666,0.364028,-0.11284933333333336,17.5,False
1607124647.6061988,5.072105945596665,-4.57878568623,5.258666347643332,-16.060041666666667,25.99741666666667,-115.30225000000002,0.085288,0.36357999999999996,-0.11284933333333336,17.5,False
1607124647.6146808,4.991248481904998,-4.5372702141199985,5.210171809616666,-13.445250000000005,26.252333333333336,-118.78475000000002,0.08247866666666666,0.362348,-0.1132926666666667,17.5,False
1607124647.6229239,4.897350135043331,-4.481477567163333,5.202694238991665,-10.83541666666667,27.080958333333335,-121.8676666666667,0.07966933333333333,0.361116,-0.1132926666666667,17.5,False
1607124647.6311886,4.810151691461664,-4.417708844873332,5.225665335951665,-8.122041666666671,28.22166666666667,-124.55800000000002,0.07685999999999998,0.35988400000000004,-0.1132926666666667,17.5,False
1607124647.6395895,4.744508591468332,-4.350291068118332,5.276811919026666,-5.074416666666671,29.499458333333337,-127.06691666666671,0.07390133333333335,0.358624,-0.11269533333333337,17.5,False
1607124647.6479416,4.6935813504649975,-4.299882272011666,5.373202789429998,-1.7182083333333311,30.681875,-129.1249166666667,0.07094266666666668,0.35736400000000007,-0.11269533333333337,17.5,False
1607124647.6563625,4.630809637591665,-4.291886256489999,5.5013783200366655,1.4035000000000009,31.59129166666667,-130.78362500000003,0.06798400000000002,0.35610400000000003,-0.11269533333333337,17.5,False
1607124647.6649055,4.542155560261666,-4.319882280909999,5.635376385636665,3.869833333333335,32.053,-132.2521666666667,0.06558533333333334,0.3553106666666667,-0.11274200000000004,17.5,False
1607124647.6730814,4.440321018443332,-4.342155471278332,5.749294681584999,6.101666666666669,31.834833333333336,-133.71225,0.06318666666666667,0.35451733333333346,-0.11274200000000004,17.5,False
1607124647.6814785,4.342673916174999,-4.3425742152333315,5.823751344821664,8.268458333333333,31.154083333333336,-135.02941666666672,0.060787999999999995,0.35372400000000004,-0.11274200000000004,17.5,False
1607124647.6899014,4.241617041701667,-4.306243192089999,5.869234914409998,10.250625000000005,30.52933333333333,-135.69120833333335,0.05806266666666667,0.3535560000000001,-0.11250866666666669,17.5,False
1607124647.6984725,4.140420585909999,-4.281876281946666,5.914718483998332,11.81716666666667,30.307374999999997,-135.30329166666667,0.05533733333333334,0.35338800000000004,-0.11250866666666669,17.5,False
1607124647.7068393,4.033441475501667,-4.271886247591666,5.962814218258331,12.731541666666669,30.613041666666668,-133.8236666666667,0.052612000000000006,0.3532200000000001,-0.11250866666666669,17.5,False
1607124647.7151272,3.9308492065266667,-4.292045777996665,6.019623814819998,13.218041666666668,31.39879166666667,-131.55012500000004,0.049933333333333337,0.35229600000000005,-0.11319933333333337,17.5,False
1607124647.723556,3.836970799853334,-4.357130552716666,6.090909988111665,13.502416666666667,32.354,-128.86095833333337,0.04725466666666666,0.3513720000000001,-0.11319933333333337,17.5,False
1607124647.7318652,3.736651712348333,-4.457130597208333,6.168198158091665,13.772208333333333,33.16104166666667,-126.07000000000001,0.04457599999999999,0.3504480000000001,-0.11319933333333337,17.5,False
1607124647.740143,3.61471746069,-4.582335039753333,6.224927993899999,14.174125000000002,33.819041666666664,-123.48320833333334,0.042438666666666666,0.34960800000000014,-0.11246200000000002,17.5,False
1607124647.748613,3.475156082545,-4.70452851386,6.247958911424998,14.863333333333335,34.616458333333334,-121.39545833333337,0.040301333333333335,0.34876800000000013,-0.11246200000000002,17.5,False
1607124647.756889,3.347658518341667,-4.802235436693333,6.246443457111665,16.013375,35.76329166666666,-119.97766666666666,0.03816399999999999,0.3479280000000002,-0.11246200000000002,17.5,False
1607124647.7651372,3.2725039485133336,-4.861298274536665,6.241897094171667,17.64904166666667,37.29220833333334,-118.58116666666666,0.036596,0.3473960000000001,-0.11282600000000004,17.5,False
1607124647.773534,3.23449794955,-4.891667181368333,6.252864197755,19.281208333333336,39.04191666666667,-116.37295833333336,0.035028,0.3468640000000001,-0.11282600000000004,17.5,False
1607124647.781891,3.1872995237650006,-4.953880568968332,6.285546166433333,20.36008333333334,40.81583333333334,-113.04037500000001,0.03346000000000001,0.34633200000000014,-0.11282600000000004,17.5,False
1607124647.790699,3.1421549373783337,-5.031208619324999,6.3134624300999995,20.97783333333334,42.365458333333336,-108.82345833333335,0.03236800000000001,0.3461080000000001,-0.11270466666666669,17.5,False
1607124647.7990417,3.0700910967416664,-5.1247679829849995,6.3420766003583315,21.73616666666667,43.57704166666667,-104.23962499999999,0.031276000000000005,0.345884,-0.11270466666666669,17.5,False
1607124647.8072689,2.9873193749699998,-5.236413097463332,6.363073618673332,22.410500000000006,44.58708333333333,-99.33466666666666,0.030184000000000006,0.34566,-0.11270466666666669,17.5,False
1607124647.8156087,2.9040491484900004,-5.3733822511249985,6.369275017244999,22.754083333333337,45.64933333333333,-94.51458333333333,0.02953066666666668,0.345324,-0.11280266666666669,17.5,False
1607124647.8238478,2.8307888965533334,-5.511448115145,6.372126464176666,23.17583333333334,46.85391666666666,-89.96633333333334,0.029008000000000013,0.344904,-0.11280266666666669,17.5,False
1607124647.832398,2.7826333417283333,-5.595775171606666,6.386104536198333,24.07912500000001,48.106916666666656,-85.74095833333335,0.02848533333333334,0.34448399999999996,-0.11280266666666669,17.5,False
1607124647.8405848,2.7534807863849995,-5.633741290193333,6.419065667513334,25.424875,49.46900000000001,-81.46483333333337,0.028084000000000005,0.3441759999999999,-0.11280266666666669,17.5,False
1607124647.8489497,2.7590241587416666,-5.590630603016666,6.4619370724300005,27.817416666666666,50.98799999999999,-76.91541666666672,0.028046666666666668,0.3442506666666666,-0.1128866666666667,17.5,False
1607124647.8571565,2.7860829943099996,-5.614339486944999,6.532026834421668,30.879041666666676,52.29,-71.78879166666668,0.028009333333333337,0.34432533333333326,-0.1128866666666667,17.5,False
1607124647.8653214,2.762055067368333,-5.801717436713334,6.626922190700002,32.94929166666667,53.242875000000005,-66.02225,0.028485333333333338,0.34437199999999996,-0.1128866666666667,17.5,False
1607124647.8734684,2.750090954368333,-6.01699170996,6.695855421768334,33.987625,53.890666666666675,-60.57333333333334,0.029670666666666668,0.3448946666666666,-0.11263466666666669,17.5,False
1607124647.8816786,2.733979282195,-6.221438460941667,6.736074781636668,34.99329166666667,54.00237500000001,-55.678,0.030855999999999998,0.34541733333333335,-0.11263466666666669,17.5,False
1607124647.8900335,2.7142783761216664,-6.460680840565001,6.741239290415,35.57225000000001,53.82766666666668,-50.89816666666666,0.03233066666666665,0.346192,-0.11263466666666669,17.5,False
1607124647.8984563,2.6658635988483326,-6.665825498138334,6.716473576505,35.573125,53.89533333333335,-46.55058333333333,0.03376799999999999,0.3472373333333333,-0.11251800000000003,17.5,False
1607124647.9066966,2.5875784194516664,-6.840102744171667,6.6580887050649995,35.84670833333334,53.82008333333335,-42.95287499999999,0.035205333333333325,0.34828266666666663,-0.11251800000000003,17.5,False
1607124647.915038,2.5331616454899994,-6.943991125388333,6.560660944868333,36.944541666666666,54.078208333333336,-40.13070833333334,0.03625999999999999,0.3491039999999999,-0.11251800000000003,17.5,False
1607124647.923144,2.49260330242,-6.972306192821667,6.462834380904998,39.133791666666674,54.92258333333334,-37.83120833333333,0.03751999999999999,0.3505319999999999,-0.11177133333333336,17.5,False
1607124647.9314861,2.456551441913333,-6.970990140391667,6.3948383386883325,42.25083333333334,56.26016666666668,-35.642833333333336,0.03877999999999999,0.3519599999999999,-0.11177133333333336,17.5,False
1607124647.939835,2.4198216150033334,-7.0087169767183335,6.3566528780299985,45.45858333333334,57.74562500000001,-33.416250000000005,0.04054399999999999,0.3533039999999999,-0.11177133333333336,17.5,False
1607124647.9481943,2.4221147366616664,-7.056453787588333,6.3318871641199985,47.912958333333336,58.802625000000006,-31.133958333333336,0.04210266666666665,0.35509599999999997,-0.11178533333333336,17.5,False
1607124647.9566262,2.4511875312516667,-7.159484740706666,6.304928029493332,49.48533333333334,59.26054166666667,-28.419708333333336,0.043661333333333316,0.356888,-0.11178533333333336,17.5,False
1607124647.969877,2.5028724994116662,-7.264170729456666,6.279165306166665,50.22733333333334,59.37050000000001,-25.463083333333337,0.045527999999999985,0.3591560000000001,-0.11178533333333336,17.5,False
1607124647.993939,2.6444677767666667,-7.49097043156,6.2122859144966665,50.76691666666667,59.50233333333333,-24.451583333333343,0.04792666666666665,0.3616760000000001,-0.11172933333333336,17.5,False
1607124648.005397,2.6165913934766665,-7.616095113351666,6.146483292996667,50.853541666666665,59.85350000000001,-24.580791666666673,0.05059599999999999,0.36409333333333344,-0.11156600000000003,17.5,False
1607124648.017148,2.651167680046666,-7.7098139985183325,6.077490241363335,52.43058333333334,59.82783333333334,-24.538791666666672,0.05300399999999998,0.36657600000000007,-0.11156600000000003,17.5,False
1607124648.0382357,2.6991038927999993,-7.757132065433333,6.0144792462300005,52.85000000000001,58.582708333333336,-23.552666666666674,0.055206666666666654,0.3694506666666667,-0.11192533333333336,17.5,False
1607124648.0554707,2.731805801666666,-7.8027950967166655,5.9431930729383335,52.716708333333344,56.88725,-21.341250000000002,0.05749333333333332,0.37257733333333337,-0.11188333333333335,17.5,False
1607124648.0697315,2.688774875243333,-7.927241812105,5.816273774196668,52.49212500000001,55.669541666666674,-17.511375,0.05957466666666666,0.37548,-0.11188333333333335,17.5,False
1607124648.0883906,2.64933318272,-8.044948743836667,5.732744325268334,51.896250000000016,54.72891666666667,-14.476291666666672,0.062066666666666666,0.37829866666666667,-0.1116266666666667,17.5,False
1607124648.1033454,2.6266013680199998,-8.118089354643335,5.63090978345,51.92950000000001,53.800250000000005,-12.705583333333335,0.064876,0.38125733333333334,-0.11139333333333336,17.5,False
1607124648.1139374,2.6074388470316667,-8.204490190691667,5.542514928568333,52.25850000000001,52.98795833333333,-12.003250000000001,0.067452,0.38420666666666664,-0.11139333333333336,17.5,False
1607124648.1224022,2.5924637655933327,-8.300043573185,5.433960543281666,52.05812500000001,52.385666666666665,-12.227833333333336,0.07002799999999999,0.38715600000000006,-0.11139333333333336,17.5,False
1607124648.1307154,2.5797818058133335,-8.445626888206668,5.341438069415,51.802041666666675,51.79270833333333,-13.468875,0.072772,0.3901613333333334,-0.11118800000000002,17.5,False
1607124648.1392853,2.5835106210316665,-8.605626959393334,5.289852802196666,51.55762500000001,51.122458333333334,-15.184750000000005,0.075516,0.39316666666666666,-0.11118800000000002,17.5,False
1607124648.1475732,2.6213371583000002,-8.703912147688333,5.215675301596666,50.700416666666676,49.980000000000004,-17.17333333333334,0.07812933333333334,0.39625600000000005,-0.11118800000000002,17.5,False
1607124648.1560452,2.668136780318333,-8.833064747523334,5.144967393766667,48.18216666666668,47.98966666666667,-18.61445833333334,0.08057466666666668,0.399392,-0.11121133333333336,17.5,False
1607124648.1645133,2.7478177728983324,-9.217451758025,5.156233600174999,44.825666666666685,45.93691666666667,-19.031250000000007,0.08302000000000002,0.40252800000000005,-0.11121133333333336,17.5,False
1607124648.172858,2.6826532374249994,-9.487162745421667,5.085545632533333,40.89020833333335,43.523958333333326,-18.617083333333337,0.08510133333333335,0.40528133333333344,-0.11121133333333336,17.5,False
1607124648.1811671,2.6499712687466666,-9.539425979043333,4.973302312405,36.67212500000001,41.13345833333333,-18.406500000000005,0.08704266666666668,0.40792266666666677,-0.11122066666666669,17.5,False
1607124648.189259,2.59968211377,-9.502696152133334,4.765884473361667,34.39741666666667,38.01145833333333,-19.453583333333338,0.08898400000000002,0.4105640000000001,-0.11122066666666669,17.5,False
1607124648.197599,2.563271329873333,-9.445088948038334,4.637708942755,33.75720833333333,34.91045833333333,-20.725541666666672,0.09021600000000002,0.4127293333333334,-0.11122066666666669,17.5,False
1607124648.2059,2.54129724233,-9.424530613866665,4.561756765393333,32.15741666666667,32.56575000000001,-21.255500000000005,0.09136400000000001,0.4149786666666667,-0.11136533333333336,17.5,False
1607124648.214797,2.4703101718633333,-9.371150729698334,4.447260203983333,29.96816666666667,30.713083333333337,-21.32958333333334,0.09251200000000001,0.41722800000000004,-0.11136533333333336,17.5,False
1607124648.222986,2.4051057560133335,-9.371051028756666,4.362853386768333,28.760375,28.545125000000002,-21.25170833333334,0.09369733333333335,0.41920666666666667,-0.11136533333333336,17.5,False
1607124648.231221,2.3652054391583333,-9.298488683411668,4.267898209924999,27.370291666666667,26.76041666666667,-20.845416666666672,0.09483600000000002,0.4213533333333333,-0.11147266666666669,17.5,False
1607124648.2396476,2.323171522151667,-9.262975207989998,4.226901182711666,25.67366666666667,25.0285,-19.98354166666667,0.0959746666666667,0.4235,-0.11147266666666669,17.5,False
1607124648.2478588,2.3077178761933337,-9.30169905373333,4.183910136664999,23.461666666666662,22.826708333333336,-18.87345833333334,0.09690800000000002,0.42504,-0.11147266666666669,17.5,False
1607124648.2560916,2.2637896412950003,-9.36187854212333,4.080121456389999,21.164791666666666,20.82966666666667,-17.950625,0.09761733333333336,0.4265053333333333,-0.11096866666666669,17.5,False
1607124648.2646456,2.319422766745,-9.45717270216833,4.038406582396665,19.338958333333334,19.119333333333337,-17.511083333333332,0.09832666666666669,0.4279706666666667,-0.11096866666666669,17.5,False
1607124648.2729197,2.3819352571699994,-9.612686230979996,4.016970879938332,17.983875000000005,17.61579166666667,-17.666541666666667,0.09924133333333336,0.42898800000000004,-0.11096866666666669,17.5,False
1607124648.2811997,2.4155942950766662,-9.745128961889996,4.003670774319998,17.397625,16.005500000000005,-18.948416666666667,0.10011866666666669,0.43045333333333335,-0.11135133333333336,17.5,False
1607124648.2894645,2.4421546259366664,-9.866983452794996,3.972823302968332,17.817041666666668,13.956250000000002,-21.205333333333336,0.10099600000000004,0.4319186666666667,-0.11135133333333336,17.5,False
1607124648.2979004,2.3320449059599997,-9.810014334726663,3.9630326704966654,18.408541666666668,11.189500000000002,-21.882583333333336,0.10134133333333335,0.43313200000000013,-0.11135133333333336,17.5,False
1607124648.3062794,2.3589043396449996,-9.819605565314996,3.9472799217133328,18.949,7.680750000000002,-21.880833333333335,0.10091200000000003,0.4346906666666668,-0.11117866666666669,17.5,False
1607124648.3147666,2.3088145865516663,-9.824510851644998,3.943112422351666,17.574958333333335,4.449083333333332,-22.31979166666667,0.10048266666666668,0.43624933333333354,-0.11117866666666669,17.5,False
1607124648.3231094,2.352683000885,-9.870752148389998,3.8904503849633323,16.767916666666668,2.351999999999997,-23.632000000000005,0.10025866666666666,0.43741600000000014,-0.11117866666666669,17.5,False
1607124648.3313885,2.3684955702333332,-9.944710306918331,3.8363725942033327,15.668916666666666,0.42612499999999687,-25.917791666666673,0.09961466666666666,0.4384240000000002,-0.11079133333333337,17.5,False
1607124648.3396564,2.351466649396667,-10.041719323159999,3.88977241856,13.403833333333333,-2.1049583333333333,-29.899333333333338,0.09897066666666664,0.43943200000000016,-0.11079133333333337,17.5,False
1607124648.3482463,2.29890431295,-10.137950672056665,3.7463227036899998,11.28225,-3.945083333333334,-33.565875,0.09791599999999996,0.44052400000000014,-0.11079133333333337,17.5,False
1607124648.3567524,2.3168106020733332,-10.207601749904995,3.5816167480566663,9.659416666666665,-5.679916666666668,-36.37433333333333,0.09597466666666664,0.4409066666666668,-0.11095466666666669,17.5,False
1607124648.3650184,2.303370915136667,-10.256275749626663,3.396033415238333,9.4185,-7.322000000000001,-38.256458333333335,0.09403333333333332,0.4412893333333334,-0.11095466666666669,17.5,False
1607124648.3732712,2.2893330225499997,-10.263015533283331,3.3181270994200007,11.010416666666666,-9.006083333333335,-39.552625000000006,0.092092,0.44167199999999995,-0.11095466666666669,17.5,False
1607124648.3817294,2.2354945140499995,-10.264112243641668,3.438107212621667,12.231916666666669,-10.481333333333334,-40.05195833333334,0.08998266666666664,0.4419986666666666,-0.11095466666666669,17.5,False
1607124648.3900201,2.195015931733333,-10.140183973149998,3.415834022253334,12.871541666666667,-12.040875,-40.28441666666667,0.08792933333333332,0.44243733333333324,-0.11081000000000002,17.5,False
1607124648.398582,2.143809528093333,-10.039765184703333,3.4454252617400005,13.827916666666665,-13.141041666666666,-40.26779166666667,0.08587600000000001,0.4428759999999999,-0.11081000000000002,17.5,False
1607124648.4069932,2.1013568671316665,-9.899206797141666,3.455614697978334,16.079583333333336,-13.6535,-40.525625000000005,0.08399066666666669,0.44326799999999983,-0.11081000000000002,17.5,False
1607124648.415242,2.010469488708333,-9.556415019503332,3.383730319036667,18.877833333333335,-14.548916666666665,-41.37904166666667,0.08140533333333334,0.4435853333333331,-0.1106466666666667,17.5,False
1607124648.42356,2.027279067473333,-9.425826726108333,3.384567806946667,20.885958333333335,-15.869291666666667,-42.87295833333334,0.07882000000000002,0.44390266666666645,-0.1106466666666667,17.5,False
1607124648.432127,1.9642082517749995,-9.457451864804998,3.380958632858333,22.172500000000007,-17.619000000000003,-44.383208333333336,0.07637466666666667,0.44433199999999984,-0.1106466666666667,17.5,False
1607124648.440528,1.9637496274433333,-9.453942391658332,3.409512982551666,22.25416666666667,-18.893291666666666,-45.03916666666667,0.07380800000000001,0.4450973333333332,-0.11017066666666668,17.5,False
1607124648.4523296,1.9379869041166664,-9.449515669848333,3.352523924295,21.620375000000006,-20.238458333333334,-44.70462499999999,0.07124133333333335,0.4458626666666665,-0.11017066666666668,17.5,False
1607124648.46069,1.8939390280883333,-9.42760140287,3.2673793201116665,22.134291666666673,-21.881125000000004,-43.162875,0.06835733333333334,0.44645999999999986,-0.10994200000000003,17.5,False
1607124648.469081,1.901755581915,-9.423573484826665,3.2187850811433334,23.073166666666673,-23.54041666666667,-41.22737500000001,0.06547333333333334,0.4470573333333332,-0.10994200000000003,17.5,False
1607124648.4772298,1.9198413327333332,-9.385388024168332,3.1500512519583332,22.792583333333337,-24.573208333333337,-38.82083333333334,0.06258933333333334,0.44765466666666653,-0.10994200000000003,17.5,False
1607124648.4856348,1.90672068881,-9.41025343902,3.0854251015700007,22.427125000000007,-25.453166666666668,-36.187375,0.060004000000000016,0.44813066666666657,-0.10980200000000002,17.5,False
1607124648.4940107,1.9379270835516667,-9.397651239993332,3.037648410323334,22.340500000000006,-26.197499999999998,-33.263708333333334,0.057418666666666694,0.4486066666666666,-0.10980200000000002,17.5,False
1607124648.5026548,1.9534604902633332,-9.382018132339999,2.947419058115001,22.20545833333334,-25.693791666666666,-30.02416666666667,0.05483333333333336,0.4490826666666666,-0.10980200000000002,17.5,False
1607124648.5109627,2.0720248500933334,-9.446285359338331,3.017568640671668,21.129791666666666,-25.206999999999997,-26.635583333333336,0.05247200000000004,0.4496333333333332,-0.10980200000000002,17.5,False
1607124648.5191805,2.1428523990533335,-9.582616426973333,3.059004352028334,19.754,-25.45520833333334,-23.765000000000004,0.050260000000000034,0.4506973333333332,-0.10982533333333336,17.5,False
1607124648.5273573,2.114557271808333,-9.641061118978334,2.9661428949600004,18.721208333333333,-26.086666666666662,-21.905625000000004,0.048048000000000014,0.4517613333333332,-0.10982533333333336,17.5,False
1607124648.5355983,1.9841883204849997,-9.536095967591667,2.89328144679,17.918833333333332,-26.530583333333333,-20.08270833333334,0.045873333333333356,0.45237733333333324,-0.10982533333333336,17.5,False
1607124648.5437856,1.8790237672149996,-9.475756957695,2.7915864862900004,17.50554166666667,-26.877666666666673,-17.617833333333333,0.043857333333333345,0.45288133333333325,-0.10963866666666669,17.5,False
1607124648.5522776,1.8237894455316666,-9.495996248853329,2.6926233315916672,17.626,-26.51775,-15.069833333333337,0.041841333333333355,0.45338533333333325,-0.10963866666666669,17.5,False
1607124648.5606124,1.7920446657049998,-9.48917670444333,2.59716965004,18.090625,-25.623499999999996,-12.203041666666673,0.04032933333333333,0.4536466666666666,-0.10963866666666669,17.5,False
1607124648.5697184,1.7469399596949995,-9.50688359168333,2.5127827730133334,18.74775,-24.45566666666667,-9.177583333333333,0.03909733333333332,0.4541413333333333,-0.10933066666666669,17.5,False
1607124648.578097,1.6108282341316664,-9.532626374821666,2.460718941275,19.940083333333337,-22.979833333333332,-5.992583333333334,0.03786533333333331,0.454636,-0.10933066666666669,17.5,False
1607124648.5865934,1.5209378651249996,-9.574361189003332,2.4162323811033333,21.57225,-21.213208333333334,-2.9647916666666676,0.03696933333333332,0.45503733333333335,-0.10933066666666669,17.5,False
1607124648.594886,1.504088405983333,-9.557870653251666,2.3275384233966663,24.10916666666667,-19.336625000000005,-0.12425000000000021,0.03631599999999998,0.455644,-0.10953133333333336,17.5,False
1607124648.6030703,1.5312070621166665,-9.542616409176668,2.3686152113633328,26.91266666666667,-18.51791666666667,2.5885416666666665,0.03566266666666664,0.4562506666666666,-0.10953133333333336,17.5,False
1607124648.6113641,1.4907284797999998,-9.562496776945,2.428794699753333,29.124666666666666,-17.97308333333333,5.077916666666668,0.035578666666666654,0.4574266666666666,-0.10953133333333336,17.5,False
1607124648.619668,1.4891731451099994,-9.548698166618331,2.512184567363333,30.062083333333337,-17.28154166666667,7.1493333333333355,0.03541066666666666,0.45873333333333327,-0.10939600000000002,17.5,False
1607124648.62806,1.4807583856333328,-9.54217772503333,2.4806990099849995,29.441125,-16.4185,9.559083333333337,0.035242666666666665,0.46004,-0.10939600000000002,17.5,False
1607124648.636684,1.5497913176433329,-9.478548584061665,2.2552751808766662,29.746500000000005,-15.226750000000001,11.70341666666667,0.03507466666666667,0.4613466666666667,-0.10939600000000002,17.5,False
1607124648.6450088,1.586880067943333,-9.507382096391666,2.132224278671666,30.624125000000003,-13.527208333333332,14.480375000000006,0.035065333333333344,0.4625786666666667,-0.10892933333333336,17.5,False
1607124648.653231,1.5537394749333333,-9.559505748694997,2.059103608053333,31.295250000000003,-12.437541666666666,16.822166666666675,0.035056000000000004,0.4638106666666667,-0.10892933333333336,17.5,False
1607124648.6616547,1.53332072208,-9.694022259191664,1.9970696821483327,32.142541666666666,-11.155375000000001,18.550583333333336,0.03504666666666667,0.46504266666666677,-0.10892933333333336,17.5,False
1607124648.6700168,1.509452316645,-9.810871762824997,1.9214963683649997,32.521125000000005,-10.147666666666668,20.088541666666668,0.03586800000000001,0.4664893333333334,-0.10857933333333335,17.5,False
1607124648.6785707,1.445723474731667,-9.874919647751664,1.8545172757533332,32.920125,-9.193916666666668,21.18083333333334,0.036689333333333345,0.4679360000000001,-0.10857933333333335,17.5,False
1607124648.6869075,1.3960923459700003,-9.938449087781661,1.8093926295549998,33.81320833333334,-8.35391666666667,21.48358333333334,0.03751066666666668,0.4693826666666668,-0.10857933333333335,17.5,False
1607124648.6951947,1.3296915188200003,-9.956195855398331,1.7720845371833331,35.217000000000006,-7.666750000000006,21.210583333333336,0.03837866666666667,0.4706520000000001,-0.10805200000000001,17.5,False
1607124648.7033498,1.324586830606667,-10.000423193121666,1.7411772452666665,36.79404166666668,-7.081083333333337,20.498333333333335,0.03924666666666667,0.47192133333333347,-0.10805200000000001,17.5,False
1607124648.7115958,1.335713455696667,-10.034481034794997,1.6853646581216666,37.60925000000001,-6.305250000000002,18.604833333333335,0.040516,0.47327466666666684,-0.10805200000000001,17.5,False
1607124648.7201698,1.335952737956667,-10.068239773643333,1.65966175536,38.13775,-5.657750000000001,16.366000000000003,0.041636,0.4748706666666669,-0.10792133333333334,17.5,False
1607124648.7286196,1.3383854409333333,-10.095378369965,1.6292529681516663,38.589541666666676,-5.419749999999999,14.112875,0.042756,0.47646666666666687,-0.10792133333333334,17.5,False
1607124648.7369926,1.3397014933633333,-10.150094246751667,1.6396418062733333,38.92670833333333,-5.223458333333334,12.015208333333339,0.043623999999999996,0.4780160000000002,-0.10792133333333334,17.5,False
1607124648.7452605,1.3186645946716666,-10.21172936889,1.5722240295183336,39.23966666666668,-5.315625,9.750125000000006,0.04439866666666666,0.4796866666666668,-0.10781866666666669,17.5,False
1607124648.7536767,1.2729616830116666,-10.290473172618332,1.5499907195266671,39.77691666666667,-6.131124999999999,7.499041666666672,0.04517333333333333,0.48135733333333347,-0.10781866666666669,17.5,False
1607124648.7620254,1.1692727036783332,-10.301081352811666,1.4175679288050005,40.625666666666675,-6.882458333333333,5.4661250000000035,0.045947999999999996,0.4830280000000001,-0.10781866666666669,17.5,False
1607124648.7703025,1.0262018523866663,-10.201300650391666,1.2476575840166673,41.20404166666667,-6.675375000000001,4.38491666666667,0.04628399999999999,0.48438133333333344,-0.10705800000000001,17.5,False
1607124648.7787611,0.9424131810099998,-10.127382372239996,1.1803594483916673,41.509708333333336,-5.593583333333333,4.5135416666666694,0.046619999999999995,0.48573466666666676,-0.10705800000000001,17.5,False
1607124648.7870533,0.9753543721366662,-10.178907818893329,1.1087342918983338,41.78475000000001,-4.199125,4.475333333333335,0.04695599999999999,0.4870880000000001,-0.10705800000000001,17.5,False
1607124648.7952523,0.9621340272716663,-10.189356477579997,1.069172958245,41.498333333333335,-2.582708333333334,3.8663333333333356,0.04735733333333333,0.4882173333333334,-0.107338,17.5,False
1607124648.8037543,0.9216554449549996,-10.15916703244333,1.0197013509900001,40.56354166666667,-1.1497499999999998,3.144458333333336,0.04775866666666666,0.48934666666666676,-0.107338,17.5,False
1607124648.8120964,0.9345766869949995,-10.180881897538331,0.9733802934916668,39.72675000000001,0.09654166666666661,2.606625000000001,0.048159999999999994,0.490476,-0.107338,17.5,False
1607124648.8203273,0.9404391023649994,-10.214700456951668,0.8731609069283334,39.10170833333335,1.011499999999999,2.2895833333333337,0.04826266666666666,0.49182,-0.10710466666666668,17.5,False
1607124648.8288832,0.9377870573166661,-10.21878819556,0.8092526033200002,38.12520833333335,1.9629166666666658,2.218708333333333,0.04836533333333334,0.49316399999999994,-0.10710466666666668,17.5,False
1607124648.837054,0.8079963714549995,-10.184650593133332,0.7841877865849999,37.213750000000005,3.159916666666667,2.7521666666666667,0.04846799999999999,0.49450799999999995,-0.10710466666666668,17.5,False
1607124648.8452222,0.8015158102466662,-10.169854973389997,0.7710073220966668,36.608250000000005,4.132916666666666,3.744708333333333,0.048327999999999996,0.4956466666666666,-0.10710466666666668,17.5,False
1607124648.856968,0.7618747158399997,-10.171071324878332,0.6865805646933333,36.44433333333335,5.846750000000001,5.113499999999999,0.04868266666666666,0.496888,-0.10716533333333335,17.5,False
1607124648.8651588,0.7477770026883329,-10.173145104464998,0.6894519518133333,37.156,7.713125000000001,6.934375,0.049037333333333336,0.49812933333333337,-0.10716533333333335,17.5,False
1607124648.8732228,0.8747760621833331,-10.292267789568331,1.2464013521516668,36.354791666666664,8.043291666666669,8.931416666666667,0.05036266666666667,0.4992306666666667,-0.10715600000000002,17.5,False
1607124648.8815167,0.8541977878233332,-10.397252881143334,1.2271989507866663,34.649708333333336,10.005625000000002,10.451291666666666,0.051688,0.5003320000000001,-0.10715600000000002,17.5,False
1607124648.8897278,0.787298455965,-10.513544059503335,1.2230713318016664,31.165166666666668,11.638375000000002,11.707208333333336,0.05301333333333334,0.5014333333333334,-0.10715600000000002,17.5,False
1607124648.8980308,0.7359724111949999,-10.665587995545,1.2242677431016666,27.1565,12.721916666666667,12.58541666666667,0.054497333333333335,0.5022173333333334,-0.10737533333333335,17.5,False
1607124648.9063377,0.7026523564899999,-10.808957949661668,1.15537439241,23.17991666666667,14.958708333333336,14.020416666666671,0.05598133333333334,0.5030013333333333,-0.10737533333333335,17.5,False
1607124648.9146967,0.6626722788816667,-10.936595095183334,1.1562916410733333,18.768750000000004,17.57116666666667,16.359000000000005,0.05746533333333335,0.5037853333333333,-0.10737533333333335,17.5,False
1607124648.9236186,0.6415954998133333,-11.026545284755002,1.1601999179866664,13.853000000000003,20.771333333333338,18.977583333333335,0.05936000000000001,0.504056,-0.10831800000000001,17.5,False
1607124648.9318545,0.6862814618683333,-11.102178419103335,1.1695718065033334,8.579375000000002,24.509916666666673,22.140708333333336,0.06125466666666668,0.5043266666666667,-0.10831800000000001,17.5,False
1607124648.9400556,0.7599205773833333,-11.149117622440002,1.1607582432599997,3.1360000000000037,28.535500000000006,26.072958333333336,0.06314933333333334,0.5045973333333332,-0.10831800000000001,17.5,False
1607124648.9486165,0.8523034699316665,-11.22686441675167,1.1684750961449997,-1.9789583333333298,32.749500000000005,30.230958333333334,0.06511866666666667,0.5047093333333332,-0.10831800000000001,17.5,False
1607124648.9569967,0.9090333057399999,-11.280244300920003,1.1867602488466664,-6.004541666666664,36.73366666666667,34.20375000000001,0.068264,0.5045413333333333,-0.10875200000000002,17.5,False
1607124648.9652214,0.9647262517549999,-11.340024985543335,1.215214897598333,-8.359166666666663,40.01229166666667,37.748958333333334,0.07140933333333334,0.5043733333333333,-0.10875200000000002,17.5,False
1607124648.9736006,1.0276176057583333,-11.381899381043336,1.237627669285,-9.3135,42.86508333333333,40.80708333333334,0.074704,0.5039626666666667,-0.10875200000000002,17.5,False
1607124648.9819894,1.0988439584849998,-11.436754839148337,1.2386047385133332,-9.430749999999994,45.62133333333333,43.33612500000001,0.07874533333333335,0.5036266666666667,-0.10855600000000001,17.5,False
1607124648.9902613,1.2213165952283334,-11.456356044280003,1.1960922569866665,-9.270624999999997,48.23233333333333,45.38070833333333,0.08278666666666665,0.5032906666666667,-0.10855600000000001,17.5,False
1607124648.9987962,1.334536984585,-11.48857938862667,1.1612966283449997,-9.28170833333333,50.85995833333333,47.169791666666676,0.08692133333333334,0.5028333333333334,-0.10855600000000001,17.5,False
1607124649.0071483,1.4620345487883333,-11.492846588930004,1.124586741623333,-9.533125,53.26212499999999,48.60800000000001,0.09128,0.5022826666666667,-0.10834600000000001,17.5,False
1607124649.0153463,1.58799671849,-11.49145077574667,1.0753145362516665,-9.387,55.1635,49.80704166666667,0.09563866666666666,0.501732,-0.10834600000000001,17.5,False
1607124649.0236514,1.7156139238233334,-11.495020069458333,1.0173484087666664,-8.655791666666667,56.432249999999996,50.71295833333334,0.10028666666666666,0.5009853333333333,-0.10834600000000001,17.5,False
1607124649.032248,1.8404993233549998,-11.497552473376667,0.9625727114149998,-7.531125,57.092291666666675,51.464875,0.10531733333333333,0.500444,-0.10812200000000001,17.5,False
1607124649.0405161,1.9565312792666667,-11.503075905544998,0.8776673894916663,-6.063166666666668,57.11475,52.56037500000001,0.11034800000000002,0.49990266666666666,-0.10812200000000001,17.5,False
1607124649.0489442,2.07421827081,-11.495359052659998,0.7744968550549999,-4.216333333333334,56.670833333333334,53.806666666666665,0.11515466666666668,0.4996973333333334,-0.10812200000000001,17.5,False
1607124649.057203,2.2336400765349995,-11.45775185746333,0.6760322050649997,-2.3753333333333333,55.771625,55.219500000000004,0.12025066666666669,0.4998093333333333,-0.10761800000000002,17.5,False
1607124649.065402,2.357448705896666,-11.37478073380833,0.5588237780416663,-1.0479583333333342,54.57258333333334,56.51333333333334,0.1253466666666667,0.49992133333333333,-0.10761800000000002,17.5,False
1607124649.073746,2.5282762993483328,-11.23779163995833,0.467637296793333,0.04024999999999845,53.032875000000004,57.65258333333335,0.13046133333333337,0.49958533333333327,-0.10761800000000002,17.5,False
1607124649.0825589,2.7018157584133324,-11.114541335869998,0.3683949794583334,1.1818333333333295,50.721708333333346,58.46575,0.1355946666666667,0.49905333333333324,-0.10735200000000002,17.5,False
1607124649.090973,3.0039694322283323,-10.992826426283331,0.2388635160449998,2.5255416666666646,47.61545833333334,58.67225,0.14072800000000005,0.4985213333333332,-0.10735200000000002,17.5,False
1607124649.0991979,3.174497922854999,-10.857811411078332,0.09288139725666657,3.766583333333332,44.11866666666667,58.376791666666676,0.14586133333333337,0.49798933333333323,-0.10735200000000002,17.5,False
1607124649.107395,3.3710682994449996,-10.714680739221667,0.020398812665000054,4.52958333333333,39.58704166666667,57.75291666666667,0.15074266666666672,0.49777466666666653,-0.10701133333333335,17.5,False
1607124649.1233456,3.5271999740949997,-10.59039354534,-0.10737791417500005,4.58820833333333,35.00554166666667,56.473958333333336,0.155624,0.49755999999999995,-0.10701133333333335,17.5,False
1607124649.1354108,3.5038101331799996,-10.420363559421666,-0.73112694543,5.522416666666662,32.258625,55.178666666666665,0.15918000000000002,0.49736400000000003,-0.10686200000000001,17.5,False
1607124649.1516857,3.62919403742,-10.290493112806667,-0.728674302265,6.085333333333328,28.357583333333334,54.519791666666656,0.16273600000000002,0.4971680000000001,-0.10686200000000001,17.5,False
1607124649.1604207,3.76905451839,-10.142457154619997,-0.7716653483116667,6.732541666666665,24.21825000000001,54.05895833333332,0.16648800000000002,0.4971493333333334,-0.10654466666666669,17.5,False
1607124649.1832855,3.9005401202599996,-9.965448102784997,-0.7837690426299999,7.579833333333332,19.901000000000007,52.97774999999999,0.1698666666666667,0.49741066666666683,-0.10654466666666669,17.5,False
1607124649.2032764,4.040300900288333,-9.814520817290001,-0.7341977344333334,8.012958333333334,14.879666666666674,51.310875,0.17336666666666672,0.49763466666666667,-0.10746866666666668,17.5,False
1607124649.2135062,4.139244114798333,-9.648379168096664,-0.7010770816116665,7.795958333333332,10.491541666666668,49.478625,0.17666133333333336,0.49782133333333334,-0.10768333333333335,17.5,False
1607124649.235162,4.229393706253333,-9.507940421665,-0.6607580208016665,8.257374999999998,6.510875000000007,47.37016666666668,0.17917200000000003,0.4980173333333334,-0.10829466666666668,17.5,False
1607124649.2533262,4.251886238693333,-9.437372095153332,-0.6542774595933333,9.806125000000005,2.770250000000002,44.80554166666666,0.1816826666666667,0.4982133333333334,-0.10829466666666668,17.5,False
1607124649.2617059,4.229692809078333,-9.390911456336664,-0.6443472458033334,11.790916666666678,-0.6066666666666656,42.237416666666675,0.18438933333333338,0.49833466666666676,-0.10833666666666668,17.5,False
1607124649.270114,4.202294990308333,-9.320163668129997,-0.6448656907,13.151833333333347,-3.38391666666667,39.860916666666675,0.18709600000000004,0.4984560000000001,-0.10833666666666668,17.5,False
1607124649.2784011,4.1737805209916665,-9.23200809550833,-0.6631907237783331,13.193250000000011,-5.449208333333335,37.744583333333345,0.1886266666666667,0.4988573333333335,-0.10833666666666668,17.5,False
1607124649.286846,4.1430128103933335,-9.115816618089998,-0.6924629202516664,11.625833333333343,-6.801083333333335,35.87704166666666,0.1904466666666667,0.49861466666666676,-0.1085466666666667,17.5,False
1607124649.2951171,4.100899132633334,-9.000781671595,-0.7344170765049999,8.372583333333342,-7.686000000000002,34.22445833333334,0.19226666666666672,0.49837200000000004,-0.1085466666666667,17.5,False
1607124649.303303,4.052942979691667,-8.874181415866666,-0.7696713294783332,3.826375000000011,-8.374333333333334,32.798791666666666,0.19334000000000004,0.4980546666666667,-0.1085466666666667,17.5,False
1607124649.3115437,3.9873397600750007,-8.741918146651665,-0.7945367443299998,-1.6388749999999892,-8.984791666666668,31.726041666666667,0.19454400000000005,0.497364,-0.10933066666666669,17.5,False
1607124649.3199997,3.91310243891,-8.601040716076664,-0.8081558929616667,-7.44099999999999,-9.653875,30.86825,0.1957480000000001,0.49667333333333324,-0.10933066666666669,17.5,False
1607124649.3317726,3.8389847588750006,-8.441200166396666,-0.8122236913816666,-12.96749999999999,-10.505833333333332,30.069958333333332,0.1967280000000001,0.4960759999999999,-0.10933066666666669,17.5,False
1607124649.3399618,3.776930892781667,-8.267241963376668,-0.7879166018033334,-17.43349999999999,-11.482041666666664,29.038916666666662,0.19795066666666677,0.49524533333333326,-0.11020333333333336,17.5,False
1607124649.3491046,3.7274592855266673,-8.084888941068334,-0.7388836786916669,-21.06445833333333,-12.43025,27.746249999999996,0.19917333333333342,0.4944146666666666,-0.11020333333333336,17.5,False
1607124649.3573637,3.6797822952216666,-7.912685474621666,-0.672084047775,-23.91433333333334,-13.043333333333333,26.09920833333333,0.20001333333333343,0.49337866666666663,-0.11020333333333336,17.5,False
1607124649.3658128,3.6411382102316665,-7.745905739401667,-0.6255835285816667,-26.42995833333333,-13.066083333333333,23.996875,0.20114266666666672,0.4921093333333333,-0.11011933333333336,17.5,False
1607124649.3741856,3.6308091926750006,-7.586902677631667,-0.5775276746983333,-28.560291666666675,-12.465541666666667,21.46229166666667,0.20227200000000006,0.4908399999999999,-0.11011933333333336,17.5,False
1607124649.3827257,3.587219940978333,-7.509116002943333,-0.5156732104883334,-30.833833333333345,-11.296250000000002,18.72675,0.20311200000000004,0.48925333333333326,-0.11011933333333336,17.5,False
1607124649.3911307,3.545644648303333,-7.490113003461667,-0.4683750837616667,-32.891833333333345,-9.609250000000001,15.705958333333333,0.20395200000000005,0.48757333333333325,-0.10978333333333336,17.5,False
1607124649.3992786,3.5022348583016667,-7.519106037298332,-0.4134996854683332,-35.274166666666666,-7.761541666666664,12.861333333333334,0.204792,0.48589333333333323,-0.10978333333333336,17.5,False
1607124649.4075215,3.466900844575,-7.581159903391667,-0.3445465142116666,-38.0555,-5.695958333333332,10.159333333333329,0.20561333333333334,0.4844093333333332,-0.10978333333333336,17.5,False
1607124649.4159555,3.4393634444866663,-7.650990442935,-0.2559323172583333,-41.349875,-3.268708333333327,7.601999999999996,0.20615466666666665,0.48293466666666657,-0.10976933333333336,17.5,False
1607124649.4243352,3.4279576567599994,-7.719465049671666,-0.13906287343666665,-44.93241666666667,-0.3085833333333324,5.252041666666665,0.206696,0.4814599999999999,-0.10976933333333336,17.5,False
1607124649.4329803,3.4065618346783326,-7.787381331135,-0.014656038424999933,-48.73866666666667,3.145333333333333,2.8542499999999973,0.20699466666666666,0.4795653333333332,-0.10976933333333336,17.5,False
1607124649.4413173,3.4120852668466655,-7.869654548198334,0.11134601165333333,-52.707666666666675,6.799041666666664,0.6352499999999982,0.207424,0.4774466666666665,-0.1102686666666667,17.5,False
1607124649.4497004,3.436392356424999,-7.907540906031666,0.1707478326983333,-56.184625000000004,10.097208333333331,-1.6056250000000027,0.208292,0.47531866666666656,-0.1102686666666667,17.5,False
1607124649.4580832,3.464587782728332,-7.956115204811665,0.21022940559833328,-58.28316666666667,12.839166666666669,-4.206708333333334,0.20915999999999998,0.47319066666666654,-0.1102686666666667,17.5,False
1607124649.4665394,3.4899317620999994,-8.02871743053333,0.25385853767166666,-59.05054166666667,15.560708333333336,-6.604208333333337,0.21000933333333333,0.4707826666666665,-0.11043200000000003,17.5,False
1607124649.474914,3.5292737536816654,-8.103971701303331,0.2913660319266666,-59.11995833333334,18.37966666666667,-8.484875,0.2108586666666667,0.4683746666666665,-0.11043200000000003,17.5,False
1607124649.4831443,3.5921052871199994,-8.178966749624998,0.28965117573000004,-58.37008333333333,21.164791666666666,-9.701708333333334,0.2115866666666667,0.4660039999999998,-0.11043200000000003,17.5,False
1607124649.491353,3.6764522837699993,-8.226563979176664,0.26715864328999994,-56.72625000000001,22.815041666666666,-10.934291666666669,0.21228666666666668,0.46346533333333306,-0.11032000000000002,17.5,False
