window size: 20,acc threshold: 14
time,aX,aY,aZ,gX,gY,gZ,faX,faY,faZ,fgX,fgY,fgZ,temp,punchReg,punchCount
0.08972740173339844,6.3158552527,-6.5036918268,-0.0023928226,-14.560000000000002,-15.610000000000001,0.8400000000000001,6.2931234379999985,-6.158228063924999,-0.8067401395899998,-51.02300000000001,-36.288,-3.4615,16.5,False,0
0.10012030601501465,6.1722858967,-6.5228344075999996,-0.015553346899999999,-35.84,-14.420000000000002,1.05,6.344389662204999,-6.232166282264998,-0.7256234534500001,-3.300500000000001,-20.314000000000004,-0.04900000000000014,16.5,False,0
0.11070013046264648,5.947360572299999,-6.666403763599999,-0.062213387599999996,-24.290000000000003,-13.860000000000001,1.61,6.333621960504999,-6.280860222174999,-0.6375675817700002,-0.23100000000000076,-18.739,0.5250000000000001,16.5,False,0
0.12113189697265625,5.7499527077999995,-6.823133643899999,-0.041874395499999995,-29.680000000000003,-13.72,3.22,6.316214176089998,-6.332724652029999,-0.5583651537100001,-1.0220000000000014,-18.1895,0.8400000000000001,16.5,False,0
0.13155484199523926,5.6303115778,-6.979863524199999,-0.0131605243,-35.84,-14.63,4.550000000000001,6.30137867597,-6.384529261319999,-0.4809573426000001,-2.954000000000001,-17.8395,1.1130000000000002,16.5,False,0
0.1418745517730713,5.838487143999999,-7.037291266599999,0.044267218100000005,-41.300000000000004,-15.680000000000001,6.300000000000001,6.287859228279999,-6.435675844395,-0.40677984200000017,-5.848500000000001,-17.6435,1.3860000000000003,16.5,False,0
0.15210938453674316,5.986842145199999,-7.0552374361,0.2656033086,-44.800000000000004,-15.890000000000002,7.140000000000001,6.2857655085049995,-6.484130502045,-0.331585391795,-9.317000000000002,-18.4345,1.6520000000000004,16.5,False,0
0.16256332397460938,6.2297136391,-6.808776708299999,0.39242290639999994,-46.830000000000005,-15.820000000000002,7.420000000000001,6.2894145629699985,-6.521159431779999,-0.25363919560000003,-12.943000000000001,-18.3505,1.9005000000000003,16.5,False,0
0.17308807373046875,6.0478591215,-6.7549381998,0.4761716973999999,-46.690000000000005,-13.930000000000001,7.700000000000001,6.2857655085049995,-6.552744690099999,-0.17898313047999997,-16.334500000000002,-18.1545,2.1735,16.5,False,0
0.19722485542297363,5.458028350599999,-6.991827637199999,0.5706881900999999,-36.330000000000005,-9.31,8.75,6.274100498329998,-6.582296049209999,-0.09852447055499997,-18.945500000000003,-17.703,2.4885000000000006,16.5,False,0
0.2119615077972412,5.274977421699999,-7.061219492599999,0.5611168996999999,-31.220000000000002,-8.610000000000001,12.32,6.230192203619999,-6.61220633171,-0.024945175604999988,-20.996500000000005,-17.097500000000004,2.9645000000000006,16.5,False,0
0.2256014347076416,5.4352965359,-6.924828604399999,0.5443671415,-25.900000000000002,-10.99,15.820000000000002,6.184608933089999,-6.638647021440001,0.040498522505000016,-22.487500000000004,-16.464000000000002,3.5945,16.5,False,0
0.24201321601867676,5.8408799666,-6.5874406178,0.5970092387,-23.660000000000004,-14.420000000000002,16.87,6.1438711283249985,-6.652286110259999,0.10211370445499998,-23.523500000000006,-15.995000000000001,4.3645000000000005,16.5,False,0
0.2650628089904785,6.084947871799999,-6.5036918268,0.9176474671,-21.910000000000004,-16.17,14.840000000000002,6.113542101869999,-6.654200368339998,0.15822539442499997,-24.377500000000005,-15.743000000000004,5.1240000000000006,16.5,False,0
0.28144240379333496,5.9198431124,-6.5419769884,1.1880364209,-26.67,-11.9,10.71,6.080999714509999,-6.660242245405,0.225463709485,-25.126500000000004,-15.421000000000001,5.817000000000001,16.5,False,0
0.29988622665405273,5.889932829899999,-6.705885336499999,1.3555340028999998,-41.02,-4.2700000000000005,9.870000000000001,6.04869660941,-6.66700196925,0.29587251448999996,-26.509000000000007,-14.756000000000004,6.293000000000001,16.5,False,0
0.3167150020599365,6.2009997679,-6.674778642700001,1.7419748528,-35.63,-2.45,10.290000000000001,6.012146244195,-6.686563294005,0.377407944585,-28.105000000000008,-13.874000000000004,6.776000000000001,16.5,False,0
0.33202362060546875,6.744170498099999,-6.556333923999999,1.9501504189999996,-16.310000000000002,-2.3800000000000003,6.930000000000001,6.00646329052,-6.70145861469,0.4686343062100001,-28.931000000000004,-12.978000000000003,7.189,16.5,False,0
0.3444955348968506,6.893721910599999,-6.667600174899999,1.8891334427,-0.14,-3.08,3.43,6.011787320805,-6.715037882945,0.56063833518,-28.77000000000001,-12.159000000000004,7.444500000000001,16.5,False,0
0.3551905155181885,6.991827637199999,-6.699903279999999,1.9274186043,7.700000000000001,-2.31,-0.42000000000000004,6.023751433805,-6.73077069154,0.66257257794,-28.014000000000003,-11.420500000000004,7.525000000000001,16.5,False,0
0.36582207679748535,6.805187474399999,-7.0313092101,2.0602202586,10.99,-0.28,-3.5000000000000004,6.038108369405,-6.75816851031,0.75409804239,-26.915000000000003,-10.636500000000002,7.406000000000001,16.5,False,0
0.3760650157928467,6.604190375999999,-7.429714172999999,1.9202401365,9.8,3.08,-5.250000000000001,6.0566527445550005,-6.80171788163,0.8485547145249999,-25.5955,-9.828000000000001,7.178500000000001,16.5,False,0
0.38640880584716797,6.3696937612,-7.8496545392999995,1.8652052167,5.74,6.790000000000001,-6.720000000000001,6.0774703011749995,-6.854120696569998,0.9414560519699998,-24.139500000000005,-8.879500000000004,6.835500000000001,16.5,False,0
0.39678168296813965,6.1627146063,-8.099704500999998,1.7946169499999998,0.14,9.24,-7.3500000000000005,6.099125345705,-6.911069874449998,1.0357930829749997,-22.669500000000003,-7.7909999999999995,6.366499999999999,16.5,False,0
0.4071986675262451,6.171089485399999,-8.2600236152,1.5481562222,-3.7800000000000002,8.190000000000001,-5.74,6.12155805758,-6.972685056399999,1.1193624122799999,-21.1435,-6.6255,5.859,16.5,False,0
0.41759538650512695,6.081358637899999,-8.252845147399999,1.447657673,-3.3600000000000003,4.62,-4.340000000000001,6.14333274324,-7.036812702079999,1.1938390157049998,-19.418,-5.5195,5.3445,16.5,False,0
0.4279181957244873,6.044269887599999,-8.3461652288,1.6031911419999998,0.7000000000000001,2.0300000000000002,-1.33,6.153681700985,-7.09507793239,1.2594023549449997,-17.2795,-4.553500000000001,4.8264999999999985,16.5,False,0
0.4382460117340088,5.8815579507999995,-8.365307809599999,1.5577275125999999,7.420000000000001,1.54,1.8200000000000003,6.15302367477,-7.1670420720850005,1.3219148453699998,-14.780499999999998,-3.6960000000000006,4.4415,16.5,False,0
0.44871997833251953,5.5501520207,-8.25523797,1.4069796888000001,13.930000000000001,1.12,5.390000000000001,6.150810313865,-7.237151774265,1.3804791785049997,-11.889500000000002,-2.919000000000001,4.1930000000000005,16.5,False,0
0.4591066837310791,5.6853464976,-8.0602229281,1.3208380751999997,18.76,1.12,6.86,6.146622874315,-7.30026247034,1.42217411231,-9.1035,-2.3450000000000006,4.109,16.5,False,0
0.4694664478302002,5.614758230899999,-8.2504523248,1.1353943237,18.130000000000003,2.31,7.280000000000001,6.162535144605,-7.3558357752250005,1.4550754230599998,-6.461,-1.8585000000000012,3.9269999999999996,16.5,False,0
0.47985339164733887,5.369493914399999,-8.279166196,1.0492527101,13.090000000000002,4.2,6.23,6.16857702167,-7.419783959209999,1.481934856745,-4.1895,-1.2320000000000009,3.5630000000000015,16.5,False,0
0.4901714324951172,5.3036912929,-8.4789668831,0.9930213789999999,0.7000000000000001,5.180000000000001,6.930000000000001,6.150690672734999,-7.5037122119049995,1.5054443387899998,-2.5689999999999995,-0.34999999999999987,3.031000000000001,16.5,False,0
0.500535249710083,5.1469614126,-8.4909309961,1.0959127508,-11.340000000000002,5.6000000000000005,7.5600000000000005,6.1135421018699985,-7.603612555454999,1.52709938332,-1.6589999999999994,0.7315000000000002,2.5900000000000003,16.5,False,0
0.5109949111938477,5.040480806899999,-8.4729848266,1.3172488412999999,-21.630000000000003,6.510000000000001,8.47,6.073163220494999,-7.698966536065001,1.537448341065,-1.2879999999999994,1.7745000000000002,2.2925,16.5,False,0
0.5214207172393799,5.1050870171,-8.243273856999998,1.4069796888000001,-31.990000000000002,8.120000000000001,10.080000000000002,6.02500766567,-7.785526893619999,1.5474981959849998,-0.8225000000000001,2.4955000000000003,2.24,16.5,False,0
0.5321485996246338,5.136193710899999,-7.9860454275,1.6235301341,-38.64,10.080000000000002,10.22,5.983133270169999,-7.853542876025,1.5479767605049999,-0.5949999999999998,3.1045000000000003,2.2329999999999997,16.5,False,0
0.5424435138702393,5.127818831799999,-7.875975587899999,1.7120645702999997,-40.88,12.32,10.010000000000002,5.911408412734999,-7.91677321323,1.5414563189199997,-1.2880000000000003,3.7835,2.3240000000000003,16.5,False,0
0.5527963638305664,5.172086049899999,-7.739584699699999,1.7527425545,-42.28,14.980000000000002,9.31,5.828676571339999,-7.975696469755,1.5320644902149998,-2.9715,4.5815,2.5445,16.5,False,0
0.5630910396575928,5.003392056599999,-7.6905318364,1.8675980392999998,-46.550000000000004,17.92,7.210000000000001,5.738526979884999,-8.029534978254999,1.5175879134849997,-5.348000000000001,5.589499999999999,2.8735000000000004,16.5,False,0
0.573660135269165,4.9746781854,-7.791030385599999,1.8017954178,-52.36000000000001,20.650000000000002,3.5000000000000004,5.64646313035,-8.06991385963,1.5116656775499997,-8.2355,6.622,3.255,16.5,False,0
0.5839197635650635,4.9028935074,-7.8077801438,1.8173487646999997,-59.71000000000001,22.12,-0.35000000000000003,5.55529658929,-8.095935805405,1.5064014678299997,-11.536000000000001,7.651000000000001,3.528,16.5,False,0
0.5941824913024902,4.8299124181,-7.8711899427,1.8711872732,-63.49000000000001,20.51,-2.24,5.474957570495,-8.107241892189998,1.5081362642149998,-15.0605,8.480500000000001,3.7695000000000007,16.5,False,0
0.6046335697174072,4.673182537799999,-7.8616186523,2.0470597343,-62.160000000000004,18.970000000000002,-3.3600000000000003,5.39952383803,-8.10389194055,1.5132210122399996,-18.4135,9.051,3.969,16.5,False,0
0.6148583889007568,4.6755753604,-7.7862447404,2.1631116304,-56.7,18.060000000000002,-2.1700000000000004,5.327140954380001,-8.089893928339999,1.5352349801599998,-21.332499999999996,9.534,4.126500000000001,16.5,False,0
0.6255593299865723,4.447060802099999,-7.6319076827,2.2229321954,-48.93000000000001,16.1,-1.61,5.2508099134399995,-8.059744363579998,1.5723835510249997,-23.799999999999997,10.0555,4.2909999999999995,16.5,False,0
0.6359279155731201,4.5188454800999995,-7.527819899599999,2.3066809864,-37.730000000000004,14.000000000000002,-1.2600000000000002,5.16885573939,-8.026902873394999,1.6127624323999998,-25.9875,10.643500000000001,4.413500000000001,16.5,False,0
0.6463048458099365,4.643272255299999,-7.4931239719,2.3605194948999997,-29.610000000000003,12.670000000000002,-0.35000000000000003,5.097250523085,-7.986823094844998,1.65116723513,-27.895,11.270000000000001,4.396,16.5,False,0
0.6569046974182129,4.797609313,-7.466802923299999,2.2648065908999997,-24.500000000000004,10.15,-0.77,5.03390054475,-7.945187981604998,1.6936996568449998,-29.743000000000002,11.795000000000002,4.256000000000001,16.5,False,0
0.6673195362091064,4.8047877808,-7.764709336999998,2.3892333660999996,-24.080000000000002,8.47,-1.61,4.98472804032,-7.915636622494999,1.737249028165,-31.8045,12.194000000000003,3.878,16.5,False,0
0.6777195930480957,4.9316073786,-7.8424760715,2.4083759468999997,-23.03,7.840000000000001,-1.33,4.95134816505,-7.887879880335001,1.7997615185900002,-33.96399999999999,12.519500000000003,3.437,16.5,False,0
0.688115119934082,4.9375894351,-8.0374911134,2.4993032057,-23.660000000000004,6.65,1.4000000000000001,4.925864604359999,-7.871429224960001,1.8711872732000003,-35.973,12.729500000000002,3.0695000000000006,16.5,False,0
0.6985540390014648,5.0943193154,-8.4323068424,2.4753749797,-22.540000000000003,3.9200000000000004,7.280000000000001,4.912345156670001,-7.86245614021,1.9453647738000004,-37.579499999999996,12.778500000000001,2.9364999999999997,16.5,False,0
0.7117178440093994,5.551348432,-8.3976109147,2.4993032057,-15.610000000000001,-0.14,15.820000000000002,4.91198623328,-7.861439190605,2.016012861065,-38.339,12.670000000000002,3.0800000000000005,16.5,False,0
0.7219805717468262,5.7702916999,-8.568697730599999,2.6775684894,-11.760000000000002,-2.87,20.580000000000002,4.944229517815,-7.865387347895,2.0825931499100006,-38.2795,12.313,3.591,16.5,False,0
0.732121467590332,6.401996866299999,-8.8737826121,3.1106693799999996,-8.610000000000001,-3.22,26.810000000000002,4.98712086292,-7.886324545645,2.1562920859900006,-37.509499999999996,11.767000000000001,4.322500000000001,16.5,False,0
0.742424488067627,6.0035919034,-8.715856320499999,3.2817561959,-7.490000000000001,-3.9200000000000004,26.880000000000003,5.041019191985,-7.910791156730001,2.2459032923600004,-36.1305,11.129999999999999,5.155500000000001,16.5,False,0
0.7529144287109375,6.078965815299999,-8.9802632178,3.1884361144999995,-6.65,-1.8900000000000001,23.660000000000004,5.094857700484999,-7.952545911099998,2.3221745127350006,-34.489000000000004,10.4125,5.960500000000001,16.5,False,0
0.763444185256958,6.174678719299999,-9.317651204399999,3.0975088557,-7.630000000000001,-2.8000000000000003,21.770000000000003,5.146423027515,-8.018767276555,2.399941247235,-32.7775,9.639,6.566000000000001,16.5,False,0
0.7737839221954346,6.2584275103,-9.6095755616,2.931207685,-10.64,-4.62,23.1,5.20462843726,-8.106165122019998,2.45994127393,-30.99600000000001,8.6695,7.213500000000001,16.5,False,0
0.7839417457580566,6.180660775799999,-9.792626490499998,2.6668007877,-16.450000000000003,-10.71,26.110000000000003,5.2642695405649995,-8.207800261954999,2.50851557271,-29.23900000000001,7.3815,8.123500000000002,16.5,False,0
0.7942936420440674,6.110072509099999,-9.8680004024,2.7409782883,-20.37,-15.96,32.06,5.325286516865,-8.315537099519998,2.551646200075,-27.412,5.666499999999998,9.457,16.5,False,0
0.8046743869781494,5.9808600887,-9.4492564474,2.8450660714,-22.19,-20.860000000000003,38.080000000000005,5.381757130224999,-8.414839237419997,2.5962125209999996,-25.3435,3.685499999999999,11.245500000000002,16.5,False,0
0.8152163028717041,5.7236316592000005,-9.085547412199999,3.1740791789,-22.680000000000003,-24.01,41.440000000000005,5.440022360534999,-8.490392611014999,2.6488546181999997,-23.2855,1.5854999999999992,13.391,16.5,False,0
0.8256261348724365,5.509474036499999,-8.629714706899998,3.4923245846999995,-22.12,-21.630000000000003,46.620000000000005,5.490271635135,-8.543273990474997,2.7173491651249995,-21.413,-0.5775000000000012,15.711500000000001,16.5,False,0
0.8360381126403809,5.5298130286000005,-8.1272219609,3.5186456332999994,-18.55,-18.200000000000003,49.910000000000004,5.53878611335,-8.581140408119998,2.7916463068549993,-19.785500000000003,-2.4185,18.2,16.5,False,0
0.8463647365570068,5.7631132321,-7.3447689707,3.3930224468,-17.080000000000002,-16.450000000000003,51.38,5.596393317445,-8.588976902134998,2.85272310372,-18.452,-4.0495,20.839000000000002,16.5,False,0
0.8567798137664795,5.9844493226,-6.6460647715,3.2554351472999996,-18.060000000000002,-16.66,47.74,5.66285396516,-8.554580077259997,2.90285273719,-17.650500000000005,-5.575500000000001,23.3765,16.5,False,0
0.8670303821563721,6.051448355400001,-6.174678719299999,3.2051858726999995,-17.01,-16.520000000000003,40.39,5.731946717735,-8.502954929664998,2.942394130655,-17.188500000000005,-6.9719999999999995,25.585,16.5,False,0
0.8774642944335938,5.949753394899999,-5.988038556499999,3.2231320422,-17.080000000000002,-17.990000000000002,32.34,5.789853024655001,-8.428597967369999,2.9876782983599997,-16.835,-8.291500000000001,27.433000000000003,16.5,False,0
0.8877110481262207,5.9210395237,-5.802594804999998,3.2195428083000004,-18.270000000000003,-19.740000000000002,26.390000000000004,5.835197012924999,-8.346583972754999,3.0248268692249995,-16.502500000000005,-9.611,28.987000000000005,16.5,False,0
0.8978888988494873,5.8827543621,-5.6566326263999995,3.2578279698999997,-18.970000000000002,-21.770000000000003,19.740000000000002,5.8802418983699996,-8.241180137224998,3.0623343634799998,-16.299500000000002,-11.0285,30.2435,16.5,False,0
0.9082028865814209,5.8217373858000006,-5.505884802599999,3.6131621259999998,-19.46,-23.1,11.410000000000002,5.921817191044999,-8.110053458744998,3.1051658880199997,-16.114,-12.439,30.898000000000003,16.5,False,0
0.9185764789581299,5.7140603688,-5.229513792299999,3.8656049103,-19.810000000000002,-21.490000000000002,5.390000000000001,5.94915518925,-7.961518995849998,3.1669605316649996,-16.089499999999997,-13.692000000000002,30.817500000000003,16.5,False,0
0.9294815063476562,5.499902746099999,-5.564508956299999,4.1096728155,-16.520000000000003,-16.59,2.0300000000000002,5.939524078284999,-7.809335478489997,3.2394630564449995,-16.348500000000005,-14.602,30.079,16.5,False,0
0.9396884441375732,5.455635527999999,-5.595615650099999,4.2484565263,-10.99,-10.360000000000001,0.35000000000000003,5.919125265619999,-7.654699317964997,3.30400944608,-16.4955,-15.123500000000002,28.958999999999996,16.5,False,0
0.9500522613525391,5.413761132499999,-5.599204884,4.1001015251,-3.6400000000000006,-4.62,-1.61,5.880182077804999,-7.505506828854999,3.3473195351399996,-16.464000000000006,-15.333500000000004,27.594,16.5,False,0
0.9603419303894043,5.474778108799999,-5.6745787959,3.7579278932999998,2.5900000000000003,-2.1,-6.090000000000001,5.842854045245,-7.349973359854998,3.384348464874999,-16.093000000000007,-15.337000000000003,26.124000000000006,16.5,False,0
0.9706597328186035,5.5417771416,-5.7702916999,3.3762726885999994,4.970000000000001,-1.4000000000000001,-10.080000000000002,5.811149145794999,-7.18133918712,3.398466118215,-15.547000000000002,-15.284500000000005,24.6365,16.5,False,0
0.9811546802520752,5.546562786799999,-5.9748780322,3.1405796624999995,3.5700000000000003,-1.9600000000000002,-14.14,5.776034474139999,-6.998826643305,3.4126435921199993,-14.899500000000003,-15.207500000000001,22.956500000000002,16.5,False,0
0.991680383682251,5.6374900456,-6.166303840199999,3.046063169799999,-0.9100000000000001,-3.22,-14.980000000000002,5.743791189604999,-6.817809613615,3.429213888624999,-14.171500000000004,-14.983500000000001,21.0315,16.5,False,0
1.0020403861999512,5.759523998199999,-6.224927993899999,3.0400811133,-5.32,-3.99,-14.770000000000001,5.720879913209999,-6.63266496494,3.4493135984649994,-13.380500000000001,-14.514500000000002,18.896500000000003,16.5,False,0
1.0122313499450684,5.7188460139999995,-6.269195212,3.2051858726999995,-9.24,-3.5000000000000004,-14.21,5.709932749814999,-6.4587665824850005,3.467199947399999,-12.687500000000002,-13.810999999999998,16.4745,16.5,False,0
1.0226771831512451,5.7858450468,-6.382854285500001,3.3308090591999995,-8.05,-1.12,-14.840000000000002,5.705087284049998,-6.311847274844999,3.484308628989999,-12.019000000000002,-12.859,13.7935,16.5,False,0
1.0330238342285156,5.843272789199999,-6.3936219871999995,3.3870403903,-4.48,0.7000000000000001,-14.840000000000002,5.706223874784999,-6.184967856479999,3.4805399333949993,-11.200000000000001,-11.658500000000002,10.8885,16.5,False,0
1.0436687469482422,5.9569318627,-6.1722858967,3.2673992603,-0.9800000000000001,2.5200000000000005,-15.47,5.724768249934998,-6.079743482644999,3.462952687285,-10.269000000000002,-10.5875,7.762999999999996,16.5,False,0
1.0540037155151367,6.189035654899999,-5.9784672661,3.1680971224,1.4700000000000002,3.99,-21.490000000000002,5.746602756159999,-5.9949179214749995,3.4511082154149997,-9.3625,-9.576,4.280500000000002,16.5,False,0
1.0641772747039795,6.190232066199998,-5.9748780322,2.9551359109999997,3.2900000000000005,4.48,-28.980000000000004,5.7602418449799995,-5.946104340434999,3.43705038264,-8.351000000000003,-8.526000000000002,0.5390000000000017,16.5,False,0
1.0746004581451416,6.2333028729999995,-6.189035654899999,2.8965117572999994,5.11,3.08,-34.86000000000001,5.7700524176400005,-5.927440324155,3.4247871668150003,-7.294,-7.504,-3.2374999999999994,16.5,False,0
1.0851192474365234,6.043073476299999,-6.610172432499999,2.9874390161,6.790000000000001,1.8200000000000003,-37.52,5.776931782615,-5.94197672145,3.41312215664,-6.139000000000001,-6.496000000000002,-6.842500000000001,16.5,False,0
1.0955870151519775,5.949753394899999,-6.937989128699999,3.1070801461,8.120000000000001,1.33,-36.75,5.783153121375,-5.98480824599,3.419642598225,-4.903500000000002,-5.480999999999999,-10.195500000000001,16.5,False,0
1.1059248447418213,5.874379482999999,-7.094719008999999,3.1692935337,9.100000000000001,1.8200000000000003,-34.86000000000001,5.786144149625001,-6.045885042855,3.41551497924,-3.5140000000000016,-4.353999999999999,-13.181000000000001,16.5,False,0
1.1301794052124023,5.8229337971,-7.027719976199999,3.2315069213,7.630000000000001,7.490000000000001,-34.09,5.784110250415001,-6.1241303418749995,3.4074990235300007,-2.0895000000000006,-2.9259999999999997,-15.6975,16.5,False,0
1.140618085861206,5.857629724800001,-7.235895542399999,3.1812576466999993,4.62,8.610000000000001,-35.0,5.7863834318850005,-6.215536165194999,3.3817163600150004,-0.7805000000000002,-1.4140000000000001,-17.8815,16.5,False,0
1.1511151790618896,5.7367921834999995,-7.4608208668,3.1405796624999995,3.43,10.15,-34.230000000000004,5.783990609285,-6.306224141734999,3.3419955048550003,0.36750000000000027,0.03850000000000024,-19.8275,16.5,False,0
1.1616499423980713,5.735595772199999,-7.733602643199999,3.2075786952999996,3.0100000000000002,11.340000000000002,-31.290000000000003,5.79960377675,-6.405825382459997,3.291985512515,1.2250000000000003,1.2914999999999999,-21.5075,16.5,False,0
1.171973705291748,5.74277424,-7.758727280499999,3.1633114771999993,5.6000000000000005,11.97,-28.770000000000003,5.814738379695,-6.515177375279999,3.2391041330549997,1.8025000000000002,2.2715000000000005,-22.967000000000002,16.5,False,0
1.182161569595337,5.755934764299999,-7.7718878047999995,2.9958138951999995,7.7700000000000005,11.410000000000002,-25.480000000000004,5.83106939394,-6.626563267309999,3.2088349271650003,2.1630000000000003,3.0345000000000004,-24.157,16.5,False,0
1.192272663116455,5.8803615395,-7.7228349415,3.0652057506,7.140000000000001,11.340000000000002,-22.470000000000002,5.8492548457,-6.732326026229998,3.18305226365,2.3555000000000006,3.6610000000000005,-24.983,16.5,False,0
1.2026073932647705,5.887540007299999,-7.6079794567,3.0436703471999995,3.5000000000000004,11.200000000000001,-21.630000000000003,5.866662630115,-6.827380904014999,3.1673792756199997,2.4220000000000006,4.2700000000000005,-25.48,16.5,False,0
1.212949275970459,5.9150574672,-7.605586634099999,3.0209385324999998,-1.61,11.55,-20.650000000000002,5.881498130234999,-6.904070868344999,3.1637900417199996,2.4605000000000006,4.9245,-25.8125,16.5,False,0
1.2232937812805176,5.8193445632000005,-7.573283528999999,2.7649065143000002,-4.83,11.9,-20.3,5.8902319327249995,-6.9702922337999995,3.1647471707599997,2.4290000000000007,5.701500000000001,-26.0925,16.5,False,0
1.233696699142456,5.740381417399999,-7.672585666899999,3.1274191382,-3.3600000000000003,12.670000000000002,-20.37,5.888317674645,-7.031847595184999,3.1618159630749996,2.5480000000000005,6.541500000000001,-26.414500000000004,16.5,False,0
1.2439336776733398,5.642275690799999,-7.9130643382,3.2542387359999996,0.0,12.81,-19.53,5.882096335885,-7.098308242899999,3.1559535477049994,2.8840000000000003,7.343000000000001,-26.719,16.5,False,0
1.2541553974151611,5.4975099235,-8.1260255496,3.2530423247,2.87,14.070000000000002,-18.340000000000003,5.87425984187,-7.179365108474999,3.1505696968549994,3.2690000000000006,8.053500000000001,-26.932499999999997,16.5,False,0
1.2642903327941895,5.443671415,-8.315058534999999,3.2099715178999992,5.670000000000001,14.980000000000002,-16.03,5.849613769089999,-7.271129855185,3.1433314084899995,3.6365000000000007,8.708000000000002,-27.079500000000003,16.5,False,0
1.2747302055358887,5.4831529879,-8.3018980107,3.0149564759999996,5.74,15.120000000000001,-13.020000000000001,5.817789228509999,-7.384908569815001,3.1385457632899993,3.920000000000001,9.331000000000001,-26.904500000000002,16.5,False,0
1.285315990447998,5.504688391299999,-8.1272219609,2.8151557889,4.130000000000001,13.790000000000001,-10.71,5.783093300809999,-7.4997640546149995,3.1316065777499995,4.0635,9.863000000000001,-26.274500000000007,16.5,False,0
1.2957499027252197,5.467599640999999,-7.9238320399,2.7349962317999994,1.4700000000000002,13.090000000000002,-10.430000000000001,5.749115219889999,-7.600322424379999,3.1227531341299994,4.0285,10.3145,-25.228,16.5,False,0
1.306095838546753,5.4568319393,-7.788637563,2.895315346,-2.5200000000000005,13.3,-11.340000000000002,5.715316600664999,-7.67677310645,3.1136604082499995,3.7029999999999994,10.818500000000002,-23.936500000000002,16.5,False,0
1.316516637802124,5.3766723822,-7.721638530200001,2.9192435719999996,-5.32,15.890000000000002,-11.97,5.684867933079999,-7.724749199579999,3.0865018717399995,3.1185,11.455500000000002,-22.638,16.5,False,0
1.327491283416748,5.252245607,-7.7898339743,2.8677978860999995,-7.140000000000001,18.55,-11.48,5.652744289674999,-7.762017411575,3.075554708344999,2.3695,12.239500000000003,-21.458500000000004,16.5,False,0
1.3452670574188232,5.3312087527999985,-8.0231341778,2.943171798,-9.030000000000001,19.250000000000004,-8.33,5.627141087855,-7.799704367525001,3.0580871033649992,1.5574999999999999,12.890500000000003,-20.314,16.5,False,0
1.3570358753204346,5.158925525599999,-8.0506516377,3.1573294206999996,-17.78,22.19,-6.930000000000001,5.589454131905,-7.839784146075002,3.0357142120549994,0.5949999999999995,13.426000000000002,-18.949,16.5,False,0
1.3795275688171387,5.2235317358,-7.8364940149999995,2.8701907086999996,-11.55,23.1,-2.7300000000000004,5.5804212265899995,-7.87777020485,3.0258438188299994,-0.3290000000000003,14.112,-17.409,16.5,False,0
1.3995821475982666,5.4161539550999995,-7.5314091335,2.5292134882,-8.33,22.330000000000002,-3.5700000000000003,5.556792103415001,-7.88662364847,3.0044280565599992,-0.9450000000000006,14.703500000000002,-15.925,16.5,False,0
1.4256577491760254,5.474778108799999,-7.5349983674,2.5974089322999996,-7.280000000000001,23.1,-4.69,5.545964581150001,-7.872864918520001,2.9707490784649995,-1.5960000000000005,15.207500000000001,-14.647499999999999,16.5,False,0
1.4375147819519043,5.526223794700001,-7.4847490928,2.4885355039999997,-7.630000000000001,24.360000000000003,-5.880000000000001,5.532624595155001,-7.854320543370001,2.9338996104249992,-2.3310000000000004,15.781500000000003,-13.531000000000002,16.5,False,0
1.4557983875274658,5.499902746099999,-7.5469624803999995,2.3006989299,-13.090000000000002,23.730000000000004,-8.89,5.515276631305001,-7.836135091610001,2.894717140349999,-3.1500000000000004,16.453500000000002,-12.666500000000005,16.5,False,0
1.4716691970825195,5.140979356100001,-7.8807612331,2.4514467537,-21.98,22.330000000000002,-8.82,5.48937432666,-7.8325458577100004,2.8631917025949996,-4.221,17.069499999999998,-12.064500000000002,16.5,False,0
1.4897058010101318,4.9555356046,-7.9214392173,2.6979074815,-24.080000000000002,22.05,-7.7700000000000005,5.443671415,-7.84989382156,2.8414170169349995,-5.4705,17.6295,-11.431000000000004,16.5,False,0
1.5000336170196533,4.9758745967,-7.788637563,2.9874390161,-24.150000000000002,22.400000000000002,-7.140000000000001,5.398985452945,-7.864609680549999,2.8187450227999995,-6.496,18.154500000000002,-10.790500000000003,16.5,False,0
1.510690450668335,5.0237310487,-7.6271220375,2.7278177639999996,-22.820000000000004,21.98,-6.86,5.362734190555,-7.873044380214999,2.8014568795149994,-7.472500000000001,18.655,-10.1255,16.5,False,0
1.5211262702941895,5.0512485086,-7.576872762899999,2.7744778047,-19.32,22.05,-6.65,5.330909649975,-7.863951654335001,2.77866524425,-8.403500000000001,19.113500000000002,-9.4465,16.5,False,0
1.531534194946289,4.953142782,-7.618747158399999,2.7625136916999997,-15.540000000000001,21.770000000000003,-6.930000000000001,5.30357165177,-7.8409207368099985,2.7554548650299995,-9.331000000000001,19.509,-8.827,16.5,False,0
1.541964054107666,4.9160540317,-7.603193811499999,2.8414768374999997,-12.530000000000001,21.28,-6.300000000000001,5.278626476164999,-7.812266686174999,2.7327230503299993,-10.2655,19.8415,-8.281,16.5,False,0
1.5520598888397217,4.8011985469,-7.5948189324,2.7828526837999994,-12.88,21.42,-6.790000000000001,5.252783992084999,-7.775716320959999,2.716272394955,-11.1615,20.16,-7.892500000000001,16.5,False,0
1.5622527599334717,4.744967215799999,-7.797012442099999,2.8977081685999995,-17.150000000000002,20.790000000000003,-7.000000000000001,5.218566628905,-7.75059168366,2.71429831631,-12.131000000000004,20.436500000000002,-7.654500000000001,16.5,False,0
1.5725386142730713,4.834698063299999,-7.8400832489,3.0580272828,-23.590000000000003,20.020000000000003,-6.580000000000001,5.1780082858349985,-7.740482008175002,2.7198018082899997,-13.286000000000005,20.8355,-7.465500000000001,16.5,False,0
1.5829832553863525,4.9196432655999995,-7.8496545392999995,3.1130622025999997,-26.250000000000004,20.090000000000003,-6.930000000000001,5.15138813441,-7.738926673485001,2.73344089711,-14.528500000000003,21.1855,-7.259000000000002,16.5,False,0
1.5935451984405518,4.9818566531999995,-7.7443703449,3.4002009145999996,-24.220000000000002,20.020000000000003,-7.000000000000001,5.128357216885,-7.745148012244999,2.7549164799449994,-15.624000000000004,21.4655,-7.014,16.5,False,0
1.607168197631836,5.102694194500001,-7.7324062319,3.4660035360999997,-18.76,19.950000000000003,-8.610000000000001,5.115794898235,-7.744430165465,2.77890452651,-16.4325,21.616000000000003,-6.8075,16.5,False,0
1.6175868511199951,5.1601219369,-7.8400832489,3.5090743428999995,-15.47,19.180000000000003,-9.170000000000002,5.107898583655,-7.738448108965,2.8083362444899995,-16.901500000000002,21.637,-6.712999999999999,16.5,False,0
1.628077745437622,5.251049195699999,-7.9142607494999995,3.5880374886999995,-13.3,19.040000000000003,-8.33,5.11274404942,-7.72462955845,2.8476383556949996,-16.9785,21.665,-6.7620000000000005,16.5,False,0
1.6383845806121826,5.2989056477,-8.115257847899999,3.6035908356,-11.200000000000001,20.3,-6.510000000000001,5.10903517439,-7.718886784209998,2.8757540212449992,-16.8735,21.47950000000001,-6.919500000000002,16.5,False,0
1.6488535404205322,5.404189842099999,-8.2253276875,3.6263226502999997,-11.690000000000001,21.770000000000003,-3.5000000000000004,5.111487817555,-7.7352177984549995,2.9176882373099993,-17.0135,21.388500000000004,-7.038500000000002,16.5,False,0
1.6592283248901367,5.4388857698,-8.262416437799999,3.6729826909999996,-13.860000000000001,22.470000000000002,-1.8900000000000001,5.105984325574999,-7.7712895991499975,2.975235620839999,-17.171,21.430500000000002,-6.9510000000000005,16.5,False,0
1.669706106185913,5.527420206,-8.293523131599999,3.5976087790999993,-16.59,23.17,-2.24,5.105505761054999,-7.811548839394999,3.0289544882099992,-17.552499999999995,21.398999999999997,-6.800500000000001,16.5,False,0
1.6801259517669678,5.5322058512000005,-8.4191463181,3.6358939406999995,-21.770000000000003,22.89,-3.43,5.104488811449999,-7.855935698624998,3.0971499323099994,-18.073999999999995,21.308,-6.590499999999999,16.5,False,0
1.6905148029327393,5.391029317799999,-8.4693955927,3.7770704741,-23.590000000000003,23.660000000000004,-3.1500000000000004,5.109394097779999,-7.8939217573999985,3.1666614288399995,-18.4625,21.290499999999998,-6.282500000000001,16.5,False,0
1.7012696266174316,5.3228338737,-8.465806358799998,3.8715869667999994,-21.840000000000003,23.240000000000002,-2.5900000000000003,5.128955422534999,-7.92000352374,3.2282766107899996,-18.455499999999997,21.3465,-6.009500000000001,16.5,False,0
1.7117433547973633,5.252245607,-8.458627890999999,3.9230326527,-18.200000000000003,23.380000000000003,-1.12,5.144269487174999,-7.949794165109999,3.2898917927399993,-18.280500000000004,21.3815,-5.7575,16.5,False,0
1.7221062183380127,5.2199425018999985,-8.187042525899999,3.9385859995999994,-12.110000000000001,23.8,1.6800000000000002,5.1601219368999995,-7.995676538465,3.3607791622649996,-17.836000000000006,21.423499999999997,-5.4145,16.5,False,0
1.7322840690612793,5.362315446599999,-8.120043493099999,3.7890345870999993,-7.3500000000000005,24.080000000000002,4.69,5.169932509560001,-8.032466185939999,3.4192238542699998,-17.248,21.535500000000003,-4.945500000000001,16.5,False,0
1.7427809238433838,5.4017970195,-7.905885870399999,3.6263226502999997,-4.9,22.540000000000003,4.970000000000001,5.185784959285,-8.054659615555002,3.465106227625,-16.653000000000002,21.626500000000004,-4.3575,16.5,False,0
1.753227710723877,5.3850472612999996,-7.785048329099999,3.5210384558999994,-5.460000000000001,21.490000000000002,2.9400000000000004,5.21132834054,-8.065008573300002,3.5067413408649997,-16.1945,21.6475,-3.815,16.5,False,0
1.7636635303497314,5.279763066899999,-7.791030385599999,3.6107693033999997,-8.05,20.790000000000003,1.54,5.234299437500001,-8.072486143925001,3.5415569096949993,-15.946000000000003,21.637000000000004,-3.3670000000000018,16.5,False,0
1.77406644821167,5.2414779053,-7.7264241754,3.4827532943,-12.46,20.720000000000002,0.49000000000000005,5.255954482030001,-8.077271789125003,3.5679975994249995,-15.739500000000003,21.647500000000004,-2.9784999999999995,16.5,False,0
1.785102367401123,5.204389154999999,-7.6917282476999995,3.3678978095,-14.700000000000001,19.740000000000002,0.07,5.281737145545,-8.070332603585001,3.5896526439549996,-15.421000000000001,21.619500000000002,-2.6319999999999992,16.5,False,0
1.7956562042236328,5.140979356100001,-7.6522466748,3.3272198252999994,-15.190000000000001,17.430000000000003,1.12,5.29579497832,-8.060761313185,3.6048470674649997,-14.910000000000002,21.535500000000003,-2.2960000000000003,16.5,False,0
1.8061208724975586,5.0488556860000005,-7.6008009889,3.337987527,-12.040000000000001,15.47,2.1700000000000004,5.30081990578,-8.052386434085001,3.60933360984,-14.294,21.367500000000003,-1.8865000000000003,16.5,False,0
1.816364049911499,5.102694194500001,-7.4428746973,3.3655049868999996,-7.140000000000001,13.160000000000002,3.43,5.3006404440849995,-8.041798194079998,3.6079577368450004,-13.691999999999998,21.063000000000002,-1.3545000000000003,16.5,False,0
1.8268756866455078,5.1290152431,-7.2047888486,3.2398818003999996,-0.7000000000000001,10.290000000000001,3.08,5.29938421222,-8.019724405594998,3.598745369835,-13.079500000000001,20.716500000000003,-0.7245000000000005,16.5,False,0
1.837134599685669,5.240281494,-7.172485743499999,3.0616165166999996,4.48,6.65,1.7500000000000002,5.300879726344999,-7.984729375069998,3.579961712425,-12.309500000000002,20.209,-0.1364999999999999,16.5,False,0
1.8474013805389404,5.274977421699999,-7.1641108644,2.9192435719999996,7.3500000000000005,3.43,-0.42000000000000004,5.298367262615,-7.952605731664998,3.551965688005,-11.403,19.502000000000002,0.2975000000000002,16.5,False,0
1.8578062057495117,5.274977421699999,-7.138986227099998,2.8283163131999998,5.460000000000001,0.42000000000000004,-1.54,5.294897669845,-7.902296636499999,3.5171501191750005,-10.454500000000001,18.567500000000003,0.5075,16.5,False,0
1.8681509494781494,5.292923591199999,-7.2035924373,2.901297402499999,2.66,-0.77,-2.1700000000000004,5.288317407695,-7.849235795344998,3.4768310583649997,-9.611,17.451,0.5599999999999999,16.5,False,0
1.8785977363586426,5.2211389132,-7.3471617933,2.7924239741999997,0.0,-1.4700000000000002,-2.1,5.2787461172949985,-7.796892800969998,3.432204916875,-8.792000000000003,16.2575,0.5355,16.5,False,0
1.8890037536621094,5.2115676228,-7.459624455499999,2.8737799425999997,-1.05,-2.3800000000000003,-1.4700000000000002,5.2629534881349995,-7.749335451794998,3.3939795758399995,-7.871500000000002,15.028999999999996,0.5670000000000002,16.5,False,0
1.8992805480957031,5.138586533499999,-7.4943203832,2.9479574431999995,-0.35000000000000003,-3.0100000000000002,-0.49000000000000005,5.248656373099999,-7.7043503869149985,3.3510882307349994,-6.7515,13.762,0.6825000000000001,16.5,False,0
1.9097394943237305,5.175675283799999,-7.573283528999999,2.8043880872,-0.35000000000000003,-4.2,0.6300000000000001,5.238606518179998,-7.657032319999999,3.3028130347799993,-5.593000000000001,12.4285,0.8505,16.5,False,0
1.9200730323791504,5.138586533499999,-7.597211754999999,2.8151557889,-0.7000000000000001,-5.8100000000000005,0.21000000000000002,5.232145897159998,-7.61264546077,3.249512911365,-4.571,11.028500000000001,0.9870000000000001,16.5,False,0
1.9304401874542236,5.175675283799999,-7.655835908699999,2.7960132080999998,0.49000000000000005,-6.65,0.14,5.221079092635,-7.561857801085,3.1825138785649996,-3.8150000000000004,9.572500000000002,1.0115000000000003,16.5,False,0
1.9408318996429443,5.1649075821,-7.587640464599999,2.7098715944999996,3.3600000000000003,-9.24,-1.05,5.213721163139999,-7.524948512479999,3.1240093659949997,-3.2515000000000014,7.973000000000002,0.8540000000000001,16.5,False,0
1.951300859451294,5.228317380999999,-7.548158891699999,2.7373890543999995,6.370000000000001,-11.760000000000002,-1.6800000000000002,5.206841798165,-7.503472929645,3.0751957849549996,-2.779000000000001,6.272000000000003,0.5320000000000003,16.5,False,0
1.961775541305542,5.1601219369,-7.637889739199999,2.7625136916999997,9.8,-12.530000000000001,-2.8000000000000003,5.194877685164999,-7.4931837924649995,3.0340392362349995,-2.156,4.564000000000002,0.22049999999999992,16.5,False,0
1.972036600112915,5.1457650013,-7.749155990099999,2.7864419177,12.040000000000001,-12.81,-2.9400000000000004,5.188177781885,-7.491329354950001,3.0010182843549997,-1.2880000000000003,2.8419999999999996,-0.045500000000000006,16.5,False,0
1.9824373722076416,5.0476592747,-7.886743289599999,2.7912275628999996,12.39,-12.39,-2.31,5.181178775779999,-7.4900133025199995,2.9694330260349995,-0.16799999999999998,1.2039999999999995,-0.203,16.5,False,0
1.9928820133209229,4.920839676899999,-7.980063371,2.7457639335,11.06,-11.200000000000001,-1.4000000000000001,5.173521743459999,-7.49276504851,2.936890638675,1.106,-0.4130000000000015,-0.308,16.5,False,0
2.0066449642181396,4.8550370553999995,-8.007580830899999,2.6691936103000002,6.720000000000001,-10.290000000000001,0.42000000000000004,5.158686243339999,-7.5105915768800005,2.9069205356099994,2.317,-1.8655000000000004,-0.3570000000000001,16.5,False,0
2.0170607566833496,4.9064827413000005,-7.904689459099999,2.7014967154,2.0300000000000002,-11.830000000000002,1.6800000000000002,5.149892620285,-7.523752101180001,2.879343255145,3.2479999999999998,-3.248,-0.37100000000000005,16.5,False,0
2.027615547180176,5.004588467899999,-7.798208853399999,2.8450660714,-0.8400000000000001,-13.72,3.2900000000000005,5.143192717004999,-7.540621500510002,2.84614284157,3.8185000000000002,-4.5954999999999995,-0.4025,16.5,False,0
2.0380563735961914,5.1457650013,-7.6271220375,2.8929225234,0.0,-15.820000000000002,3.99,5.140560612144999,-7.560302466395001,2.8270002607699998,4.018000000000001,-5.960500000000001,-0.4130000000000001,16.5,False,0
2.0484182834625244,5.2199425018999985,-7.507480907499999,3.0568308715,3.08,-17.150000000000002,3.43,5.143132896439999,-7.580641458494999,2.8203003574899994,4.0040000000000004,-7.2379999999999995,-0.3709999999999998,16.5,False,0
2.058953046798706,5.228317380999999,-7.478767036299999,3.1322047833999997,7.700000000000001,-17.220000000000002,3.2900000000000005,5.143970384349999,-7.588537773074999,2.826102952295,3.9690000000000003,-8.361500000000001,-0.2729999999999998,16.5,False,0
2.0693607330322266,5.2450671392,-7.665407199099999,3.0783662749,10.360000000000001,-17.64,4.550000000000001,5.142415049659999,-7.612166896249998,2.837767962469999,4.0495,-9.3275,-0.03149999999999977,16.5,False,0
2.079749822616577,5.2235317358,-7.7922267969,3.0879375653,10.15,-16.73,6.930000000000001,5.140440971015001,-7.638487944849999,2.850390101684999,4.368,-10.2025,0.3394999999999999,16.5,False,0
2.090238571166992,5.192425042,-7.8329047811,2.9934210725999995,7.140000000000001,-15.680000000000001,9.8,5.13427945282,-7.6685178684799995,2.8643282933299994,4.752999999999999,-10.955000000000002,0.882,16.5,False,0
2.100658416748047,5.2713881877999995,-7.8520473618999995,2.9407789753999998,3.2900000000000005,-15.820000000000002,10.99,5.136014249205,-7.691130042049998,2.868096988924999,5.109999999999999,-11.648000000000001,1.512,16.5,False,0
2.111135482788086,5.3850472612999996,-7.8006016759999985,2.9407789753999998,0.35000000000000003,-17.360000000000003,11.410000000000002,5.140680253275,-7.708418185334999,2.8686951945749994,5.2219999999999995,-12.344500000000002,2.1210000000000004,16.5,False,0
2.1217260360717773,5.502295568699999,-7.7276205867,3.0089744195,-1.05,-18.900000000000002,12.250000000000002,5.154319342095,-7.722296556415,2.8761129446349996,5.18,-13.09,2.716,16.5,False,0
2.1320650577545166,5.6279187552000005,-7.685746191199999,3.1453653077,-0.6300000000000001,-19.880000000000003,12.32,5.1735815640250005,-7.728398254045,2.8889743661099994,5.145,-13.797000000000002,3.325,16.5,False,0
2.142326593399048,5.8193445632000005,-7.645068206999999,3.0711878070999994,1.9600000000000002,-20.51,12.600000000000001,5.203491846525,-7.729116100825,2.9027330960599995,5.169499999999999,-14.521500000000003,3.9234999999999998,16.5,False,0
2.1528077125549316,5.9186467011,-7.692924659,3.1298119607999997,4.48,-20.160000000000004,12.740000000000002,5.240161852869999,-7.735337439585,2.920499803865,5.2185,-15.172500000000005,4.5745000000000005,16.5,False,0
2.163224458694458,6.0263237181,-7.758727280499999,3.3415767608999998,7.000000000000001,-18.76,12.670000000000002,5.278147911644998,-7.742815010209999,2.9361727918949994,5.3199999999999985,-15.613500000000005,5.274500000000001,16.5,False,0
2.174041271209717,5.837290732699999,-7.785048329099999,2.9036902250999996,8.120000000000001,-17.150000000000002,12.81,5.320082127709999,-7.750053298575,2.9472395964199998,5.334,-15.911000000000005,6.016500000000001,16.5,False,0
2.1842381954193115,6.1722858967,-7.893921757399999,2.7732813933999996,8.190000000000001,-16.73,12.530000000000001,5.367280553494999,-7.75537732886,2.94819672546,5.246499999999999,-16.103500000000004,6.804,16.5,False,0
2.1945719718933105,6.181857187099999,-8.0099736535,2.6548366747,6.720000000000001,-16.73,12.39,5.421537805949999,-7.763094181744999,2.94460749156,5.0225,-16.3275,7.535500000000001,16.5,False,0
2.204838752746582,6.171089485399999,-8.1415788965,2.6596223199,3.99,-18.48,12.670000000000002,5.47633344349,-7.780322504464998,2.9465815702050002,4.718,-16.610999999999997,8.256499999999999,16.5,False,0
2.2153496742248535,6.1531433159,-8.2719877282,2.7014967154,1.2600000000000002,-20.23,13.090000000000002,5.5421958855549995,-7.791030385599998,2.9454449794699995,4.431,-17.0345,8.931999999999999,16.5,False,0
2.225785493850708,6.087340694399999,-8.316254946299999,2.775674216,-0.6300000000000001,-22.05,13.930000000000001,5.60291375903,-7.805387321199999,2.942154848395,4.2035,-17.556,9.5515,16.5,False,0
2.2359373569488525,6.0167524277,-8.280362607299999,2.9336005076,-0.42000000000000004,-22.680000000000003,14.63,5.660401321994999,-7.828298597594999,2.9508288303200003,4.144,-18.038999999999998,10.139500000000002,16.5,False,0
2.246288299560547,5.891129241199999,-8.2695949056,3.1645078884999998,-0.7000000000000001,-23.17,16.17,5.706463157045,-7.865985553544999,2.9587251449000003,4.1685,-18.445,10.752,16.5,False,0
2.256675958633423,5.799005571099999,-8.3018980107,3.2781669619999994,0.21000000000000002,-20.930000000000003,17.990000000000002,5.7360145161550005,-7.905048382489999,2.969313384905,4.13,-18.738999999999997,11.427500000000002,16.5,False,0
2.26702880859375,5.663811094199999,-8.1140614366,3.3284162366,-0.35000000000000003,-19.180000000000003,19.880000000000003,5.7597632804600005,-7.941838029964998,2.9794828809549996,3.871,-18.8895,12.218500000000002,16.5,False,0
2.277522563934326,5.5884371823,-7.996813129199999,3.3080772444999993,0.21000000000000002,-17.150000000000002,19.810000000000002,5.778666579,-7.968876925344999,2.9921648407349997,3.440500000000001,-18.938500000000005,13.030500000000004,16.5,False,0
2.2878975868225098,5.5501520207,-7.8616186523,3.2721849055,-1.6800000000000002,-16.87,19.6,5.796552927935,-7.980063370999998,3.003411106955,2.898,-18.907000000000004,13.723500000000001,16.5,False,0
2.298490285873413,5.452046294099999,-7.8077801438,3.2697920829,-2.9400000000000004,-16.94,19.46,5.8133625067,-7.984549913374998,3.014657373175,2.3520000000000003,-18.949,14.248500000000003,16.5,False,0
2.3090083599090576,5.4281180681,-7.721638530200001,3.3056844218999997,-5.040000000000001,-17.360000000000003,20.580000000000002,5.82233559145,-7.983114219814998,3.0306294640299996,1.8445,-19.026000000000003,14.707000000000003,16.5,False,0
2.3193371295928955,5.3383872206000005,-7.641478973099999,3.4085757937,-8.610000000000001,-17.430000000000003,21.630000000000003,5.827539980604999,-7.973423288285,3.05551481907,1.435,-19.071500000000007,15.218000000000004,16.5,False,0
2.329796075820923,5.273781010399999,-7.471588568499999,3.5665020853,-11.270000000000001,-15.890000000000002,21.840000000000003,5.821318641844999,-7.959126173249999,3.08040017411,0.9835,-19.001500000000004,15.701000000000002,16.5,False,0
2.3402786254882812,5.180460929,-7.3172515107999985,3.5976087790999993,-12.81,-14.14,22.400000000000002,5.805167089294999,-7.9430344412650005,3.10564445254,0.4374999999999999,-18.812500000000004,16.180500000000002,16.5,False,0
2.3506786823272705,5.1062834284,-7.1497539288,3.6945180944,-11.620000000000001,-11.760000000000002,22.96,5.776572859225,-7.923293654815,3.1339994003500005,-0.19949999999999993,-18.4835,16.698500000000003,16.5,False,0
2.361147403717041,5.0620162103,-6.890132676699999,3.8033915226999992,-8.190000000000001,-9.170000000000002,23.03,5.7367921834999995,-7.891768217059999,3.1658239409299993,-0.8330000000000002,-18.0005,17.213,16.5,False,0
2.3716580867767334,5.090730081499999,-6.692724812199999,3.6873396266,-4.2,-6.930000000000001,22.330000000000002,5.691926759749999,-7.843552841669999,3.2008787920199993,-1.4315000000000002,-17.447499999999998,17.7485,16.5,False,0
2.3820629119873047,5.072783911999999,-6.441478439199999,3.6311082955,-2.24,-4.130000000000001,20.37,5.64383102549,-7.782476044805,3.230729253955,-1.9810000000000003,-16.835,18.179000000000002,16.5,False,0
2.3922500610351562,5.0177489922,-6.410371745399999,3.5294133349999997,-2.5900000000000003,-1.33,18.41,5.587719335519999,-7.713323471665001,3.2662626695649997,-2.4745,-16.156,18.5115,16.5,False,0
2.405320644378662,4.9974100000999995,-6.3864435194,3.4588250683,-4.970000000000001,1.12,16.310000000000002,5.52897554069,-7.638069200895001,3.3068210126350004,-3.0100000000000002,-15.361500000000003,18.802000000000003,16.5,False,0
2.4157376289367676,5.039284395599999,-6.3984076324,3.3942188580999995,-8.680000000000001,3.7100000000000004,14.280000000000001,5.470889772075,-7.550970458255,3.342952633895,-3.626,-14.364000000000004,18.952500000000004,16.5,False,0
2.426083564758301,5.0536413312,-6.342176301299999,3.3846475676999996,-11.270000000000001,5.460000000000001,11.200000000000001,5.41244508007,-7.455855759904999,3.3775887410300003,-4.2735,-13.181000000000006,18.963,16.5,False,0
2.4363861083984375,4.980660241899999,-6.4438712618,3.4013973258999997,-10.920000000000002,6.580000000000001,9.31,5.360221726825,-7.3660650918399995,3.4104900517799996,-4.847500000000001,-11.823000000000004,18.826500000000003,16.5,False,0
2.4467861652374268,4.9328037898999995,-6.497709770299999,3.3511480512999996,-5.95,6.65,8.610000000000001,5.30596447437,-7.274061062869999,3.437768229419999,-5.271000000000001,-10.363500000000002,18.578000000000007,16.5,False,0
2.4572598934173584,5.0739803233,-6.3948183985,3.3786655112,-1.6800000000000002,6.23,7.3500000000000005,5.257988381239999,-7.172904487454998,3.453261755755,-5.4565,-8.890000000000004,18.203500000000005,16.5,False,0
2.467705726623535,5.0093741131,-6.435496382699999,3.409772205,0.56,6.930000000000001,5.53,5.218207705515,-7.077490686279998,3.4614571731599995,-5.495,-7.462000000000001,17.678500000000007,16.5,False,0
2.4780685901641846,5.010570524399999,-6.484549246,3.4683963586999997,0.8400000000000001,8.05,3.0100000000000002,5.183870701205,-6.988358044429999,3.4683963587,-5.442500000000001,-6.104000000000001,16.968000000000004,16.5,False,0
2.5014402866363525,5.1074798397,-6.7573310224,3.7040893847999996,7.000000000000001,15.120000000000001,-1.54,5.156592523565,-6.916453725299999,3.4829327559950003,-5.323500000000001,-4.549999999999999,15.9145,16.5,False,0
2.521195888519287,5.1673004047,-7.1054867107,3.4480573665999996,12.040000000000001,15.96,-3.6400000000000006,5.134159811689999,-6.85890634177,3.49651202425,-4.907,-2.9259999999999997,14.836500000000004,16.5,False,0
2.535676956176758,5.1433721787,-7.453642399,3.4384860762,3.99,15.260000000000002,-2.8000000000000003,5.11597435993,-6.825287184240001,3.5041690565700003,-4.280499999999999,-1.3054999999999999,13.7025,16.5,False,0
2.549781322479248,5.2223353244999995,-7.508677318799999,3.5928231338999996,-5.74,15.260000000000002,-2.45,5.101557603765,-6.808776708299999,3.5130225001899995,-4.066999999999998,0.3500000000000002,12.6035,16.5,False,0
2.5694563388824463,5.3192446398,-7.6103722793,4.0354953148999995,-6.300000000000001,15.120000000000001,-1.33,5.090550619805,-6.80315357519,3.5248071514949997,-4.172,1.9495,11.458999999999998,16.5,False,0
2.584477186203003,5.4053862534,-7.703692360699999,4.043870194,0.21000000000000002,16.520000000000003,-0.07,5.0931827246650005,-6.808597246604998,3.551606764615,-3.8044999999999995,3.5805,10.346,16.5,False,0
2.6021196842193604,5.4006006081999995,-7.767102159599999,3.9146577735999997,0.56,17.71,-0.42000000000000004,5.104309349755,-6.824629158025,3.57104844824,-3.0799999999999996,5.194000000000001,9.229499999999998,16.5,False,0
2.625664472579956,5.3204410510999995,-7.785048329099999,3.7304104334,-8.540000000000001,16.380000000000003,-0.42000000000000004,5.1137011784599995,-6.851069847754999,3.58038045638,-2.5339999999999994,6.748,8.074499999999997,16.5,False,0
2.636880397796631,5.2067819775999995,-7.8281191359,3.8081771678999994,-10.290000000000001,14.280000000000001,-0.49000000000000005,5.124050136205001,-6.888338059749998,3.580679559205,-2.5165,8.085,6.891499999999998,16.5,False,0
2.6474759578704834,5.170889638599999,-7.877171999199999,3.9565321691,-8.96,14.000000000000002,1.33,5.130510757225,-6.944389929154999,3.5857643072300007,-2.737,9.187500000000004,5.750500000000001,16.5,False,0
2.658087968826294,5.2606204861,-7.8687971201,3.9637106368999997,-7.98,14.63,3.22,5.137330301635,-7.0111496796949995,3.590968696385,-3.0485,10.160500000000003,4.784500000000001,16.5,False,0
2.668393611907959,5.3395836319,-7.795816030799999,4.0833517669,-6.65,17.01,5.180000000000001,5.149952440849999,-7.081797766959999,3.614298716735,-3.3495000000000004,11.109000000000002,4.028500000000002,16.5,False,0
2.67885160446167,5.491527867,-7.6426753843999995,4.001995798499999,-5.040000000000001,19.040000000000003,6.300000000000001,5.165445967184999,-7.147540567895,3.6418161766349995,-3.4965,12.047000000000002,3.433500000000001,16.5,False,0
2.689274311065674,5.599204884,-7.560123004699999,3.8847474911,-1.33,19.810000000000002,5.53,5.1876393968,-7.209335211539999,3.6702907655749994,-3.346,12.908000000000005,2.9785,16.5,False,0
2.6996591091156006,5.568098190199999,-7.521837843099999,3.7603207158999994,3.5000000000000004,19.46,4.550000000000001,5.216413088565,-7.267420980154999,3.692005630669999,-2.807000000000001,13.657000000000005,2.5725000000000007,16.5,False,0
2.710094928741455,5.6374900456,-7.605586634099999,3.6705898684,5.250000000000001,18.55,3.6400000000000006,5.24614390937,-7.321139847524999,3.7080375420899983,-2.0125000000000006,14.322000000000006,2.2470000000000003,16.5,False,0
2.720529794692993,5.7044890784,-7.665407199099999,3.6287154729,2.5200000000000005,17.220000000000002,3.7100000000000004,5.281557683849999,-7.376414049585,3.719822193394999,-1.3580000000000005,14.850500000000002,1.9845000000000002,16.5,False,0
2.7311007976531982,5.703292667099999,-7.8903325235,3.5880374886999995,-2.45,16.1,3.0100000000000002,5.315894688159999,-7.443413082385,3.733341641084999,-1.1235000000000002,15.358,1.7500000000000004,16.5,False,0
2.7418766021728516,5.700899844499999,-8.0374911134,3.6299118841999998,-8.190000000000001,14.63,2.7300000000000004,5.348736178345,-7.518906635415,3.7423745464,-1.3160000000000003,15.834000000000003,1.5470000000000002,16.5,False,0
2.752138376235962,5.6757752072,-8.2504523248,3.6550365214999996,-11.410000000000002,11.9,3.99,5.38157766853,-7.602655426414998,3.7501512198499993,-1.8410000000000004,16.156000000000002,1.4629999999999999,16.5,False,0
2.762644052505493,5.6865429089,-8.2863446638,3.6765719248999997,-14.000000000000002,8.96,7.140000000000001,5.414778082105,-7.681140007694999,3.7505101432400005,-2.604000000000001,16.089500000000005,1.7955,16.5,False,0
2.7732009887695312,5.711667546199999,-8.181060469399998,3.7435709577,-12.88,6.370000000000001,8.540000000000001,5.444568723474999,-7.75477912321,3.7539199154450005,-3.7310000000000003,15.722000000000003,2.2785,16.5,False,0
2.7836508750915527,5.611168996999999,-8.082954742799998,4.0139599115,-10.430000000000001,4.69,8.33,5.474000441454999,-7.797191903794999,3.7703107502549997,-4.889500000000001,15.186500000000004,2.8735000000000004,16.5,False,0
2.7940585613250732,5.503491979999999,-8.057830105499999,4.092923057299999,-6.23,4.970000000000001,9.38,5.49475817751,-7.826503980644999,3.801058520665,-5.3549999999999995,14.623000000000001,3.4265,16.5,False,0
2.8042688369750977,5.487938633100001,-7.9417782094,4.0965122912,-2.45,6.370000000000001,11.340000000000002,5.510132062715,-7.848936692520001,3.824508182145,-5.159,14.157499999999999,4.0495,16.5,False,0
2.8147664070129395,5.4891350444,-7.794619619499999,3.8775690232999995,0.28,5.180000000000001,11.97,5.514798066785,-7.857610674445001,3.820560024855,-5.092499999999999,13.670999999999998,4.662000000000001,16.5,False,0
2.8252391815185547,5.442475003699999,-7.659425142599999,3.7878381757999997,1.8200000000000003,3.8500000000000005,12.110000000000001,5.518028377294999,-7.8600034970450015,3.81631276474,-5.158999999999999,13.061999999999998,5.257,16.5,False,0
2.835513114929199,5.467599640999999,-7.53739119,3.7016965622,0.6300000000000001,1.33,11.97,5.524369357184999,-7.85252592642,3.8127833514050002,-4.9944999999999995,12.337499999999999,5.883500000000001,16.5,False,0
2.845862865447998,5.5322058512000005,-7.336394091599998,3.6837503926999995,-2.0300000000000002,0.14,12.250000000000002,5.535615623404999,-7.835955629915001,3.809792323155,-4.5185,11.5885,6.506500000000001,16.5,False,0
2.856182813644409,5.5226345608,-7.240681187599998,3.6323047068,-6.090000000000001,-0.9100000000000001,11.55,5.551468073129999,-7.805566782894999,3.79896480089,-4.189500000000001,10.874500000000001,7.084000000000001,16.5,False,0
2.8664796352386475,5.473581697499999,-7.174878566099999,3.5629128513999997,-8.540000000000001,-1.6800000000000002,11.48,5.564987520819999,-7.770930675759999,3.79250417987,-4.087999999999999,10.129,7.549500000000002,16.5,False,0
2.8793845176696777,5.5142596817,-6.9990061049999985,3.5808590209,-9.170000000000002,-3.22,11.200000000000001,5.57264455314,-7.732944616984997,3.7669009780500007,-4.1615,9.2225,7.913500000000001,16.5,False,0
2.889782190322876,5.395814963,-6.893721910599999,3.5341989802,-8.82,-4.2,10.500000000000002,5.57862660964,-7.691548786004998,3.7378281834600005,-4.312,8.1375,8.148000000000001,16.5,False,0
2.9015581607818604,5.4017970195,-6.8817577976,3.5401810366999995,-6.510000000000001,-3.99,10.500000000000002,5.577250736645,-7.65798944904,3.7191641671799993,-4.5045,6.944,8.347500000000002,16.5,False,0
2.912712812423706,5.3228338737,-6.801598240499999,3.4887353508,-3.2900000000000005,-3.2900000000000005,11.13,5.566542855510001,-7.6276006020199985,3.7043884876249997,-4.83,5.7925,8.6415,16.5,False,0
2.9231507778167725,5.424528834199999,-6.795616184,3.3200413575,-2.1700000000000004,-3.5000000000000004,10.500000000000002,5.552305561040001,-7.59182790415,3.691048501629999,-5.208,4.669,8.967000000000002,16.5,False,0
2.9337644577026367,5.4939206895999995,-6.756134611099999,3.1238299042999995,-2.87,-4.2700000000000005,8.190000000000001,5.539204857305001,-7.547141942095,3.6645479913349996,-5.5265,3.6049999999999995,9.264500000000002,16.5,False,0
2.944056510925293,5.442475003699999,-6.831508523,3.0652057506,-4.970000000000001,-5.180000000000001,6.0200000000000005,5.526163974135001,-7.494200742069998,3.635475196745,-5.729500000000001,2.5375000000000005,9.457,16.5,False,0
2.9543051719665527,5.350351333599999,-6.9236321930999996,2.9635107901,-6.44,-5.53,4.0600000000000005,5.51210614136,-7.439165822269999,3.6094532509699997,-5.761000000000001,1.4874999999999996,9.565500000000002,16.5,False,0
2.9648261070251465,5.2414779053,-6.9906312259,3.026920589,-7.910000000000001,-5.670000000000001,4.550000000000001,5.494339433555,-7.380122924614999,3.5848071781899997,-5.649000000000001,0.5145,9.618,16.5,False,0
2.975515127182007,5.2965128251,-6.927221427,3.2195428083000004,-8.89,-5.040000000000001,5.040000000000001,5.4738808003249995,-7.320481821309999,3.560520028799999,-5.474000000000001,-0.3185000000000001,9.576,16.5,False,0
2.9860668182373047,5.413761132499999,-6.803991063099999,3.2374889777999996,-8.47,-3.6400000000000006,4.48,5.455456066304999,-7.254679199809999,3.5455648875499994,-5.208,-0.945,9.428999999999998,16.5,False,0
2.9964447021484375,5.4807601652999995,-6.7322063851000005,3.266202849,-6.86,-2.5900000000000003,3.5000000000000004,5.440261642794999,-7.200780870745,3.5222348672000003,-4.984,-1.3405,9.233,16.5,False,0
3.006930351257324,5.5334022625,-6.658028884499998,3.2805597846,-3.08,-1.6800000000000002,3.5000000000000004,5.43493761251,-7.132106862124999,3.482454191474999,-4.816000000000001,-1.6800000000000004,8.974,16.5,False,0
3.017266273498535,5.5501520207,-6.5288164641,3.2590243811999993,0.77,-1.05,2.7300000000000004,5.440740207315,-7.0651676498899985,3.4417163867099996,-4.676,-2.0195,8.5925,16.5,False,0
3.0276801586151123,5.568098190199999,-6.552744690099999,3.2997023654,4.130000000000001,-0.42000000000000004,1.54,5.4493543686749994,-7.003014082854999,3.4061231505349996,-4.5009999999999994,-2.3485000000000005,8.1235,16.5,False,0
3.038601875305176,5.526223794700001,-6.6388863037,3.1752755902,5.95,-0.14,0.35000000000000003,5.4543792961349995,-6.9483979070099995,3.373580763175,-4.291000000000001,-2.6040000000000005,7.5985,16.5,False,0
3.0490047931671143,5.486742221799999,-6.803991063099999,3.1501509529,6.16,-0.21000000000000002,0.0,5.4575497860799995,-6.905267279645,3.3408589141199996,-4.070500000000001,-2.7510000000000003,7.0035,16.5,False,0
3.0593655109405518,5.508277625199999,-6.784848482299999,3.1202406704,5.74,-0.35000000000000003,1.1900000000000002,5.455336425175,-6.872605251154999,3.3115468372699994,-3.7625000000000015,-2.8035000000000005,6.411999999999999,16.5,False,0
3.0698294639587402,5.569294601499998,-6.710670981699999,3.0508488149999997,6.0200000000000005,0.0,1.4000000000000001,5.455515886870001,-6.848677025154998,3.2834909922849995,-3.2620000000000005,-2.7720000000000007,5.88,16.5,False,0
3.080371379852295,5.6195438761,-6.642475537599999,3.1286155494999996,3.99,0.35000000000000003,1.4700000000000002,5.459284582465,-6.821159565255,3.2584261755499995,-2.642500000000001,-2.702000000000001,5.3515,16.5,False,0
3.0908350944519043,5.796612748499999,-6.702296102599999,3.3511480512999996,2.5200000000000005,1.4000000000000001,3.08,5.469573719645,-6.801717881629999,3.2403005443549993,-2.0125,-2.5235000000000007,4.910499999999999,16.5,False,0
3.101217031478882,5.988038556499999,-6.610172432499999,3.2530423247,1.4700000000000002,2.7300000000000004,2.9400000000000004,5.485844913325001,-6.78066104275,3.2269605583599996,-1.4594999999999998,-2.2435000000000005,4.5325,16.5,False,0
3.1116738319396973,6.177071541899999,-6.544369811,3.134597606,0.9800000000000001,3.3600000000000003,1.8200000000000003,5.5187462240750005,-6.760082768389999,3.2096125945099994,-1.0499999999999998,-1.8865000000000005,4.129999999999999,16.5,False,0
3.1219897270202637,6.223731582599999,-6.704688925199999,3.1920253484,1.9600000000000002,4.0600000000000005,0.42000000000000004,5.558586720364999,-6.74871686104,3.1946574532599996,-0.7244999999999998,-1.5365000000000006,3.6470000000000007,16.5,False,0
3.1322243213653564,6.149554082000001,-6.8721865072,3.1728827676,2.9400000000000004,3.6400000000000006,0.07,5.603272682419999,-6.751408786464999,3.1892736024099997,-0.45500000000000007,-1.1830000000000003,3.115000000000001,16.5,False,0
3.1427152156829834,6.232106461699999,-7.061219492599999,3.170489945,3.6400000000000006,3.1500000000000004,0.14,5.644010487185,-6.765346978110001,3.1907691165350003,-0.175,-0.8225000000000003,2.6145000000000005,16.5,False,0
3.153118133544922,6.263213155499999,-7.2574309458,3.0963124444,1.12,1.54,1.12,5.68151798144,-6.791189462189999,3.1977083020749997,0.12600000000000006,-0.45849999999999974,2.2855000000000003,16.5,False,0
3.1637489795684814,6.3445691239,-7.5338019561000005,3.2530423247,-2.5900000000000003,0.56,4.2700000000000005,5.72028170756,-6.817211407965,3.202673408969999,0.37100000000000033,-0.14700000000000002,2.1525000000000003,16.5,False,0
3.1740610599517822,6.4677994878,-7.612765101899999,3.4516466004999993,-3.99,0.77,5.53,5.777410347135,-6.848018998939999,3.21463752197,0.5810000000000002,0.17850000000000013,2.2365000000000004,16.5,False,0
3.184171676635742,6.859025982899999,-7.599604577599999,3.5760733757,-2.66,0.6300000000000001,8.96,5.845187047279999,-6.873203456804999,3.2302506894349996,0.8365000000000002,0.4655000000000002,2.3275,16.5,False,0
3.1944637298583984,7.119843646299999,-7.466802923299999,3.5629128513999997,1.1900000000000002,1.4000000000000001,10.290000000000001,5.920560959179999,-6.902216430829999,3.2376684394949997,1.169,0.7245,2.548,16.5,False,0
3.204909563064575,7.2059852599,-7.447660342499999,3.4671999473999997,3.8500000000000005,1.54,10.15,6.007001675604998,-6.922615243495,3.251666451705,1.6660000000000004,0.9415000000000001,2.8665000000000003,16.5,False,0
3.2153842449188232,7.194021146899999,-7.3878397775,3.2482566795,5.390000000000001,1.2600000000000002,10.71,6.095595932369998,-6.960840584529999,3.260639536455,2.1630000000000003,1.127,3.1990000000000003,16.5,False,0
3.225796937942505,7.271787881399999,-7.507480907499999,3.0771698636,6.23,0.77,10.57,6.185147318174999,-6.998886463869998,3.2626734356649996,2.5235000000000003,1.253,3.5909999999999997,16.5,False,0
3.236264944076538,7.158128807899999,-7.5900332872,2.9994031290999996,6.580000000000001,-0.14,11.410000000000002,6.265486336969999,-7.047042018694998,3.2562726352099993,2.7195,1.2985,4.018,16.5,False,0
3.246600866317749,7.1246292915,-7.6426753843999995,2.9036902250999996,7.3500000000000005,-0.6300000000000001,12.600000000000001,6.343552174295,-7.097530575555,3.24694062707,2.8034999999999997,1.302,4.564,16.5,False,0
3.2570576667785645,7.002595338899999,-7.775477038699999,2.9156543381,7.840000000000001,-1.4000000000000001,13.020000000000001,6.421199267664998,-7.1450281041649975,3.24024072379,2.8735000000000004,1.2565,5.197500000000001,16.5,False,0
3.267406463623047,6.891329088,-7.917849983399999,3.0149564759999996,7.700000000000001,-1.4700000000000002,15.820000000000002,6.496453538434999,-7.195875584414997,3.232763153165,2.9925000000000006,1.2005000000000001,5.876500000000001,16.5,False,0
3.277900218963623,6.826722877799999,-7.801798087299999,3.0771698636,6.370000000000001,-1.6800000000000002,19.39,6.564948085359999,-7.252047094949998,3.2315069213000003,3.0135000000000005,1.1025,6.6885,16.5,False,0
3.290952205657959,6.839883402099999,-7.470392157199999,3.1106693799999996,1.9600000000000002,-1.2600000000000002,21.07,6.6296739366900015,-7.303253498589998,3.23198548582,2.968,1.008,7.703500000000003,16.5,False,0
3.3013319969177246,6.8817577976,-7.1461646948999995,2.9814569596,-0.49000000000000005,-2.87,19.950000000000003,6.688896296040001,-7.332505754874998,3.223790068415,2.8140000000000005,0.8714999999999999,8.589000000000002,16.5,False,0
3.3117947578430176,6.8374905795,-6.937989128699999,2.9515466770999996,-2.3800000000000003,-4.69,19.53,6.743093727930001,-7.35685272483,3.2123045199349995,2.6320000000000006,0.5950000000000001,9.408000000000003,16.5,False,0
3.3221776485443115,6.6795642879,-6.674778642700001,2.8857440556,-3.0100000000000002,-5.95,17.64,6.77778965563,-7.371149839865,3.195435120605,2.4709999999999996,0.19600000000000017,10.2375,16.5,False,0
3.3324873447418213,6.495316947699999,-6.8135623535,3.0448667584999995,-4.550000000000001,-7.630000000000001,16.59,6.803093754625001,-7.379704180659999,3.183590648735,2.2295000000000003,-0.29399999999999993,11.042500000000002,16.5,False,0
3.3429172039031982,6.1603217837,-6.9523460642999995,3.190828937099999,-5.6000000000000005,-6.580000000000001,17.85,6.807580297000001,-7.38042202744,3.18592365077,1.876,-0.8540000000000001,11.8755,16.5,False,0
3.3534202575683594,5.854040490899999,-7.1150580010999995,3.409772205,-7.420000000000001,-3.99,21.560000000000002,6.79573582513,-7.382814850039999,3.1925039129199995,1.3825,-1.3090000000000002,12.848500000000005,16.5,False,0
3.363866090774536,5.678168029799999,-7.0313092101,3.4959138185999996,-9.030000000000001,-0.49000000000000005,27.090000000000003,6.775037909640001,-7.3782086665349995,3.2090143888599996,0.8505,-1.5575000000000003,13.996500000000003,16.5,False,0
3.3741869926452637,5.8133625067,-6.6077796099,3.4289147857999995,-8.680000000000001,2.0300000000000002,30.380000000000003,6.756314072794998,-7.354998287314999,3.229473022089999,0.399,-1.5680000000000003,15.3195,16.5,False,0
3.384577751159668,5.9365928706,-6.3517475917,3.3403803495999997,-8.47,3.6400000000000006,30.800000000000004,6.7203020926649994,-7.301997266725,3.2298917660449993,0.12250000000000014,-1.4280000000000004,16.562000000000005,16.5,False,0
3.395228624343872,5.971288798299999,-6.1722858967,3.190828937099999,-9.520000000000001,3.0100000000000002,30.590000000000003,6.683093701234999,-7.23864728839,3.21990173169,-0.1084999999999999,-1.2530000000000001,17.776500000000002,16.5,False,0
3.405832290649414,5.983252911299999,-5.9605210966,3.1525437754999994,-10.500000000000002,2.24,28.490000000000002,6.638228277484998,-7.164948352309999,3.2020752033199997,-0.5039999999999999,-1.1795000000000004,18.819499999999998,16.5,False,0
3.416332244873047,5.8193445632000005,-5.8827543621,3.2913274863,-12.39,3.1500000000000004,25.410000000000004,6.576493454404999,-7.088258387979998,3.1841888543849994,-1.1724999999999999,-1.1200000000000003,19.628,16.5,False,0
3.4273178577423096,5.7260244818,-5.892325652499999,3.3954152693999995,-13.440000000000001,5.53,21.770000000000003,6.502136492109999,-7.009295242179999,3.179642491444999,-2.0650000000000004,-0.9870000000000001,20.285999999999998,16.5,False,0
3.4377777576446533,5.4831529879,-6.046662710199999,3.4707891812999994,-12.600000000000001,8.47,20.090000000000003,6.4181484188499995,-6.931707969375,3.1838299309949996,-2.996,-0.7105000000000002,20.797,16.5,False,0
3.4482316970825195,5.312066171999999,-6.3960148098,3.6705898684,-9.100000000000001,10.99,23.380000000000003,6.327639904004998,-6.868357991039998,3.2050662315699996,-3.864,-0.2379999999999999,21.287,16.5,False,0
3.4586005210876465,5.2067819775999995,-6.723831506,3.5497523270999993,-4.550000000000001,12.46,29.820000000000004,6.2309100504,-6.811947198244999,3.231327459605,-4.560500000000001,0.3674999999999999,21.9835,16.5,False,0
3.4689953327178955,5.181657340299998,-6.842276224699999,3.2949167202,-0.9800000000000001,10.57,35.7,6.135855172615,-6.7667228511049995,3.2557342501249997,-5.071500000000001,1.0325000000000002,22.9495,16.5,False,0
3.4794042110443115,5.4628139957999995,-6.789634127499999,3.047259581099999,5.32,5.95,40.95,6.049474276755,-6.718268193454999,3.2676983631250005,-5.386500000000001,1.5330000000000001,24.185000000000002,16.5,False,0
3.4898250102996826,5.6877393201999995,-6.439085616600001,2.8522445392,7.700000000000001,2.0300000000000002,41.300000000000004,5.985825195595,-6.653003957040001,3.26201540945,-5.390000000000001,1.8060000000000003,25.385500000000004,16.5,False,0
3.5002150535583496,5.5609197223999995,-5.5776694806,1.5529418674,3.7100000000000004,1.4700000000000002,35.42,5.929713505625,-6.589893260965001,3.2506495021,-5.383000000000001,1.9249999999999996,26.288500000000006,16.5,False,0
3.5105316638946533,5.720042425300001,-5.9078789994,3.6227334164,-8.190000000000001,3.8500000000000005,26.740000000000002,5.88000261611,-6.566922164005,3.27146705872,-6.3105,2.149,26.824000000000005,16.5,False,0
3.5209405422210693,5.507081213899999,-5.998806258199999,3.8069807566,-17.990000000000002,11.200000000000001,18.900000000000002,5.812704480484999,-6.516852351099999,3.301078238395,-6.846000000000001,2.6845,26.974500000000006,16.5,False,0
3.531289577484131,5.5764730692999995,-5.8205409745,3.6777683362,-21.910000000000004,18.41,12.88,5.75246517153,-6.470790516049999,3.3538399767250007,-7.735000000000001,3.6784999999999997,26.796000000000003,16.5,False,0
3.5415313243865967,5.5776694806,-5.699703433199999,3.9816568063999997,-18.200000000000003,24.150000000000002,9.520000000000001,5.695934737604999,-6.419165368455,3.4040892513250007,-8.581999999999999,5.0575,26.47750000000001,16.5,False,0
3.551805019378662,5.5968120614,-5.6793644411,3.7339996672999995,-8.47,25.970000000000002,8.260000000000002,5.659025449,-6.363352781310001,3.429154068060001,-9.100000000000001,6.6850000000000005,26.057500000000005,16.5,False,0
3.5621118545532227,5.8097732728,-5.747559885199999,3.4755748264999995,2.8000000000000003,25.060000000000002,6.720000000000001,5.634977581870001,-6.2989858533700005,3.4478180843400006,-8.928500000000001,8.260000000000002,25.494000000000007,16.5,False,0
3.5723516941070557,5.4508498828,-5.702096255799999,3.4887353508,13.580000000000002,24.01,3.5000000000000004,5.626423241075001,-6.2235521209049995,3.4512278565450005,-8.074500000000002,9.597000000000001,24.577000000000005,16.5,False,0
3.582815647125244,5.712863957499999,-5.611168996999999,3.2685956715999995,16.94,23.730000000000004,-1.2600000000000002,5.615835001070001,-6.162056580084999,3.4417762072749993,-6.828500000000001,10.745000000000001,23.222500000000004,16.5,False,0
3.593254566192627,5.8660046039,-5.464010407099999,3.2075786952999996,13.23,25.480000000000004,-8.4,5.61416002525,-6.113781384129999,3.4366914592499995,-5.586000000000001,11.788000000000002,21.518000000000004,16.5,False,0
3.603621244430542,5.889932829899999,-5.660221860299999,3.1238299042999995,7.000000000000001,27.720000000000002,-13.440000000000001,5.61284397282,-6.077769404,3.4294531708849996,-4.644500000000002,12.880000000000004,19.428500000000003,16.5,False,0
3.6140072345733643,5.7810594016,-5.8301122648999995,3.2937203089,1.8900000000000001,30.380000000000003,-15.540000000000001,5.605366402195,-6.062395518794999,3.432085275745,-3.9340000000000024,14.206500000000002,17.213,16.5,False,0
3.6243200302124023,5.649454158599999,-5.889932829899999,3.4289147857999995,-3.22,36.260000000000005,-15.890000000000002,5.593521930325,-6.062515159924999,3.4375289471599992,-4.266500000000001,15.666000000000002,15.081500000000002,16.5,False,0
3.6464054584503174,5.314458994599999,-6.2464633973,3.6765719248999997,3.5000000000000004,41.650000000000006,-12.740000000000002,5.57611414591,-6.071607885804999,3.4535010380149997,-3.706500000000001,17.398500000000002,13.163499999999999,16.5,False,0
3.6694653034210205,5.598008472699999,-6.0382878311,3.4205399066999997,25.410000000000004,43.400000000000006,-3.8500000000000005,5.558167976409999,-6.0940405976799985,3.465764253839999,-2.0160000000000005,19.218500000000006,11.7985,16.5,False,0
3.6921777725219727,6.149554082000001,-5.538187907699999,2.9575287336,29.400000000000002,42.56,-7.7700000000000005,5.5848479484,-6.065984752694999,3.4418958484049993,0.09450000000000074,20.853000000000005,10.5805,16.5,False,0
3.715627670288086,6.562315980499999,-5.350351333599999,2.5447668350999995,25.76,42.28,-12.180000000000001,5.647480079955001,-6.008377548599999,3.3991839649949993,1.8795000000000002,22.386000000000003,8.819999999999999,16.5,False,0
3.7387590408325195,6.6855463444,-5.9018969429,2.1547367512999998,23.450000000000003,46.690000000000005,-19.250000000000004,5.72422986485,-5.932106328224999,3.3451061742349992,3.136,24.006500000000003,6.278999999999999,16.5,False,0
3.759129762649536,7.1078795333,-6.4857456573,1.7479569092999998,29.750000000000004,49.28,-20.37,5.79960377675,-5.89184708798,3.286541841099999,4.375,26.026000000000003,3.3249999999999993,16.5,False,0
3.7719717025756836,7.619943569699999,-6.5850477951999995,1.2957134379,30.310000000000002,46.13,-19.67,5.888497136339999,-5.888198033515,3.2140393163199996,5.5755,28.276500000000006,0.24849999999999833,16.5,False,0
3.782264471054077,7.757530869199999,-6.6221365455,1.2646067441,29.19,41.230000000000004,-20.090000000000003,5.984090399209999,-5.901119275555,3.1329824507449997,6.849500000000001,30.450000000000006,-2.702,16.5,False,0
3.7928884029388428,8.1738820016,-6.361318882099999,1.2693923892999999,26.6,36.120000000000005,-19.110000000000003,6.0873406944,-5.8851471847,3.024109022445,9.191,32.27000000000001,-5.236,16.5,False,0
3.8032073974609375,8.5842510775,-6.1782679532,1.4081761001,22.05,31.92,-22.12,6.231448435485,-5.899683581994999,2.91158653968,11.066999999999998,33.6525,-7.339500000000001,16.5,False,0
3.813610076904297,9.059226363599999,-5.871986660399999,1.5852449725,19.53,29.330000000000002,-26.950000000000003,6.3923059347699995,-5.903930842109999,2.78369017171,13.097000000000003,34.44350000000001,-9.2995,16.5,False,0
3.8239307403564453,9.379864591999999,-5.698507021899999,1.7252250945999998,20.51,27.930000000000003,-30.94,6.575416684235,-5.901119275554999,2.66225442476,15.1585,34.8005,-11.2875,16.5,False,0
3.8342578411102295,9.440881568299998,-5.716453191399999,1.8017954178,19.810000000000002,27.720000000000002,-33.6,6.76881657088,-5.899683581994998,2.56043982313,16.926000000000002,34.93,-13.3245,16.5,False,0
3.844444513320923,9.5509514079,-5.682953674999999,1.8257236438,17.430000000000003,24.220000000000002,-31.710000000000004,6.965566409165,-5.901179096119998,2.47011076998,18.0285,34.971999999999994,-15.375500000000002,16.5,False,0
3.8548295497894287,10.132407299699999,-5.118247541399999,1.5122638832,15.47,16.8,-31.360000000000003,7.171648255589998,-5.899025555779999,2.3789442289199996,18.4205,34.842499999999994,-17.174500000000002,16.5,False,0
3.8653273582458496,11.3312114223,-4.620540440599999,1.1952148887,8.05,4.340000000000001,-41.160000000000004,7.423133910849998,-5.854698517114999,2.2747966252549996,18.298000000000002,34.3,-19.019000000000002,16.5,False,0
3.875792980194092,12.2715907041,-4.4051864065999995,1.1736794852999999,-4.130000000000001,-6.86,-49.00000000000001,7.726184893139998,-5.803312651779999,2.169512430855,17.6505,33.085499999999996,-21.168000000000003,16.5,False,0
3.8866758346557617,13.3112721238,-3.7184463204,1.040877831,-13.580000000000002,-22.05,-55.160000000000004,8.069913859629999,-5.729733356829999,2.0644675187149994,16.646,31.1115,-23.163000000000004,16.5,False,0
3.8970539569854736,14.126028219099998,-3.1633114771999993,1.3519447689999997,-26.320000000000004,-44.24,-69.93,8.46784025801,-5.610391329654998,1.9506289835199997,15.522500000000003,27.993000000000002,-25.4555,16.5,False,0
3.907477617263794,14.696716409199999,-1.6043875532999998,2.0757736055,-54.39000000000001,-60.2,-88.55000000000001,8.904291100250001,-5.443073209349999,1.8600606481100002,13.7375,23.7405,-28.500500000000006,16.5,False,0
3.9179325103759766,15.4121703666,-0.6699903279999999,2.3150558654999998,-90.86000000000001,-67.34,-114.80000000000001,9.38512880172,-5.199424048104998,1.78684027655,9.467500000000001,18.557000000000006,-32.676,16.5,False,0
3.9282803535461426,17.1792698567,-0.7657032319999999,2.2468604213999996,-120.4,-73.78,-137.69000000000003,9.920044293950001,-4.921617344244998,1.71529488081,3.1080000000000005,12.915000000000006,-38.6575,16.5,False,0
3.9386730194091797,19.665412538099996,-0.5276173833,1.8807585635999997,-139.72000000000003,-86.03,-148.33,10.55007448453,-4.6669611990399975,1.664267938865,-4.963,6.835500000000009,-45.584,16.5,False,0
3.949171781539917,22.755742926,0.2739781877,1.3052847283,-146.51000000000002,-103.04,-164.43,11.276834528715,-4.417389801859999,1.6074982226799999,-13.621999999999996,0.0070000000000078446,-52.934000000000005,16.5,False,0
3.9595530033111572,26.888147556199996,1.2634103328,0.8506484342999999,-143.92000000000002,-120.4,-170.66000000000003,12.174262644845,-4.129353781384998,1.55114725045,-22.043000000000003,-7.881999999999996,-60.36800000000001,16.5,False,0
3.970062732696533,29.795427015199998,1.7587246109999999,-1.3268201317,-144.76000000000002,-129.78,-186.83,13.275977990449997,-3.7320255886549987,1.4590235803499998,-30.485000000000003,-16.5445,-68.09600000000002,16.5,False,0
3.9828133583068848,34.2221488252,-0.5204389155,-5.547759198099999,-184.31000000000003,-171.85000000000002,-206.78000000000003,14.454921685470001,-3.3468409706199993,1.2517453226249997,-39.662,-26.096000000000004,-76.8635,16.5,True,1
3.993462085723877,38.644084989999996,-3.4863425282,-8.6835532154,-248.22000000000003,-203.28000000000003,-209.51000000000002,15.864772761389997,-3.091466978635,0.8472984826599997,-51.52700000000001,-37.61450000000001,-86.3065,16.5,True,1
4.0038981437683105,39.1992198332,-7.2370919536999985,-10.7126667802,-306.46000000000004,-213.08,-220.99,17.428841253879998,-2.972782977675,0.31316065777500013,-66.661,-50.141,-95.96300000000001,16.5,True,1
4.014261960983276,39.1118818083,-8.6560357555,-11.766705135499999,-382.41,-206.85000000000002,-220.08,18.96874223811,-3.0572496154550004,-0.3149552747249998,-85.0325,-62.46100000000001,-106.07800000000002,16.5,True,1
4.024497747421265,36.4809733596,-6.9092752575,-9.907481975299998,-462.91,-198.45000000000002,-202.23000000000002,20.439311187505,-3.191128039925,-0.9606584533349999,-107.22250000000001,-74.095,-115.72050000000002,16.5,True,1
4.034916877746582,29.455646205999997,0.49531427819999996,-5.5310094399,-504.63000000000005,-190.68,-172.76000000000002,21.69009938109,-3.1436305113150005,-1.4359328422599995,-132.98950000000002,-85.35800000000002,-123.59550000000002,16.5,True,1
4.04539155960083,24.078973823799995,8.867800555599999,-4.3812581806,-459.83000000000004,-173.11,-194.88000000000002,22.578135668515,-2.6537599045300007,-1.7536996835399996,-158.543,-96.0365,-130.991,16.5,True,1
4.055786371231079,17.5358004241,19.6127704409,-6.7788664257999995,-378.84000000000003,-156.17000000000002,-208.46,23.215224685765,-1.6929818100650003,-2.10041967828,-180.6175,-105.6055,-139.35600000000002,16.5,True,1
4.066298246383667,-2.2002003806999997,25.804198918399997,-16.7342048531,-348.11,-129.5,-263.62,23.164855770034997,-0.21463618722000016,-2.7126831610549997,-199.311,-113.974,-149.499,16.5,True,1
4.0766282081604,-19.149759267799997,25.411776011999997,-27.171697034299996,-402.71000000000004,-184.87,-319.69000000000005,22.108544233265,1.4001003238249996,-3.8945580637600004,-218.03249999999997,-121.7055,-161.89950000000005,16.5,True,1
4.087040901184082,-39.1992198332,25.6941290788,-26.137997671099996,-551.25,-297.01000000000005,-367.57000000000005,20.08738680361,2.945265517775,-5.34137824885,-241.47899999999998,-133.7315,-176.4385,16.5,True,1
4.097311735153198,-39.1992198332,23.3144670031,-10.146764235300001,-745.5000000000001,-386.75000000000006,-383.39000000000004,17.48818325436,4.357329954599999,-6.456134477625,-272.573,-150.00650000000002,-193.24550000000002,16.5,True,1
4.107653617858887,-39.1992198332,29.338397898599997,12.203395259999999,-761.6700000000001,-464.94000000000005,-374.43000000000006,14.839747380114996,5.765924798655,-6.520022841045,-310.81399999999996,-169.6065,-208.663,16.5,True,1
4.118059396743774,-39.1992198332,28.9543498713,39.159738260299996,-648.48,-416.99000000000007,-428.68000000000006,12.158948580205001,7.382635388344998,-5.31517684138,-344.176,-190.18300000000002,-225.05349999999999,16.5,True,1
4.128401279449463,-39.1992198332,12.629317682799998,39.1992198332,-442.26000000000005,-240.94000000000003,-419.58000000000004,9.448359138925,8.578089559304999,-3.46552497158,-369.159,-204.9495,-241.84650000000005,16.5,True,1
4.13864803314209,-39.1992198332,-11.404192511599998,39.1992198332,42.28,-12.110000000000001,-263.69,6.686443652874996,8.786923151719998,-1.616770410255001,-378.2835,-208.824,-254.56900000000005,16.5,True,1
4.149014949798584,-34.279576567599996,-37.1102857034,3.8380874503999998,614.32,153.09,16.73,3.7987853391949984,7.643931616264998,-0.037028929735000916,-355.5195,-201.46700000000004,-255.29000000000005,16.5,True,1
4.159360647201538,-14.799607780999999,-26.621347836299996,-31.0325162994,636.37,108.85000000000001,262.43,1.5503695831049986,5.702993564274999,-0.7494320383200003,-311.549,-188.50300000000001,-241.17450000000002,16.5,True,1
4.169617652893066,-4.7030928203,9.7974121357,-23.3192526483,-87.15,-14.770000000000001,243.60000000000002,-0.27667011312500245,5.023611407569997,-2.6176282832700006,-284.91049999999996,-179.935,-217.74550000000005,16.5,True,1
4.182329177856445,-1.1629117836,19.0205468474,1.016949605,-359.1,-26.6,122.57000000000001,-1.8915860858649989,5.757490098989996,-3.2785258853900006,-290.703,-175.007,-199.61550000000005,16.5,True,1
4.192559242248535,-0.17108681589999997,25.713271659599997,16.3034967851,-249.83,-33.6,106.05000000000001,-3.5269008712700023,6.876194485054997,-2.781357169675,-300.68499999999995,-169.38250000000005,-184.499,16.5,True,1
4.20288610458374,0.0382851616,26.781666950499996,23.613569828099997,16.66,-29.330000000000002,85.68,-5.319184819235001,8.311469301099995,-1.4059627391950007,-295.03249999999997,-161.78400000000005,-168.88550000000004,16.5,True,1
4.213238000869751,-1.6331014245,22.2735891721,22.4398903428,62.370000000000005,7.000000000000001,43.260000000000005,-7.276872629425003,9.758468947884998,0.26518456464500006,-278.2115,-151.90700000000004,-154.83300000000003,16.5,True,1
4.223516941070557,-3.9493537012999993,12.990633895399998,20.7744858132,16.1,57.330000000000005,1.7500000000000002,-9.359944343855002,11.037492448149996,1.9101304610150003,-258.9195,-139.81100000000006,-142.772,16.5,True,1
4.233949661254883,-8.2863446638,4.3142591478,16.0941248076,10.360000000000001,85.05000000000001,-0.9100000000000001,-11.605189610000002,11.917333318169998,3.390091239115,-237.2685,-126.09800000000004,-132.03400000000002,16.5,True,1
4.244268417358398,-11.023733718199999,-1.0049854919999999,13.6977129737,11.410000000000002,92.54,15.680000000000001,-13.806885504825004,12.202258669264996,4.474757723694999,-211.81300000000005,-111.77250000000004,-122.45799999999997,16.5,True,1
4.2545812129974365,-13.121042727099999,-2.8594230069999997,13.3340039385,-13.23,96.18,49.00000000000001,-15.752130637495,11.880962414649996,5.368776067619999,-187.0575,-97.80400000000002,-112.04549999999995,16.5,True,1
4.26524019241333,-14.796018547099997,-2.9108686929000003,13.746765837,-31.290000000000003,109.55000000000001,81.97000000000001,-17.56666783564,11.064052779009995,6.297370698115,-167.13900000000004,-84.55299999999998,-98.92049999999999,16.5,True,1
4.276219129562378,-15.722040893299999,-3.1513473642,12.714262885099997,-16.1,123.41000000000001,127.54,-18.770078141744996,9.702835822434995,7.497730155404999,-150.66450000000003,-71.393,-82.22200000000001,16.5,True,1
4.286572694778442,-15.795021982599998,0.5659025448999999,11.2737836799,14.14,129.43,168.98000000000002,-19.04172332741,8.210252905119999,9.208957237795,-132.8775,-57.998500000000014,-60.70750000000002,16.5,True,1
4.296968698501587,-14.7110733448,3.6801611588,10.0031948793,33.11000000000001,146.44000000000003,167.93,-18.370058023589998,7.0142603490749975,11.144032874415,-108.36000000000001,-39.17550000000002,-35.2275,16.5,True,1
4.307326316833496,-14.557932698399997,4.3956151162,8.368897043499999,42.7,161.91000000000003,162.54000000000002,-17.130157172835,6.015914939789999,12.677413417059999,-74.93500000000003,-14.381500000000013,-7.619499999999986,16.5,True,1
4.317806243896484,-16.016358073099997,2.9647072013999995,7.3746792532,68.95,165.41000000000003,160.23000000000002,-15.909817646835,4.969354155114999,13.088440519174998,-33.141499999999986,15.148000000000001,18.833500000000015,16.5,True,1
4.3282880783081055,-16.881363443,1.4285150922,7.198806792099999,119.98000000000002,157.78,169.75000000000003,-14.781721432064998,3.5992837549199974,12.159905709244999,7.518000000000003,46.4905,47.20100000000001,16.5,True,1
4.338639974594116,-18.047864460499998,0.5276173833,7.036094855299999,190.68,149.52,183.47000000000003,-13.701362028164999,2.5150360142949992,10.557910978545,44.21900000000001,72.20150000000001,77.75250000000001,16.5,True,1
4.349195957183838,-17.869599176799998,-1.1724830739999998,8.0913296219,270.83000000000004,134.19000000000003,205.45000000000002,-12.649776316029996,2.3398215794099997,8.964051844684999,69.86,86.76850000000002,106.31600000000003,16.5,True,1
4.359526634216309,-17.308482277099998,-0.5694917787999999,7.363911551499999,354.34000000000003,123.06000000000002,235.06000000000003,-11.618948339949997,3.4971700504649994,7.653562727230001,68.91850000000002,89.76100000000001,124.9535,16.5,True,1
4.370028495788574,-15.646666981400001,-0.49052863299999994,6.4881384799,408.59000000000003,112.07000000000001,257.81,-11.240702907454999,5.428536812054999,8.652984906684999,51.173500000000004,87.39150000000001,130.9105,16.5,True,1
4.380460500717163,-12.978669782399999,-0.9786644433999999,5.181657340299998,425.11,99.68,269.64000000000004,-11.373983126274998,6.045825222289999,10.758728615249998,52.83950000000001,89.7295,129.08700000000005,16.5,True,1
4.390871286392212,-9.9732845968,-0.8602197247,4.2317067681,424.62000000000006,97.93,270.20000000000005,-11.767004238324997,5.1667021990499995,11.652507676914999,87.059,95.9105,133.2835,16.5,True,1
4.401370048522949,-6.484549246,-1.0456634761999999,2.8259234905999997,409.50000000000006,99.47000000000001,258.65000000000003,-12.08818085181,3.9458242879649994,11.467602310499998,125.58000000000001,102.305,141.225,16.5,True,1
4.411891937255859,-3.9541393464999994,-1.698904046,1.9250257816999998,392.91,104.16000000000001,247.38000000000002,-12.350912773289998,2.511207498135,10.559585954365,150.30400000000003,109.10550000000003,148.69400000000002,16.5,True,1
4.42224383354187,-1.6594224731,-2.4957139718,1.5996019081,388.99,108.08000000000001,249.62000000000003,-12.490952715955,1.1642876565949996,9.443453852594999,166.691,115.07650000000004,157.64000000000001,16.5,True,1
4.432525396347046,0.3337987527,-1.9956140484,1.5912270289999997,379.82000000000005,114.66000000000001,259.0,-12.398350481334997,0.16384852753500012,8.440023695285,183.89000000000004,119.14700000000002,169.35100000000003,16.5,True,1
4.442974328994751,2.2097716711,-0.6927221427,1.8233308212,353.22,116.97000000000001,263.34000000000003,-11.99569825832,-0.34540394231000004,7.627361319759997,201.96400000000003,121.34849999999999,182.56,16.5,True,1
4.453314304351807,2.8247270792999997,-0.41874395499999995,1.8616159827999998,329.98,120.4,255.01000000000002,-11.327682008965,-0.39379877939499996,7.054938333275001,218.449,122.79749999999999,195.286,16.5,True,1
4.463614225387573,3.9170505961999997,0.8315058534999998,2.0542382020999996,319.20000000000005,136.85000000000002,231.49,-10.587223055394999,-0.26237299809,6.491907175494998,234.40900000000002,124.43550000000002,206.13950000000006,16.5,True,1
4.474109888076782,6.953542475599999,1.399801221,1.7395820302,303.31,158.62,210.77,-9.618668287479998,-0.05754738353000001,5.90692187036,251.31750000000002,126.59500000000003,213.997,16.5,True,1
4.484306812286377,9.896714273599999,1.7324035624,1.8783657409999999,285.53000000000003,188.58,197.33,-8.43852818116,0.18448662245999992,5.323611541045,267.41050000000007,129.25150000000002,219.247,16.5,True,1
4.494577646255493,11.751151788599998,2.6033909887999998,1.7120645702999997,281.75,221.76000000000002,185.01000000000002,-7.1138615898,0.40265222301500003,4.822135744649999,281.8165,133.0175,221.494,16.5,True,1
4.5051093101501465,14.562718343599999,2.0793628394,1.0181460163,278.11,244.51000000000002,172.55,-5.712026469589998,0.4015156322799999,4.3460836883799985,294.66150000000005,137.93500000000003,221.8965,16.5,True,1
4.515409231185913,15.7639152888,1.4895320685,0.5276173833,244.02,240.59000000000003,157.08,-4.238107568555001,0.2877967382149999,3.8790645374249992,306.019,142.34150000000005,222.012,16.5,True,1
4.525659084320068,16.441084084599996,0.7345965381999999,0.6963113766000001,192.15,225.82000000000002,137.20000000000002,-2.6956343000299987,0.15714862425499998,3.5101511130699996,314.67100000000005,145.80650000000003,221.44500000000002,16.5,True,1
4.535959959030151,17.308482277099998,-0.014356935599999999,2.5112673186999994,132.16000000000003,210.56000000000003,122.43,-1.023709328845001,0.064905313025,3.21667142118,318.47900000000004,148.603,219.78249999999997,16.5,True,1
4.546375751495361,17.8995094593,0.7848458127999999,3.8045879339999993,89.88000000000001,217.98000000000002,117.11000000000001,0.7393223628349987,0.03421736317999994,3.0184858893349995,316.7255,151.4345,216.8705,16.5,True,1
4.556663751602173,18.2105763973,2.3820548983,4.7102712880999995,77.77000000000001,240.17000000000002,108.85000000000001,2.5443480911449994,0.12556336593499998,2.8703103498299996,309.68,155.568,213.08,16.5,True,1
4.5670576095581055,19.1485628565,3.3260234139999993,4.4709890281,78.19000000000001,250.81000000000003,83.86000000000001,4.399862376315,0.2849851716599999,2.7296722015149997,298.235,161.5075,207.27700000000004,16.5,True,1
4.580092430114746,18.6065885376,3.2829526071999995,0.8985048862999999,80.50000000000001,245.14000000000001,51.52,6.15565577963,0.479581469605,2.5436302443649996,283.20250000000004,168.1715,197.7185,16.5,True,1
4.590564012527466,21.4384940847,2.8055844984999996,-4.6947179411999995,68.25,204.96,25.410000000000004,7.8509705917299994,0.68602223942,2.1737596909699994,265.89850000000007,174.398,186.68300000000005,16.5,True,1
4.600986003875732,22.9878467182,1.3567304141999996,-7.386643366199999,17.92,105.28000000000002,-8.75,9.539645321115,0.8484948939600001,1.6214962348899995,247.07200000000003,177.54800000000003,173.71200000000005,16.5,True,1
4.611434698104858,19.986050766499996,-1.2765708571,-5.7188460139999995,-81.06,-14.910000000000002,-56.35000000000001,11.056455567255,0.9101698964750001,1.0802995833349995,224.8645,174.95100000000005,159.05400000000003,16.5,True,1
4.621762752532959,15.926627225599999,-3.5150563993999997,-1.256231865,-187.88000000000002,-78.47000000000001,-87.57000000000001,12.23067343764,0.8707481441400002,0.7546962480399998,198.4395,167.44350000000003,142.77550000000002,16.5,True,1
4.632139444351196,11.9569345322,-5.989234967799999,3.7052857960999996,-236.81000000000003,-93.10000000000001,-92.4,13.07031488798,0.7516453992250002,0.7071987194299999,168.14350000000007,157.4755,125.81450000000002,16.5,True,1
4.642388343811035,8.818747692299999,-8.681160392799999,7.1497539288,-209.3,-49.63,-79.38000000000001,13.605649124165001,0.5055435948150002,0.9025128641549998,137.03900000000004,148.022,108.73800000000001,16.5,True,1
4.652667999267578,8.1583286547,-10.0163554036,6.7968125953,-119.35000000000001,15.190000000000001,-43.61000000000001,13.945908497885,0.08937192411000021,1.1895319350249998,109.56750000000004,141.08150000000003,92.43850000000002,16.5,True,1
4.6638219356536865,9.21236701,-9.3690968903,2.9072794589999997,-21.700000000000003,48.510000000000005,-8.05,14.183635423195003,-0.4043271988349996,1.333819137805,89.05050000000004,136.93400000000003,78.323,16.5,True,1
4.674202919006348,10.6863457316,-8.694320917099999,-1.4608181972999998,28.490000000000002,51.38,-4.9,14.517673458154999,-0.8700302973599996,1.2844073511149996,73.30750000000002,133.25900000000007,65.85249999999999,16.5,True,1
4.68452787399292,10.857432547499998,-9.1357966868,-4.1599220901,32.620000000000005,30.380000000000003,-18.48,14.79793280518,-1.3719248377099995,1.0575677686349998,59.40899999999999,128.3205,54.421499999999995,16.5,True,1
4.6950764656066895,9.5916293921,-10.2544412523,-4.342973019,-16.240000000000002,11.340000000000002,-27.720000000000002,14.90824192704,-1.9335203019299996,0.7393821833999998,45.678499999999985,120.84100000000004,42.927499999999995,16.5,True,1
4.705488204956055,7.625925626199998,-10.502098391399999,-3.3846475676999996,-33.95,3.7100000000000004,-21.42,14.822818160219999,-2.5543979460649995,0.4464408765949999,30.673999999999985,111.07950000000002,32.014500000000005,16.5,True,1
4.715946197509766,6.6245293681,-10.134800122299998,-2.0542382020999996,-53.830000000000005,8.4,-6.790000000000001,14.53771334743,-3.2019555621899998,0.2360519494899999,14.252000000000006,99.59600000000003,22.15500000000001,16.5,True,1
4.72641921043396,6.1088760978,-8.901300071999998,-1.0707881135,-53.27,18.830000000000002,11.830000000000002,14.095818833774999,-3.785265891505,0.14883356572,-1.7359999999999984,87.96900000000002,13.7935,16.5,True,1
4.736756801605225,6.3481583578,-7.095915420299999,-0.8051848048999999,-39.620000000000005,27.090000000000003,25.340000000000003,13.603017019305,-4.257668893309999,0.07992027483999989,-15.392999999999997,77.39900000000003,7.259000000000003,16.5,True,1
4.747327566146851,6.668796586199999,-5.663811094199999,-0.9511469834999998,-21.21,28.42,28.700000000000003,13.086586081659998,-4.6061236844349995,-0.02494517560499999,-25.357500000000005,67.93500000000002,2.1769999999999987,16.5,True,1
4.767311334609985,6.9116680801,-4.4602213264,-0.9415756931,0.35000000000000003,15.610000000000001,11.13,12.542218940159998,-4.884648235075,-0.2388635160449999,-31.633000000000003,58.71600000000001,-2.3835000000000006,16.5,True,1
4.785621166229248,6.2500526312,-4.9507499594,-0.6017948838999999,2.3800000000000003,1.12,0.14,11.984451992099999,-5.19230540087,-0.4996213588799998,-35.679,47.95700000000001,-7.815499999999998,16.5,True,1
4.799596071243286,5.994020612999999,-5.2223353244999995,-0.10648060570000001,-2.66,-5.250000000000001,-1.4700000000000002,11.362437757230001,-5.591428210549999,-0.7539784012599999,-39.494,35.5285,-12.8625,16.5,True,1
4.820776700973511,5.9593246853,-5.8205409745,0.6029912951999999,-12.040000000000001,-9.590000000000002,0.0,10.719905068565001,-6.020880046684999,-0.933260634565,-43.94250000000001,22.613500000000002,-15.680000000000001,16.5,True,1
4.839596271514893,6.477370778199999,-5.306084115499999,0.7393821834,-15.890000000000002,-17.360000000000003,4.48,10.05571733537,-6.473841364865,-0.8300103393750001,-48.352500000000006,10.408999999999999,-17.64,16.5,True,1
4.855546951293945,6.885347031499999,-5.2414779053,1.0839486377999998,-25.340000000000003,-25.200000000000003,-8.540000000000001,9.271170625394998,-6.847360972724999,-0.4782055966099999,-51.9225,1.2495000000000025,-18.308500000000002,16.5,True,1
4.8719868659973145,6.5814585613,-6.005984725999999,2.1439690496,-27.580000000000002,-21.910000000000004,-18.48,8.50827895995,-7.139464791619998,-0.02961117967499991,-52.01700000000001,-2.2749999999999986,-17.727500000000003,16.5,True,1
4.888917446136475,6.082555049199999,-7.192824735599999,2.847458894,-6.720000000000001,-8.96,-8.680000000000001,7.902954662714999,-7.367620426529998,0.3056830871499999,-46.651500000000006,-0.6299999999999999,-14.882000000000005,16.5,True,1
4.907637119293213,6.1316079125,-7.446463931199999,2.4442682858999993,18.48,0.07,-4.48,7.504130955859999,-7.509514806709997,0.40295132584,-35.26950000000001,3.9899999999999998,-10.5315,16.5,True,1
4.9181530475616455,6.177071541899999,-7.7048887719999986,1.5912270289999997,19.040000000000003,0.56,-5.32,7.301040137685,-7.521718201969999,0.22779671152,-22.5435,7.888999999999998,-6.356000000000002,16.5,True,1
4.928567886352539,6.266802389399999,-7.996813129199999,1.0755737586999998,11.06,-2.31,-6.720000000000001,7.205925439335,-7.433961433115,-0.08380861156500001,-12.778500000000003,8.974,-3.4685,16.5,True,1
4.938949823379517,6.3074803736,-8.0135628874,0.9355936366,-2.1,-6.930000000000001,-7.140000000000001,7.10440994053,-7.338727093634999,-0.3016751092950001,-9.163,6.978999999999997,-2.6704999999999997,16.5,True,1
4.949291706085205,5.9186467011,-8.1044901462,1.4679966650999998,-10.22,-7.98,-7.420000000000001,6.92650358022,-7.288896562989999,-0.2973082080500001,-9.926,3.944499999999999,-2.8105,16.5,True,1
4.959490537643433,5.5896335936,-8.297112365499999,1.9980068709999999,-11.760000000000002,-3.43,-6.16,6.670830485409999,-7.2544997381149985,-0.07627122037500025,-12.288500000000003,1.3544999999999998,-2.723,16.5,True,1
4.969898223876953,5.3455656884,-8.445467366699999,2.1619152191,-11.690000000000001,2.66,-2.8000000000000003,6.423472449135,-7.192286350514999,0.25818555853999986,-13.853000000000003,0.26599999999999946,-1.7640000000000005,16.5,True,1
4.980365991592407,5.3347979867,-8.470592003999998,2.1056838879999997,-11.690000000000001,6.370000000000001,-1.1900000000000002,6.24742052634,-7.09531721465,0.5811567889749998,-13.576500000000001,0.2065000000000003,-0.5425000000000001,16.5,True,1
4.990713119506836,5.448457060199999,-8.4203427294,1.8149559420999999,-9.73,7.98,-1.1900000000000002,6.159603936919998,-6.991169610984999,0.8201997667149998,-11.795000000000002,0.3675000000000009,0.2484999999999998,16.5,False,1
5.001134872436523,5.5716874241,-8.4729848266,1.5792629159999998,-6.580000000000001,4.62,-2.9400000000000004,6.120900031364999,-6.9252473483550006,0.9884750160599998,-9.387,0.10499999999999972,0.16099999999999975,16.5,False,1
5.011751651763916,5.797809159799999,-8.467002770099999,1.4033904548999998,-4.760000000000001,-0.8400000000000001,-4.2700000000000005,6.092904006944999,-6.941757824295001,1.1059027851549996,-7.2905000000000015,-0.9345000000000006,-0.9450000000000003,16.5,False,1
5.02211856842041,5.8995041203,-8.365307809599999,1.4632110198999997,-2.8000000000000003,-6.580000000000001,-4.970000000000001,6.062515159924999,-7.0430340408399985,1.2227921691649999,-5.9430000000000005,-2.5025,-2.5795000000000003,16.5,False,1
5.032395362854004,5.827719442299999,-8.1702927677,1.8484554585000001,-0.42000000000000004,-9.31,-5.880000000000001,6.018247941825,-7.201319255829999,1.35206441013,-5.2955000000000005,-4.2490000000000006,-4.2,16.5,False,1
5.042776346206665,5.6769716185,-8.01595571,2.1487546948,-2.9400000000000004,-3.43,-5.670000000000001,5.966921897054999,-7.384071081905001,1.49479627822,-5.446000000000001,-5.197500000000002,-4.83,16.5,False,1
5.055794954299927,5.6291151665,-7.7742806274,2.0470597343,-5.180000000000001,2.31,-2.7300000000000004,5.942455285969999,-7.52758061734,1.62676044461,-5.7155000000000005,-5.1065000000000005,-4.9945,16.5,False,1
5.066269874572754,5.7846486355,-7.3878397775,1.8975083218,-7.07,4.760000000000001,-1.7500000000000002,5.932704533874999,-7.64542713039,1.7246867095150002,-5.551,-4.564000000000002,-4.984,16.5,False,1
5.07661247253418,5.7463634739,-7.179664211299999,1.7491533205999998,-9.590000000000002,5.95,-3.22,5.917928854319999,-7.723492967715001,1.782353734175,-5.2815,-3.5735,-5.3340000000000005,16.5,False,1
5.08694863319397,5.7822558129,-7.2227350181,1.5541382787,-12.040000000000001,4.0600000000000005,-6.65,5.871567916444999,-7.8180692809800005,1.8251852587150001,-4.718000000000001,-2.2050000000000005,-5.481,16.5,False,1
5.097245454788208,5.876772305599999,-7.312465865599999,1.447657673,-11.270000000000001,1.12,-9.31,5.816174073255,-7.90552694701,1.8133407868449996,-3.8955000000000006,-0.8435000000000004,-5.085500000000001,16.5,False,1
5.107656002044678,5.7810594016,-7.4967132058,1.5529418674,-7.420000000000001,-1.1900000000000002,-11.97,5.801458214264999,-7.9298739169650005,1.7517256048949996,-3.332,-0.06300000000000008,-4.8195,16.5,False,1
5.124591112136841,5.4723852862,-7.6917282476999995,1.7240286832999998,7.7700000000000005,-1.8900000000000001,-15.260000000000002,5.782315633465,-7.940342515840001,1.70380933233,-3.8115,-0.098,-5.285,16.5,False,1
5.1348676681518555,5.175675283799999,-7.785048329099999,1.8113667082,11.97,-0.9800000000000001,-14.14,5.748875937629999,-7.947341521945001,1.690828269725,-4.273500000000001,-0.21000000000000013,-5.817,16.5,False,1
5.145216703414917,4.9220360882,-7.8999038139,1.7659030788,11.48,3.5000000000000004,-12.250000000000002,5.688636628675,-7.949794165110001,1.714397572335,-4.483500000000001,-0.15399999999999997,-6.1985,16.5,False,1
5.155565500259399,4.760520562699999,-8.0195449439,1.6091731985,8.47,8.260000000000002,-10.780000000000001,5.6141600252499995,-7.947760265900001,1.7576478408300003,-4.277,0.34650000000000003,-6.4365000000000006,16.5,False,1
5.165926218032837,4.6887358847,-7.8831540556999995,1.2394821068,10.780000000000001,10.780000000000001,-8.540000000000001,5.533521903629999,-7.953503040139999,1.7732610082950004,-3.5455000000000014,1.2670000000000001,-6.5870000000000015,16.5,False,1
5.176266193389893,4.7904308451999995,-8.3186477689,1.2909277927,20.23,9.870000000000001,-5.670000000000001,5.477769137049998,-7.96905638704,1.7532211190200002,-2.2610000000000006,2.1595000000000004,-6.583500000000001,16.5,False,1
5.186558961868286,4.914857620399999,-8.532805391599998,1.2000005339,31.780000000000005,9.170000000000002,-3.08,5.441936618614999,-7.971688491899998,1.7059628726699998,-0.4304999999999996,2.6670000000000007,-6.562500000000002,16.5,False,1
5.196878671646118,5.1649075821,-8.554340795,1.0217352502,39.06,9.170000000000002,-0.28,5.427400221319999,-7.975217905234997,1.6400406100399998,1.9214999999999995,2.8630000000000004,-6.5485000000000015,16.5,False,1
5.207138776779175,5.4376893585,-8.2959159542,0.7668996432999999,39.480000000000004,10.22,4.760000000000001,5.422554755555,-7.977610727835,1.585663716455,4.494,2.982,-6.412000000000001,16.5,False,1
5.217553615570068,5.711667546199999,-7.848458127999999,0.47258246349999994,36.190000000000005,11.270000000000001,7.910000000000001,5.425127039849999,-7.959305634944999,1.5299109498749999,6.807500000000002,3.1815000000000007,-6.0200000000000005,16.5,False,1
5.2280802726745605,6.0526447667,-7.3758756645,0.2955135911,32.06,9.450000000000001,8.75,5.436732229459999,-7.915397340234999,1.4757135179849998,8.8025,3.6050000000000013,-5.411,16.5,False,1
5.238568067550659,6.473781544299999,-6.9487568304,0.18544375149999998,31.85,7.700000000000001,8.75,5.452225755794999,-7.8528250292449995,1.4157733118549998,10.577000000000002,4.1965,-4.753,16.5,False,1
5.249145984649658,7.231109897199999,-6.4438712618,0.39481572899999995,32.970000000000006,5.460000000000001,10.080000000000002,5.494937639204999,-7.774998474179999,1.3526626157799997,12.222000000000001,4.9595,-4.039,16.5,False,1
5.259480714797974,8.267202082999999,-5.636293634299999,0.3397808092,38.150000000000006,4.69,10.57,5.58652292422,-7.665706301925002,1.275434266365,14.017500000000002,5.582500000000001,-3.2129999999999996,16.5,False,1
5.269827842712402,9.687342296099999,-4.8717868136,-0.07537391189999999,43.89000000000001,2.9400000000000004,5.250000000000001,5.74899557876,-7.513403143435001,1.17284199739,16.261000000000003,5.803000000000001,-2.5374999999999996,16.5,False,1
5.280421495437622,10.850254079699999,-4.475774673299999,-0.37926238209999996,42.84,-2.9400000000000004,-1.54,5.97188700395,-7.365048142235001,1.060917720275,18.805500000000002,5.6665,-2.38,16.5,False,1
5.290906190872192,12.2476624781,-3.9326039431,-0.36610185780000004,28.910000000000004,-12.110000000000001,-8.47,6.253940967924999,-7.212505701484998,0.9519844714099998,21.192500000000003,5.053999999999999,-2.492,16.5,False,1
5.301387071609497,14.096117936599999,-3.2757741393999997,-0.19740786449999997,1.12,-18.340000000000003,-21.700000000000003,6.631109630249999,-7.033522571004999,0.8497511258249999,22.68,4.0424999999999995,-2.957499999999999,16.5,False,1
5.311863899230957,16.595421142299998,-2.428714939,-0.13998012209999997,-39.13,-27.020000000000003,-40.88,7.093462777135,-6.806742809089999,0.7634300505299998,22.554000000000002,2.8174999999999994,-4.101999999999999,16.5,False,1
5.322450876235962,19.546967819399995,-1.9645073545999996,-0.22612173569999997,-83.65,-40.11000000000001,-66.43,7.699983485669999,-6.542515373484998,0.6831508522999998,20.195000000000004,1.2915000000000003,-6.2090000000000005,16.5,False,1
5.3331427574157715,22.876580467300002,-1.9453647737999997,-0.11724830739999999,-126.56000000000002,-66.92,-82.60000000000001,8.47717226615,-6.263811361149999,0.5905486176799999,14.7945,-1.19,-9.226000000000003,16.5,False,1
5.343526601791382,25.853251781699996,-1.8915262652999998,-0.0789631458,-163.73000000000002,-88.76,-84.49000000000001,9.40917666885,-5.980082421354999,0.4923232499499998,7.0035,-4.924500000000001,-12.719,16.5,False,1
5.353988170623779,29.1302223324,-0.9056833541,-0.44985064880000003,-200.13000000000002,-110.60000000000001,-74.48,10.516515147564999,-5.666144096235,0.39122649509999985,-2.698500000000003,-9.803500000000003,-16.0895,16.5,False,1
5.3644232749938965,31.4799741256,0.8171489178999999,-0.8961120637,-242.27,-134.05,-73.43,11.781540635619999,-5.282933556844999,0.277627242165,-14.252000000000004,-16.128000000000004,-19.0925,16.5,False,1
5.374808073043823,33.4887486983,2.5435704238,-0.8901300072,-282.45000000000005,-155.82000000000002,-81.27000000000001,13.157772554009998,-4.792285282714999,0.15577275126000006,-27.856500000000004,-23.740500000000004,-22.393,16.5,False,1
5.38743782043457,39.1274351552,3.8488551520999996,-1.7204394494,-304.71000000000004,-194.32000000000002,-93.59,14.665310612574999,-4.220400681315,0.04211367776000003,-43.37200000000001,-32.704,-26.278000000000002,16.5,True,2
5.398136854171753,39.1992198332,4.271188340999999,-4.0618163635,-304.08000000000004,-215.74,-114.38000000000001,16.3848527535,-3.597907881924999,-0.14374881769499998,-59.89200000000001,-43.4805,-31.003000000000007,16.5,True,2
5.40859842300415,39.1992198332,4.3896330596999995,-8.538787448099999,-336.98,-214.90000000000003,-149.94000000000003,18.093088807639997,-2.95405914083,-0.48227339503,-77.028,-54.7505,-37.30650000000001,16.5,True,2
5.418956518173218,39.1992198332,4.2053857195,-13.940584467599999,-383.32000000000005,-229.18000000000004,-204.75000000000003,19.789659851605,-2.3122442989449996,-1.07760765791,-96.173,-66.1115,-45.86400000000001,16.5,True,2
5.4293372631073,31.639096828499998,6.453442552199999,-13.7539443048,-486.64000000000004,-262.43,-245.70000000000002,21.395064354509998,-1.6758133079100002,-1.831167315215,-119.819,-78.75000000000001,-57.49100000000001,16.5,True,2
5.439568996429443,22.1156628805,11.2366949296,-9.661021247499999,-560.7700000000001,-276.64000000000004,-256.90000000000003,22.492771722259995,-0.8971290133049997,-2.4801606249,-148.2355,-92.90400000000002,-70.4795,16.5,True,2
5.450016021728516,11.7463661434,20.4849542786,-3.7148570864999995,-532.07,-265.23,-267.54,23.087447958924997,0.1554736484350001,-2.8396223999849997,-177.85250000000002,-107.10350000000001,-83.88100000000001,16.5,True,2
5.460399866104126,-2.177468566,27.0125743314,-6.0167524277,-399.07000000000005,-226.66000000000003,-319.62,23.005134861484997,1.71290205821,-3.0119654477499997,-203.0945,-119.8925,-98.51100000000001,16.5,True,2
5.473267555236816,-21.5342069887,20.7948248053,-15.923037991699998,-389.20000000000005,-191.59000000000003,-359.24,21.978793427779998,3.173780076075,-3.571706474455,-222.15900000000002,-129.48250000000002,-116.34700000000002,16.5,True,2
5.4835734367370605,-39.1992198332,19.4596297945,-20.197815566599996,-557.9000000000001,-277.83000000000004,-374.29,20.10282050938,4.37623325314,-4.530510490275,-246.68700000000004,-140.6405,-135.02650000000003,16.5,True,2
5.4939892292022705,-39.1992198332,28.542784384100003,-16.778472071199996,-672.49,-400.33000000000004,-392.91,17.635341844259997,5.7241102237199994,-5.494937639205,-279.8670000000001,-156.93300000000002,-154.03150000000002,16.5,True,2
5.504181146621704,-39.1992198332,35.7858583943,-7.905885870399999,-710.57,-498.89000000000004,-436.24000000000007,15.103615892329998,7.557909643795,-6.21691203819,-316.58900000000006,-178.871,-174.31750000000005,16.5,True,2
5.515167951583862,-39.1992198332,32.6799746595,24.708286167599997,-771.8900000000001,-607.8800000000001,-532.4200000000001,12.477852012219998,9.6179504407,-6.09966373079,-354.41350000000006,-206.192,-197.09900000000002,16.5,True,2
5.525510787963867,-39.1992198332,19.0839566463,39.1992198332,-726.3900000000001,-438.90000000000003,-550.0600000000001,9.764750107209997,11.246326040565,-4.128755575735001,-393.0185,-234.2165,-224.00350000000003,16.5,True,2
5.535726547241211,-39.1992198332,-8.0602229281,39.1992198332,-267.89000000000004,-102.9,-325.64000000000004,6.906403870379998,11.805409041054999,-2.1611375517550004,-419.3035000000001,-247.842,-245.17500000000004,16.5,True,2
5.546180486679077,-39.1992198332,-35.3719000845,31.566115739199997,590.94,208.46,-19.110000000000003,3.8853456967499995,10.971211262129996,-0.19381863059999987,-405.3350000000001,-243.86950000000002,-251.99650000000005,16.5,True,2
5.556553363800049,-26.659632997899998,-35.0022089928,-19.6725910059,874.58,318.15000000000003,293.93,0.8770293034649992,9.119166569729996,0.23156540711500018,-356.10400000000004,-225.67649999999998,-242.04950000000002,16.5,True,2
5.567001104354858,-16.966308645299996,-3.0221349437999994,-39.1992198332,411.67,165.20000000000002,372.19000000000005,-1.5410973955299982,7.971329568509998,-1.3037293936100003,-312.389,-207.81599999999997,-219.68100000000004,16.5,True,2
5.577323913574219,-8.042276758599998,14.3641140678,-24.005992734499998,-161.98000000000002,59.150000000000006,245.35000000000002,-3.5902508496050003,8.298428417929998,-3.0132216796150004,-296.18750000000006,-197.1515,-199.40550000000002,16.5,True,2
5.587762832641602,-7.116254412399999,16.913666548099997,-7.5050880849,-374.57000000000005,45.78,135.17000000000002,-5.516473042605002,9.001320056679997,-3.8085360912900006,-299.84499999999997,-187.56850000000003,-186.4975,16.5,True,2
5.598273754119873,-9.284151688,19.488343665699997,6.8769721524,-190.05,19.53,143.43,-7.689754169055003,9.774560679869998,-3.7987255186299995,-301.1575,-177.54450000000006,-176.01850000000005,16.5,True,2
5.608559608459473,-7.6008009889,23.430518899200003,10.101300605899999,75.95,21.07,170.24,-10.100642579685003,10.646565055874998,-3.19298247744,-288.337,-166.47400000000005,-163.1945,16.5,True,2
5.6189844608306885,-6.5515482787999995,23.219950510399997,11.2199451714,122.64000000000001,37.38,130.06,-12.38261767274,11.588380031234996,-2.394497575820001,-267.0675,-154.15050000000002,-148.4105,16.5,True,2
5.629303216934204,-9.0735832992,19.453647737999997,12.751351635399999,81.97000000000001,58.800000000000004,88.76,-14.701561874965,12.462657588709998,-1.265743334835,-244.65,-141.0535,-134.043,16.5,True,2
5.639624118804932,-13.3842532131,11.302497551099998,13.4380917216,117.32000000000001,83.44000000000001,56.42000000000001,-17.09899065847,12.995539181729999,0.1176670513550003,-218.72199999999992,-125.52050000000004,-119.378,16.5,True,2
5.6501476764678955,-18.597017247199997,2.8271199018999997,12.1663065097,222.18000000000004,91.35000000000001,78.47000000000001,-19.316598823585,12.957732584649998,1.392921856025,-184.233,-107.31000000000003,-103.71549999999998,16.5,True,2
5.660700559616089,-22.6743869576,-3.3044880105999996,9.6993064091,308.56,87.15,122.57000000000001,-21.228942645504997,12.258549820929996,2.3002801859449997,-143.276,-89.16600000000003,-85.74299999999997,16.5,True,2
5.671121597290039,-25.0612275011,-5.231906614899999,10.973484443599999,393.05,86.73,178.64000000000001,-22.694546488004995,10.860064652359997,2.987139913274999,-102.55350000000003,-72.44650000000001,-64.11999999999998,16.5,True,2
5.681588411331177,-24.545574230799996,-4.884947337899999,10.6564354491,470.12000000000006,91.42,240.45000000000002,-23.315603593835,9.439206592479996,4.099383678319999,-63.95200000000002,-58.53050000000002,-36.37900000000001,16.5,True,2
5.69202733039856,-21.750757434,-3.4205399066999997,8.8881395477,519.6800000000001,98.42000000000002,279.44000000000005,-23.033370168165,8.284789329109996,5.570670474494999,-16.80000000000002,-42.987000000000016,-4.942000000000027,16.5,True,2
5.702320098876953,-19.585252980999996,-3.9493537012999993,6.2021961791999995,524.0200000000001,115.92000000000002,295.54,-22.127806455195003,6.975915366909999,6.962276278089997,40.701500000000024,-21.371000000000016,28.335999999999995,16.5,True,2
5.7126548290252686,-16.4781728349,-5.0656054442,3.8428730955999995,482.72,122.01,317.73,-21.076519845885002,5.118965388180001,7.944589775954998,100.912,6.824999999999994,64.14450000000002,16.5,True,2
5.722982883453369,-13.036097524799997,-4.331008905999999,2.2839491717,432.46000000000004,133.56,341.11,-19.87203276961,2.947060134725,7.994779229989997,160.951,41.216,103.99900000000002,16.5,True,2
5.73348069190979,-9.072386887899999,-3.0197421211999997,1.6522440052999998,388.43000000000006,148.12,349.72,-18.487605433815,1.240140133014999,6.128257960859999,220.88500000000005,77.3255,149.81750000000002,16.5,True,2
5.743858337402344,-5.474778108799999,-1.6642081183,0.18664016279999998,360.71000000000004,161.14000000000001,337.68,-16.91151300776,0.6710072776049998,4.206582130799999,268.7965000000001,100.114,190.97400000000002,16.5,True,2
5.754179239273071,-1.5397813431,-1.040877831,0.005982056499999999,355.18,163.59,319.97,-15.149019701164997,1.5468401697699998,2.2355543346149997,277.85450000000003,106.8585,218.11650000000003,16.5,True,2
5.764508008956909,1.6773686425999996,-1.9202401365,-0.15433705769999997,379.47,150.15,316.54,-13.359666960884997,3.4302308382300013,1.82751826075,253.946,100.35200000000002,228.26650000000004,16.5,True,2
5.774741888046265,6.1926248888,-2.5842484079999997,-0.8626125472999999,432.67,146.79000000000002,316.82000000000005,-12.126047269454999,4.54456832305,3.3622148558249996,239.57850000000002,94.773,225.73600000000005,16.5,True,2
5.7851526737213135,11.173285130699998,-3.0556344601999994,-2.2241286067,469.91,146.37,330.54,-11.137811535655,4.100221166230002,5.036353187915,257.0575,97.405,225.10950000000003,16.5,True,2
5.795435667037964,15.6442741588,-2.6931218363,-3.639483174599999,448.56000000000006,165.41000000000003,339.22,-10.122536906475,3.1685756869200015,5.725665558409999,297.4055000000001,102.59550000000002,232.72900000000004,16.5,True,2
5.805744647979736,18.324235470799998,-1.0325029519,-4.0785661217,376.25000000000006,168.35000000000002,349.3,-8.842915200559998,2.143370843950001,5.559783131664999,334.66300000000007,109.51500000000001,243.747,16.5,True,2
5.816194295883179,20.8366992008,0.5515456093,-2.6309084487,294.28000000000003,145.25,341.11,-7.4237321165,1.065703365475,4.900081940845,354.21750000000003,116.82300000000001,253.35100000000003,16.5,True,2
5.8265111446380615,23.475982528599996,1.7670994901,0.6436692794,241.57000000000002,117.81000000000002,307.09000000000003,-6.021717534595,-0.02596212520999993,4.323710797070001,361.77400000000006,122.04849999999999,261.4325,16.5,True,2
5.836695909500122,26.0410883558,2.9766713144,4.2652062845,225.54000000000002,102.55000000000001,272.16,-4.434199380625,-1.00989077833,3.8507095896149997,368.0005000000001,125.29650000000001,270.102,16.5,True,2
5.847018003463745,25.909483112799997,3.601198013,6.094519162199998,223.23000000000002,109.97000000000001,244.37000000000003,-2.602374039195001,-1.62556403331,3.425505013594999,374.9970000000001,127.03600000000002,279.81100000000004,16.5,True,2
5.857422828674316,24.8805693948,4.163511324,7.0061845728000005,213.57000000000002,127.33000000000001,218.26000000000002,-0.49740799797500157,-1.7933607181349998,3.109532789264999,378.28700000000003,128.25050000000002,288.4245,16.5,True,2
5.867688417434692,23.596820069899998,4.1383866867,6.374479406399999,149.87,146.79000000000002,172.62,1.7283955845449988,-1.5833905349849995,2.8987251182049993,375.19300000000004,130.599,293.6955,16.5,True,2
5.8807213306427,22.2365004218,3.9637106368999997,2.5615165933,67.2,145.95000000000002,124.39000000000001,4.066302905874998,-1.2160324453200002,2.5979473173849987,364.0210000000001,133.86800000000002,293.9195,16.5,True,2
5.891061067581177,21.6658122317,2.7074787719,-0.2117648001,-4.2700000000000005,85.33000000000001,80.71000000000001,6.455117528019999,-0.768993363075,2.0697317284349994,344.5085,135.75800000000004,288.7605,16.5,True,2
5.915582656860352,14.4586305605,-0.5659025448999999,2.7804598611999998,-169.4,-100.52000000000001,31.360000000000003,8.627202243169998,-0.49621158667500004,1.5132210122399998,318.5035000000001,133.1085,278.929,16.5,True,2
5.929507493972778,11.755937433799998,-2.6368905051999993,6.3948183985,-247.10000000000002,-95.69000000000001,0.14,10.34620599901,-0.3415754261500002,1.3033704702200002,280.7000000000001,122.178,265.3105,16.5,True,2
5.946382284164429,9.9708917742,-6.985845580699999,5.5764730692999995,-205.66000000000003,-30.310000000000002,4.0600000000000005,11.824671262985,-0.31202406704,1.4002199649549998,243.17649999999998,113.73600000000003,249.6935,16.5,True,2
5.9620819091796875,9.726823868999999,-6.9906312259,2.9934210725999995,-72.52000000000001,-16.520000000000003,63.28000000000001,13.052249077349998,-0.407437868215,1.4602199916499998,213.53850000000003,106.47000000000003,235.3155,16.5,True,2
5.9857017993927,9.7471628611,-6.051448355400001,-2.1762721547,7.140000000000001,-26.040000000000003,59.080000000000005,14.12746391266,-0.5040480806899998,1.4344373281349998,192.02400000000006,98.63700000000003,221.78449999999998,16.5,True,2
6.000030279159546,8.644071642499998,-6.7214386834,-2.6883361911,-64.61,-43.75000000000001,49.14000000000001,14.986427405494998,-0.7125825702799999,1.2646067440999997,172.65150000000003,89.45300000000002,207.09499999999997,16.5,True,2
6.01966118812561,7.0217379197,-5.0273202826,0.23928225999999997,-136.64000000000001,-50.68000000000001,45.57000000000001,15.576437638089999,-0.9753144917599998,1.1740384086899998,148.55750000000006,78.69400000000002,192.899,16.5,True,2
6.0430908203125,5.699703433199999,-3.1142586138999993,2.4047867129999996,-87.64000000000001,-24.360000000000003,30.240000000000002,15.934403899049997,-1.130788140195,1.2138190844149999,123.73200000000006,68.57550000000002,179.13,16.5,True,2
6.053536653518677,4.9579284272,-3.3020951879999996,2.5363919559999997,-45.36000000000001,-12.39,25.900000000000002,16.028740930054997,-1.1803195680149998,1.3497912286599996,100.11050000000003,60.235000000000014,164.78699999999998,16.5,True,2
6.0638604164123535,4.551148585199999,-3.3678978095,2.2707886474,-11.06,-2.5900000000000003,23.450000000000003,15.823496571539996,-1.2138190844149999,1.5369697765449994,75.94300000000001,52.633,149.94,16.5,True,2
6.074270486831665,4.3322053173,-3.2482566795,1.7096717476999999,12.39,1.7500000000000002,21.21,15.348640926569995,-1.234875923295,1.7943776677399996,52.464999999999996,45.818500000000014,134.358,16.5,True,2
6.084711074829102,4.4434715682,-3.2530423247,1.3519447689999997,17.150000000000002,5.95,16.94,14.717414324689994,-1.295653617335,2.076192349455,32.10899999999999,37.51649999999999,118.10050000000001,16.5,True,2
6.095108985900879,4.638486610099999,-3.1920253484,1.088734283,10.15,8.190000000000001,12.530000000000001,13.972767931569996,-1.45411829402,2.31338088968,15.78149999999998,29.798999999999996,101.36000000000003,16.5,True,2
6.105395793914795,5.1230331866,-2.6500510295,1.1258230332999999,-5.180000000000001,9.38,7.7700000000000005,13.133485404619998,-1.669053584065,2.4274587071350004,2.55149999999999,23.523499999999995,85.38950000000003,16.5,True,2
6.11589789390564,5.7296137157,-2.0566310246999997,1.2574282763,-20.23,9.030000000000001,-0.14,12.176176902924999,-1.8947565758099998,2.37882458779,-9.565499999999998,18.4905,71.05000000000001,16.5,True,2
6.12631368637085,6.1328043237999985,-1.8616159827999998,1.7515461432000001,-28.700000000000003,8.82,-8.89,11.15581752572,-2.1407985596550003,2.2195224231949995,-21.997500000000002,13.741000000000005,57.83050000000001,16.5,True,2
