time,accX,accY,accZ,gyroX,gyroY,gyroZ,temp
1607124705.2395432,-1.5101901036133336,-2.98301229429,10.221101257406664,110.74029166666668,7.46375,-83.23641666666667,-0.0023893333333333423,-0.079576,-0.1578546666666667,17.5,False
1607124705.2483394,-1.3727822658083333,-3.197130036613333,10.825428545224998,124.62158333333333,13.979291666666672,-78.13458333333334,-0.0009800000000000078,-0.07022399999999998,-0.1578546666666667,17.5,False
1607124705.2569885,-1.3790634251333331,-3.3811380945533336,10.846186281279996,131.87475,12.02891666666667,-77.74725000000002,0.0004293333333333314,-0.060871999999999975,-0.1578546666666667,17.5,False
1607124705.2658432,-1.4235300451166666,-3.5596626007016665,10.800782472444999,138.80358333333334,10.156708333333334,-76.81829166666668,0.0012973333333333352,-0.049401333333333325,-0.15739266666666668,17.5,False
1607124705.2743301,-1.4572090232116666,-3.6851860862599994,10.680882119996662,145.4585416666667,7.686000000000001,-75.31795833333335,0.0021653333333333377,-0.03793066666666665,-0.15739266666666668,17.5,False
1607124705.28282,-1.5166108442566666,-3.7938601126766667,10.546305788934996,152.02366666666668,4.757374999999998,-73.51633333333334,0.003033333333333337,-0.026460000000000018,-0.15739266666666668,17.5,False
1607124705.294608,-1.5582459574966665,-3.866881082353333,10.352188055509997,158.23645833333336,1.0575833333333327,-72.31583333333334,0.0029586666666666706,-0.013776000000000004,-0.1568746666666667,17.5,False
1607124705.3031712,-1.6034703046366663,-4.024408570186667,10.191510017919997,163.49491666666668,-3.8637083333333355,-71.77741666666667,0.0028840000000000024,-0.0009986666666666735,-0.1568746666666667,17.5,False
1607124705.311556,-1.6444872720383332,-4.180101560693333,10.015497975501663,168.22050000000002,-9.111083333333335,-71.49887499999998,0.002650666666666669,0.011778666666666663,-0.1568746666666667,17.5,False
1607124705.3200572,-1.6697913710333332,-4.381038838528332,9.853164902279996,173.03387500000005,-14.345625000000004,-70.77233333333334,0.0014560000000000018,0.025881333333333343,-0.15568,17.5,False
1607124705.328661,-1.7202998680816666,-4.64722041259,9.706325355393334,178.245375,-19.187583333333336,-69.33558333333333,0.00026133333333333564,0.039984000000000006,-0.15568,17.5,False
1607124705.33729,-1.80323111136,-4.982175696213333,9.487800831448332,181.72495833333335,-23.87845833333334,-67.281375,-0.0009333333333333314,0.05408666666666666,-0.15568,17.5,False
1607124705.345814,-1.8331812742366667,-5.178407089601666,9.284590372143333,183.91770833333337,-28.92341666666667,-64.701875,-0.0032759999999999972,0.06894533333333334,-0.15463933333333338,17.5,False
1607124705.3543167,-1.9302301708550003,-5.422554755555,9.003274195136669,186.4934166666667,-34.895583333333335,-61.90712499999999,-0.005618666666666665,0.083804,-0.15463933333333338,17.5,False
1607124705.3627849,-2.0803997291933336,-5.566483034945,8.717770578580001,187.84325000000004,-42.51537500000001,-58.96566666666667,-0.007961333333333332,0.09866266666666666,-0.15463933333333338,17.5,False
1607124705.3713346,-2.185225299261667,-5.851687548676667,8.369176206136668,189.2989583333334,-51.24495833333334,-55.89295833333335,-0.011022666666666668,0.11467866666666669,-0.1534026666666667,17.5,False
1607124705.3796299,-2.2714666138033337,-5.955276827068333,8.110930827031668,190.65666666666672,-60.97145833333333,-52.67120833333334,-0.014485333333333333,0.12956533333333337,-0.1534026666666667,17.5,False
1607124705.3882546,-2.207299087746667,-6.056931907191666,7.824490021623333,193.37237500000006,-70.728875,-48.87400000000001,-0.017948000000000002,0.14445200000000005,-0.1534026666666667,17.5,False
1607124705.3965995,-2.113879305405,-6.157948901288333,7.570830885835,194.93162500000005,-79.66962500000001,-43.57004166666668,-0.022754666666666663,0.15962800000000005,-0.15164333333333338,17.5,False
1607124705.4052126,-2.0403997113966663,-6.2615780600566655,7.339544641356667,195.36445833333337,-87.52887500000001,-38.479875000000014,-0.02756133333333333,0.17480400000000001,-0.15164333333333338,17.5,False
1607124705.4134686,-1.9920447546883329,-6.448876249071666,7.065865556481667,195.75150000000002,-94.60120833333335,-35.368375000000015,-0.032367999999999994,0.18998,-0.15164333333333338,17.5,False
1607124705.4217117,-1.9886150422949997,-6.677051824169999,6.839285196449999,195.76345833333332,-101.031,-32.20233333333335,-0.03760399999999999,0.20475466666666667,-0.14997733333333338,17.5,False
1607124705.4298885,-2.0530417907999996,-6.8325454127933325,6.573063742011667,195.49075,-107.03379166666669,-28.738791666666682,-0.04284,0.21952933333333333,-0.14997733333333338,17.5,False
1607124705.4381723,-2.1397816100499996,-6.957729915149999,6.196194182511666,194.86658333333335,-112.99633333333334,-24.98620833333333,-0.04834666666666667,0.23284799999999997,-0.14997733333333338,17.5,False
1607124705.4464974,-2.2722044007716664,-7.041658167844999,5.7929038734699985,194.03125,-118.72379166666668,-20.393916666666662,-0.054348,0.246792,-0.14884333333333338,17.5,False
1607124705.4548125,-2.345783695721666,-7.169793818074999,5.482355380366665,195.41870833333329,-123.43100000000003,-15.853541666666667,-0.060461333333333346,0.25932666666666665,-0.14884333333333338,17.5,False
1607124705.4630463,-2.3081166799599995,-7.319026187561665,5.283033257786665,196.03733333333332,-127.85558333333337,-12.212083333333332,-0.06657466666666668,0.27186133333333334,-0.14884333333333338,17.5,False
1607124705.4713361,-2.213919230273332,-7.440960439219999,5.089493789823332,195.10341666666665,-131.6729166666667,-9.113708333333332,-0.07272533333333334,0.2848346666666667,-0.14745266666666668,17.5,False
1607124705.4794092,-2.0940986385783327,-7.552087108801667,4.9009194287549995,192.6230833333333,-134.16200000000003,-5.795999999999997,-0.07872666666666668,0.29638933333333334,-0.14745266666666668,17.5,False
1607124705.4875731,-2.0086748717583327,-7.673423154809999,4.656213437528333,189.64749999999998,-135.27820833333334,-2.0798749999999977,-0.08472800000000001,0.30794400000000005,-0.14745266666666668,17.5,False
1607124705.4957223,-1.996331895179999,-7.763692387394999,4.368955084398333,186.06204166666666,-134.9655416666667,1.8576250000000052,-0.09020666666666668,0.31841600000000003,-0.14696733333333337,17.5,False
1607124705.503889,-2.011207275676666,-7.8102128467766665,4.061258038226667,181.95216666666667,-134.26350000000002,6.187125000000003,-0.09568533333333336,0.328888,-0.14696733333333337,17.5,False
1607124705.512175,-2.129931157013333,-7.843233798656667,3.7012778182450004,178.037125,-133.8586666666667,11.126500000000005,-0.10116400000000003,0.33936,-0.14696733333333337,17.5,False
1607124705.520372,-2.284487556785,-7.914440211194999,3.3676385870516663,174.37350000000006,-133.8744166666667,16.33304166666667,-0.10503733333333336,0.3477973333333333,-0.1458566666666667,17.5,False
1607124705.5286698,-2.388475638943333,-8.044250837245,3.114238673711667,170.5258333333334,-134.31395833333335,20.946916666666667,-0.10947066666666669,0.35623466666666664,-0.1458566666666667,17.5,False
1607124705.536924,-2.4069402533399997,-8.235557004115,2.919482854259999,166.67933333333337,-134.925,25.06875,-0.11390400000000003,0.364672,-0.1458566666666667,17.5,False
1607124705.5451348,-2.400878436086666,-8.449096480976667,2.7386054058883333,163.0305833333334,-134.95358333333337,29.128166666666672,-0.1173946666666667,0.37189600000000006,-0.1458566666666667,17.5,False
1607124705.5533469,-2.364966156898333,-8.609575116683333,2.520419865144999,159.60554166666674,-133.28991666666667,33.313583333333334,-0.1208666666666667,0.3796333333333334,-0.14523600000000003,17.5,False
1607124705.5616288,-2.2823539566333326,-8.724570182801667,2.3158734132216665,154.56204166666672,-130.38462500000003,37.44416666666667,-0.1243386666666667,0.3873706666666667,-0.14523600000000003,17.5,False
1607124705.5698657,-2.170489500083333,-8.787561237746667,2.0765712130333336,146.52983333333339,-126.1901666666667,41.232916666666675,-0.12684933333333337,0.39378266666666667,-0.14523600000000003,17.5,False
1607124705.578248,-2.0681564535566666,-8.825088672189999,1.81902374052,135.608375,-121.70258333333335,44.39866666666667,-0.12933200000000003,0.4003346666666667,-0.144662,17.5,False
1607124705.5871446,-2.048555248425,-8.796414681366665,1.6968900869783332,123.8224166666667,-117.50900000000003,46.74979166666667,-0.1318146666666667,0.40688666666666673,-0.144662,17.5,False
1607124705.5953476,-2.121376816218333,-8.929076754348332,1.4849458251833332,112.09800000000003,-113.31337500000002,48.78445833333334,-0.13357866666666668,0.41213200000000005,-0.144662,17.5,False
1607124705.6035638,-2.190908252936667,-8.964151545626665,1.313320624198333,100.22745833333336,-108.59304166666672,50.833125,-0.13499733333333336,0.4175173333333334,-0.1456326666666667,17.5,False
1607124705.6117587,-2.213061802175,-9.073284196375,1.154915768078333,89.91325000000003,-103.19750000000002,52.68637500000001,-0.13641600000000004,0.4229026666666667,-0.1456326666666667,17.5,False
1607124705.6198885,-2.256332010858334,-8.998149566735,1.0983853341533334,79.65008333333336,-97.41870833333337,54.310083333333345,-0.13711600000000004,0.4271306666666667,-0.1456326666666667,17.5,False
1607124705.6283817,-2.2473988064850006,-9.02429115364,0.9201998112066667,70.32958333333336,-90.63862500000003,55.72058333333334,-0.13728400000000004,0.4314146666666667,-0.14619733333333335,17.5,False
1607124705.6367455,-2.2615962205783338,-8.995776684323333,0.7560721210350002,61.23512500000001,-83.77337500000003,56.76708333333333,-0.13745200000000002,0.4356986666666668,-0.14619733333333335,17.5,False
1607124705.6450796,-2.293121658333334,-8.990213371778333,0.6484150442233333,54.19895833333335,-77.49262500000005,57.249208333333335,-0.13690133333333335,0.43905866666666676,-0.14619733333333335,17.5,False
1607124705.6533885,-2.3295922627950003,-8.890153506721667,0.6118646790083333,48.53479166666668,-71.79666666666668,57.402041666666676,-0.13631333333333337,0.44241866666666674,-0.14556733333333335,17.5,False
1607124705.6616216,-2.398744835935,-8.831888276411666,0.5928616795266667,43.383375,-66.84708333333336,57.47670833333334,-0.13572533333333336,0.44577866666666677,-0.14556733333333335,17.5,False
1607124705.6699195,-2.4573889298233333,-8.748817451815,0.6224529190133333,38.54170833333334,-63.46258333333335,58.27295833333335,-0.13460533333333338,0.44845733333333343,-0.14556733333333335,17.5,False
1607124705.6782985,-2.430011051241667,-8.675696781196667,0.7301299360133334,31.542874999999984,-60.318416666666685,60.66987500000001,-0.13316800000000004,0.4513133333333334,-0.14578200000000002,17.5,False
1607124705.6866152,-2.3168305422616666,-8.621040724974998,0.9500901535183334,20.988916666666647,-56.237708333333345,64.99966666666668,-0.1317306666666667,0.45416933333333337,-0.14578200000000002,17.5,False
1607124705.6981122,-1.9720846261666665,-8.41232677369,1.0507681644133333,8.887374999999995,-54.90362500000001,71.10629166666668,-0.1297986666666667,0.45640000000000003,-0.14578200000000002,17.5,False
1607124705.7064831,-2.0196020949649998,-8.665307943074998,0.4341776607699999,5.263708333333329,-54.441625000000016,76.96616666666667,-0.1268586666666667,0.4590786666666667,-0.1465566666666667,17.5,False
1607124705.7148442,-1.8758732174583332,-8.783274097255,0.1111067293933333,8.520458333333334,-48.518750000000004,79.61887500000002,-0.1239186666666667,0.4617573333333334,-0.1465566666666667,17.5,False
1607124705.7231002,-1.7725631017033332,-8.749674879913332,0.1547159212783334,12.799791666666666,-42.462583333333335,82.27654166666669,-0.1209413333333334,0.4639973333333334,-0.1465566666666667,17.5,False
1607124705.7313972,-1.8353348145766661,-9.042456665211663,0.7173083949149999,16.43395833333334,-37.94145833333334,84.11608333333335,-0.11714266666666674,0.46713333333333334,-0.14474133333333333,17.5,False
1607124705.739653,-1.8157136692566662,-9.138767774861664,0.39413776259666666,11.925374999999999,-35.392,84.231875,-0.11334400000000008,0.47026933333333343,-0.14474133333333333,17.5,False
1607124705.747902,-1.6112469780866663,-9.408478762258332,0.134177527295,7.5734166666666685,-32.511208333333336,81.88512500000003,-0.10960133333333341,0.4727240000000001,-0.14474133333333333,17.5,False
1607124705.7562351,-1.4313465989433327,-9.38102112292333,0.0067796640333333364,2.4082916666666687,-30.027666666666672,78.46562500000002,-0.10558800000000006,0.4749453333333334,-0.1452546666666667,17.5,False
1607124705.764522,-1.1945768026733332,-9.380522618214998,0.022691934323333256,-3.007375000000003,-27.334708333333335,75.82808333333334,-0.10157466666666673,0.4771666666666667,-0.1452546666666667,17.5,False
1607124705.772837,-0.9760522787283329,-9.334540543918331,0.03980061591333332,-8.552833333333336,-23.563458333333344,73.99612499999999,-0.09875600000000005,0.479304,-0.1452546666666667,17.5,False
1607124705.781107,-0.771027262285,-9.346484716729998,0.06903293201000003,-13.102541666666665,-18.6375,72.99804166666667,-0.09546133333333338,0.4814226666666668,-0.14562333333333335,17.5,False
1607124705.789306,-0.6269394613883335,-9.335836656159996,0.0852044247483333,-17.856708333333337,-13.5345,72.33274999999999,-0.09216666666666672,0.4835413333333335,-0.14562333333333335,17.5,False
1607124705.7974617,-0.5414957543800001,-9.338867564786664,0.12677971742333327,-23.386125,-8.714708333333341,71.84741666666666,-0.08887200000000003,0.48566000000000015,-0.14562333333333335,17.5,False
1607124705.8056448,-0.5261218691750003,-9.322257387905,0.15377873242666656,-29.41195833333334,-4.779833333333337,71.16229166666666,-0.08520400000000003,0.4870320000000002,-0.1458286666666667,17.5,False
1607124705.8137698,-0.5616154044083336,-9.347601367276665,0.16452649393833332,-34.19500000000001,-2.066750000000001,70.21904166666667,-0.08153600000000001,0.4884040000000001,-0.1458286666666667,17.5,False
1607124705.8220127,-0.6121039612683334,-9.365308254516666,0.209551439195,-36.62341666666667,-0.7122500000000012,68.73299999999999,-0.077868,0.48977600000000016,-0.1458286666666667,17.5,False
1607124705.8300378,-0.5893522063800002,-9.320024086811665,0.2563909415899999,-37.06645833333334,-0.05016666666666651,66.71495833333333,-0.07404133333333333,0.4911200000000001,-0.14693000000000003,17.5,False
1607124705.8385305,-0.43511484962166674,-9.27158936935,0.25447668350999997,-35.361374999999995,0.7516249999999987,64.28508333333333,-0.07021466666666666,0.492464,-0.14693000000000003,17.5,False
1607124705.8467734,-0.2605584409516668,-9.187222432511668,0.3087538761533332,-33.03125000000001,1.794333333333331,61.16920833333333,-0.06638799999999999,0.4938080000000001,-0.14693000000000003,17.5,False
1607124705.8550155,-0.008753742678333487,-9.14425132665333,0.37345978729499996,-31.118500000000008,3.256749999999998,57.577625,-0.06290666666666665,0.49501200000000006,-0.14693000000000003,17.5,False
1607124705.8631475,0.25044876546666667,-9.162536479355,0.4171686801216665,-29.918,5.676708333333334,54.28033333333333,-0.059416,0.496272,-0.14695333333333335,17.5,False
1607124705.8713665,0.42153558136666663,-9.241479684966666,0.4208974953399998,-29.489541666666675,8.730749999999999,51.384374999999984,-0.055925333333333334,0.497532,-0.14695333333333335,17.5,False
1607124705.8794854,0.4743571402616666,-9.370233481035001,0.4682953230083333,-29.652291666666667,11.66929166666667,49.35116666666666,-0.05296666666666667,0.4987360000000001,-0.14695333333333335,17.5,False
1607124705.8876383,0.48031925657333324,-9.509176713341668,0.5199603509799998,-30.103500000000004,14.22166666666667,48.16495833333332,-0.050064,0.49985600000000013,-0.14786333333333337,17.5,False
1607124705.8957803,0.48139602674333326,-9.665467909498336,0.5136193710899999,-30.79416666666667,16.49725,47.55624999999999,-0.04716133333333332,0.5009760000000001,-0.14786333333333337,17.5,False
1607124705.9041624,0.5109673260416666,-9.838149940465001,0.4311866325199999,-32.08654166666666,18.295958333333335,46.99741666666666,-0.044295999999999995,0.5020960000000001,-0.14786333333333337,17.5,False
1607124705.9124525,0.5877171109366665,-9.866784050911667,0.2969094042833333,-33.534375,19.789,45.97220833333332,-0.04120666666666668,0.5031880000000001,-0.14865666666666671,17.5,False
1607124705.9206543,0.760259560585,-9.890074190885002,0.07220342195499994,-34.69433333333333,22.408458333333336,43.40437499999998,-0.03811733333333334,0.5042800000000001,-0.14865666666666671,17.5,False
1607124705.9289682,0.9788439050949999,-9.917990454551669,-0.13503495539333332,-33.628875,25.318125,38.774458333333335,-0.03534533333333336,0.5051946666666668,-0.14865666666666671,17.5,False
1607124705.9379313,1.0542975777483332,-10.024152017238334,-0.3085744144583333,-29.3895,27.889749999999996,31.786416666666685,-0.03230266666666668,0.5056986666666669,-0.14876866666666672,17.5,False
1607124705.9462662,0.8995018957166665,-10.290253830546668,-0.3133799998466665,-24.134833333333333,33.54779166666666,22.859083333333345,-0.029260000000000008,0.5062026666666669,-0.14876866666666672,17.5,False
1607124705.95461,1.0767302896233333,-10.05607625876,0.35535409628833325,-28.86158333333334,39.988666666666674,14.291958333333342,-0.027225333333333337,0.5062586666666669,-0.14876866666666672,17.5,False
1607124705.962968,0.9728020280299997,-9.996335454513336,0.6502894219266666,-39.73958333333333,41.548791666666666,9.454666666666668,-0.025358666666666675,0.5063053333333336,-0.14876866666666672,17.5,False
1607124705.971277,0.8813363841449997,-10.102098213433335,0.5329015332083334,-50.4525,42.56641666666666,5.429958333333333,-0.023492000000000006,0.5063520000000002,-0.14876866666666672,17.5,False
1607124705.979521,0.9344769860533331,-9.87206820082,-0.13132608036333335,-59.70270833333334,43.903708333333334,2.4365833333333353,-0.02244666666666667,0.505502666666667,-0.14876866666666672,17.5,False
1607124705.987817,0.9014161537966665,-9.774520799493333,0.1100698396,-60.62904166666667,46.07020833333333,0.5973333333333327,-0.021074666666666665,0.5045320000000003,-0.14921200000000004,17.5,False
1607124705.996173,0.7727022381049998,-9.453842690716666,0.28931219252833323,-61.467291666666675,46.648291666666665,0.6550833333333335,-0.01970266666666666,0.5035613333333335,-0.14921200000000004,17.5,False
1607124706.0045557,0.7570292500749998,-9.428598412286666,0.38602210594499997,-61.124291666666664,47.05195833333333,1.735125,-0.018601333333333324,0.5028240000000002,-0.14921200000000004,17.5,False
1607124706.0128837,0.7639285552383331,-9.408399001504998,0.43814575824833324,-60.820958333333344,47.641125,2.152500000000003,-0.01748133333333333,0.5020493333333335,-0.15054200000000006,17.5,False
1607124706.0212545,0.820518809728333,-9.413124826139999,0.5537589702049999,-60.78450000000001,48.33470833333334,1.6919583333333363,-0.016361333333333332,0.5012746666666669,-0.15054200000000006,17.5,False
1607124706.0294907,0.8408378616399997,-9.373623313051665,0.651146850025,-61.350625000000015,49.04433333333334,0.3001250000000031,-0.015157333333333333,0.5005186666666668,-0.15054200000000006,17.5,False
1607124706.0377235,0.8437890095133331,-9.369555514631665,0.7762515916283331,-61.01958333333333,50.11941666666667,-1.1328333333333342,-0.013869333333333334,0.4995760000000002,-0.1501266666666667,17.5,False
1607124706.0462105,0.8394021680799997,-9.410552541844996,0.8680960990916664,-58.949333333333335,51.43045833333335,-2.1075833333333334,-0.012581333333333335,0.49863333333333354,-0.1501266666666667,17.5,False
1607124706.0546155,0.8255237969999997,-9.46321457923333,0.9352745935866664,-55.41375,52.82375000000002,-2.4135416666666676,-0.011685333333333336,0.4979240000000002,-0.1501266666666667,17.5,False
1607124706.0629387,0.8306683655899998,-9.503334238159999,0.9522038134816664,-51.19391666666668,54.012291666666684,-2.326333333333333,-0.010360000000000003,0.4973266666666668,-0.1503086666666667,17.5,False
1607124706.0713034,0.8326823246116665,-9.556853703646665,0.9411968295216664,-47.24241666666667,55.049166666666686,-2.17525,-0.009034666666666668,0.49672933333333347,-0.1503086666666667,17.5,False
1607124706.0795255,0.8205387499166666,-9.615537677911668,0.9305886493283331,-43.93141666666668,56.21525000000001,-1.8042499999999988,-0.007895999999999999,0.49602,-0.1503086666666667,17.5,False
1607124706.0878675,0.8013762289283334,-9.660702204486665,0.9009375892766662,-41.46858333333333,57.41487500000002,-0.8671249999999986,-0.006598666666666665,0.49571200000000004,-0.15034133333333338,17.5,False
1607124706.1096923,0.8012964681750002,-9.711848787561667,0.873579650883333,-39.97204166666666,58.415875000000014,0.520916666666667,-0.005301333333333332,0.49540399999999996,-0.15034133333333338,17.5,False
1607124706.1179175,0.7999804157450003,-9.729675315931667,0.9255637218683328,-39.48437500000001,58.39925000000002,2.3954583333333335,-0.003742666666666666,0.4947506666666666,-0.15092000000000005,17.5,False
1607124706.1262312,0.7912067328783335,-9.71497939713,0.986161954213333,-38.49708333333334,58.071416666666686,4.320166666666667,-0.002193333333333333,0.4940413333333333,-0.15092000000000005,17.5,False
1607124706.1344793,0.8099704501000001,-9.64159950406333,1.0673584011066664,-36.91829166666667,57.849166666666676,6.008041666666667,-0.0006440000000000006,0.49333199999999994,-0.15092000000000005,17.5,False
1607124706.1427844,0.8618548201433335,-9.563094982594997,1.1147562287749995,-34.528375,57.81591666666667,6.850083333333333,0.0012133333333333328,0.49269733333333326,-0.1508966666666667,17.5,False
1607124706.1510332,0.9258628246933337,-9.510951390103331,1.1658629314733326,-31.13045833333333,58.03320833333334,6.844250000000001,0.0031266666666666665,0.4921466666666666,-0.1508966666666667,17.5,False
1607124706.1592371,0.961715283316667,-9.492905519661665,1.2337393325599992,-27.024958333333334,58.49900000000001,6.495708333333335,0.005040000000000002,0.491596,-0.1508966666666667,17.5,False
1607124706.1673691,0.9961519885683335,-9.624291420589998,1.337807175471666,-23.777833333333337,58.87525000000001,6.075999999999999,0.007196000000000003,0.49075599999999997,-0.15128400000000003,17.5,False
1607124706.1755471,0.9675976388750003,-9.698847784768331,1.4195420074499991,-20.901708333333335,59.64758333333334,6.241083333333334,0.009128000000000002,0.489944,-0.15128400000000003,17.5,False
1607124706.1836832,0.904666404495,-9.795617518749998,1.5168102461399995,-18.458708333333337,60.45345833333333,7.342708333333334,0.011060000000000004,0.48913199999999996,-0.15128400000000003,17.5,False
1607124706.1918578,0.8333802312033334,-9.877531812423333,1.585583955701666,-16.317875000000004,61.085791666666665,9.210541666666666,0.013617333333333337,0.48870266666666673,-0.15119066666666672,17.5,False
1607124706.2000089,0.8616354780716667,-9.871370294228333,1.6178272402366665,-14.294583333333334,61.17854166666666,11.422541666666666,0.015904000000000005,0.4886840000000001,-0.15119066666666672,17.5,False
1607124706.208314,0.9079964159466667,-9.868459026731667,1.640379593241666,-12.51016666666667,60.7985,13.329458333333331,0.01819066666666667,0.4886653333333335,-0.15119066666666672,17.5,False
1607124706.2166328,1.006720288385,-9.852885739643332,1.677388582788333,-10.986500000000003,59.92437500000001,14.744333333333334,0.020626666666666675,0.4886000000000002,-0.15057000000000004,17.5,False
1607124706.224932,1.121097208665,-9.824590612398332,1.7300506201766663,-9.613041666666671,58.48091666666667,15.572958333333332,0.023230666666666674,0.4885440000000002,-0.15057000000000004,17.5,False
1607124706.2460797,1.218365447355,-9.812506858268332,1.8120446746033332,-8.537083333333333,57.13429166666666,15.88358333333333,0.026180000000000012,0.4884973333333335,-0.15084533333333336,17.5,False
1607124706.2634187,1.2779866104716668,-9.82421174882,1.8975482021766663,-6.091458333333334,55.71008333333334,16.01395833333333,0.02912933333333334,0.4884506666666669,-0.15084533333333336,17.5,False
1607124706.2818387,1.3290933131699998,-9.861180857989998,1.9451653719166664,-2.228333333333335,54.644041666666666,16.681875,0.03232133333333334,0.48874933333333354,-0.15057000000000004,17.5,False
1607124706.2917135,1.4277972454199999,-9.915398230068332,1.9182859980433329,1.6855416666666654,53.008083333333325,17.627750000000002,0.035513333333333334,0.4890480000000002,-0.15057000000000004,17.5,False
1607124706.3076243,1.5388840346250001,-9.999186901444999,1.8810776066133328,4.339708333333333,51.41995833333333,18.17841666666667,0.038733333333333335,0.48955200000000015,-0.15025733333333338,17.5,False
1607124706.3235762,1.669053584065,-9.966305530883334,1.842553162753333,6.718833333333334,49.96950000000001,18.209625000000003,0.04199066666666667,0.4899066666666669,-0.15031800000000003,17.5,False
1607124706.3375714,1.7733407690483334,-9.943593656371666,1.771187228708333,9.032916666666667,48.218916666666665,18.083041666666663,0.045248000000000003,0.4902613333333335,-0.15031800000000003,17.5,False
1607124706.3586783,1.8292929375116667,-9.896295529644998,1.682293869118333,11.294500000000001,46.105208333333344,18.349041666666665,0.04843066666666667,0.49078400000000016,-0.1500286666666667,17.5,False
1607124706.3696313,1.9447266877733334,-9.846664400883332,1.5498710783966663,12.909458333333333,43.918875,18.278750000000002,0.05152933333333334,0.4914933333333335,-0.1500286666666667,17.5,False
1607124706.377885,2.0694725059866665,-9.810114035668331,1.373320650893333,12.302791666666668,39.96241666666667,17.665958333333332,0.05440400000000001,0.4922400000000001,-0.15011733333333338,17.5,False
1607124706.3865461,2.1750757434,-9.780821899006664,1.2903894076149998,10.384208333333333,36.51520833333334,16.167375,0.05727866666666667,0.49298666666666674,-0.15011733333333338,17.5,False
1607124706.3948522,2.282114674373333,-9.707202723679996,1.260937749446666,7.831541666666666,32.95950000000001,14.244999999999997,0.059724000000000006,0.4936213333333334,-0.15011733333333338,17.5,False
1607124706.403167,2.3739990622133336,-9.65278594971833,1.277368464633333,5.897208333333334,29.227625,12.637916666666671,0.062048000000000006,0.4943306666666667,-0.14981400000000006,17.5,False
1607124706.411465,2.4126830275800004,-9.610472870074998,1.2688340640266664,4.8229999999999995,25.68649999999999,10.927291666666665,0.06437200000000001,0.4950400000000001,-0.14981400000000006,17.5,False
1607124706.4197,2.4358734666116666,-9.582496785843329,1.2744571971366663,4.695541666666667,22.574999999999996,9.010166666666665,0.06653733333333335,0.495348,-0.14981400000000006,17.5,False
1607124706.42802,2.484029021436667,-9.55737214854333,1.2660623778483329,5.574916666666667,19.908291666666667,7.114916666666668,0.06818,0.4957026666666667,-0.15000533333333338,17.5,False
1607124706.4363499,2.5253052112866663,-9.543294375579997,1.1788439940783333,7.1274583333333315,18.09120833333333,5.1572499999999994,0.06956133333333335,0.4964026666666667,-0.15000533333333338,17.5,False
1607124706.4447458,2.571127764076666,-9.518688183176664,1.1116256192066665,7.575166666666663,16.432499999999997,3.152333333333333,0.07094266666666668,0.4971026666666667,-0.15000533333333338,17.5,False
1607124706.4530416,2.6112673631916663,-9.500502731416665,1.036171946553333,7.212041666666663,14.745499999999998,1.1654999999999989,0.07249200000000001,0.49753200000000003,-0.15012200000000006,17.5,False
1607124706.4613338,2.673759913428333,-9.48809993427333,0.9690133922466663,6.339666666666664,12.95525,-0.6078333333333357,0.07373333333333336,0.49788666666666676,-0.15012200000000006,17.5,False
1607124706.4695346,2.712723041431666,-9.497053078834998,0.9077770738749997,4.496624999999998,10.905999999999997,-2.236500000000001,0.07497466666666669,0.4982413333333334,-0.15012200000000006,17.5,False
1607124706.4777148,2.7506093992649996,-9.45932624250833,0.8609575116683332,1.5860833333333326,9.155708333333331,-4.127375,0.07575866666666668,0.4983720000000001,-0.15033200000000005,17.5,False
1607124706.4858646,2.767957363115,-9.321120797169998,0.7830312556616666,-0.5760416666666673,7.35525,-6.096125000000001,0.0763,0.4987920000000001,-0.15033200000000005,17.5,False
1607124706.4941206,2.828455894518333,-9.299585393769998,0.7258228553333332,-2.6632083333333343,4.64304166666667,-8.510541666666668,0.07684133333333333,0.4992120000000001,-0.15033200000000005,17.5,False
1607124706.5023916,2.8412774356166666,-9.292626268041666,0.6703891317666666,-4.761166666666668,1.6977916666666661,-11.354875000000002,0.07721466666666667,0.4993800000000001,-0.1504486666666667,17.5,False
1607124706.5105774,2.8320650686066666,-9.31370304711,0.644407066368333,-6.668083333333336,-1.0826666666666642,-14.08779166666667,0.07696266666666665,0.49916533333333335,-0.1504486666666667,17.5,False
1607124706.5188534,2.7014368948349996,-9.309256385111665,0.6474579151833333,-7.987291666666668,-3.3559166666666638,-16.3135,0.07671066666666664,0.49895066666666665,-0.1504486666666667,17.5,False
1607124706.5270534,2.653600383023333,-9.279166640916664,0.6684748736866666,-8.246875000000001,-4.890374999999995,-17.877125,0.07596399999999998,0.4987453333333333,-0.15088733333333337,17.5,False
1607124706.5352194,2.610788798671666,-9.26532815021333,0.6640680920649998,-7.910291666666668,-6.293000000000001,-19.221124999999997,0.07506799999999997,0.4985866666666666,-0.15088733333333337,17.5,False
1607124706.5434403,2.5312673275983335,-9.234700020933332,0.6337390656099998,-7.3745,-7.220791666666671,-20.407916666666665,0.07417199999999996,0.4984279999999999,-0.15088733333333337,17.5,False
1607124706.5516703,2.438505571471666,-9.207780766683333,0.5717849004583333,-7.086916666666667,-8.080625000000005,-21.476583333333334,0.07321066666666663,0.4979799999999999,-0.1507146666666667,17.5,False
1607124706.5599692,2.3649860970866663,-9.176474671,0.49860440927499994,-8.377249999999998,-8.791708333333332,-22.88533333333333,0.0722493333333333,0.49753199999999986,-0.1507146666666667,17.5,False
1607124706.5682263,2.2990239540799995,-9.141798683488334,0.46145583840999993,-11.584708333333332,-10.086708333333336,-24.994374999999998,0.07071866666666664,0.4968599999999999,-0.1507146666666667,17.5,False
1607124706.5798833,2.1973888141449995,-9.166684038528334,0.5190231621283333,-15.239583333333334,-11.0845,-27.377,0.068964,0.49611333333333324,-0.1509013333333334,17.5,False
1607124706.5882401,2.0721046108466665,-9.207860527436667,0.6083153254849999,-17.628333333333334,-12.21325,-29.017333333333337,0.06718133333333333,0.49516133333333323,-0.1509013333333334,17.5,False
1607124706.596535,1.9297516063349995,-9.311709028276665,0.6839684000216665,-19.186125,-13.281916666666667,-29.746500000000005,0.06534266666666665,0.49439599999999995,-0.1509013333333334,17.5,False
1607124706.604875,1.7852051811066665,-9.340143736839998,0.7559325397166667,-20.072208333333332,-14.158958333333334,-29.867541666666668,0.06329866666666666,0.4936586666666666,-0.1508686666666667,17.5,False
1607124706.613091,1.721296877498333,-9.387521624319998,0.8280761411066666,-21.069125,-14.811708333333334,-30.240000000000002,0.061329333333333326,0.49275333333333327,-0.1508686666666667,17.5,False
1607124706.621405,1.6284354204300002,-9.417232504936667,0.8910472558633331,-22.180958333333333,-15.478749999999998,-30.523791666666664,0.059359999999999996,0.4918479999999999,-0.1508686666666667,17.5,False
1607124706.6296299,1.5106088475683335,-9.396913453025,1.001176916028333,-22.133125,-14.448583333333335,-30.925708333333333,0.057157333333333345,0.4903733333333332,-0.15094333333333337,17.5,False
1607124706.637872,1.4110275470316667,-9.42807996739,1.0545568001966663,-21.628833333333333,-13.924166666666668,-30.979666666666667,0.05495466666666668,0.4888986666666666,-0.15094333333333337,17.5,False
1607124706.646196,1.2709676641783334,-9.511270433116666,1.0945767581816666,-20.804291666666664,-12.838875000000003,-30.78366666666666,0.052752000000000014,0.48742399999999997,-0.15094333333333337,17.5,False
1607124706.654585,1.12534446878,-9.584072060721665,1.11314107352,-20.310791666666667,-11.326583333333335,-30.36424999999999,0.05057733333333335,0.4860893333333333,-0.15085933333333337,17.5,False
1607124706.662885,1.0451450313033332,-9.655816858344998,1.159262729135,-20.16379166666667,-10.158458333333334,-29.48604166666666,0.04840266666666668,0.4847546666666667,-0.15085933333333337,17.5,False
1607124706.6712737,0.9696913586499999,-9.722915592086666,1.1938788960816666,-20.520791666666664,-9.641625000000001,-28.13708333333333,0.046228000000000005,0.4834200000000001,-0.15085933333333337,17.5,False
1607124706.6795266,0.8760921146133333,-9.771111027288333,1.2474183017566667,-21.098,-9.408875,-26.47691666666666,0.044576,0.48203866666666684,-0.15099000000000004,17.5,False
1607124706.6877728,0.7815556817249998,-9.832526807355002,1.312283734405,-21.476875,-9.033500000000002,-24.467333333333325,0.04284933333333332,0.4805266666666668,-0.15099000000000004,17.5,False
1607124706.6961737,0.7047061958883332,-9.904431126485003,1.3744771818166666,-21.654791666666664,-8.621375000000002,-22.035708333333325,0.041122666666666655,0.4790146666666668,-0.15099000000000004,17.5,False
1607124706.7045517,0.6315456448933332,-9.985627573378334,1.4234104039866666,-21.621250000000007,-8.112416666666668,-19.088999999999995,0.03922799999999999,0.4777733333333334,-0.15099000000000004,17.5,False
1607124706.7133508,0.5466602631583334,-10.063394307878331,1.484088397085,-21.700875,-7.061833333333334,-15.795791666666663,0.03790266666666666,0.476532,-0.15119533333333338,17.5,False
1607124706.7216125,0.4830111819983333,-10.102716359271666,1.5700904293666667,-21.545416666666664,-5.250875,-12.188166666666657,0.036577333333333344,0.47529066666666675,-0.15119533333333338,17.5,False
1607124706.7298276,0.44055852103666665,-10.170851982806665,1.6623138004083335,-20.784458333333326,-3.136583333333333,-8.328541666666661,0.03570933333333335,0.47427333333333344,-0.15119533333333338,17.5,False
1607124706.7381935,0.3848655750216667,-10.208818101393332,1.7370695664700002,-19.454749999999997,-0.5101249999999996,-4.713041666666659,0.03533600000000001,0.4734240000000001,-0.15118133333333336,17.5,False
1607124706.7465286,0.33802607262666656,-10.277950734345001,1.8011373915850002,-17.212124999999997,2.692958333333334,-1.1789166666666655,0.034962666666666684,0.4725746666666667,-0.15118133333333336,17.5,False
1607124706.7549725,0.3196412189833333,-10.32000459154,1.86173562393,-14.615999999999996,5.735041666666666,2.669916666666663,0.03475733333333334,0.4719773333333334,-0.15118133333333336,17.5,False
1607124706.7631772,0.32021948444499987,-10.361659644968334,1.9058233803350002,-12.548666666666668,8.465041666666666,6.521374999999997,0.03500000000000001,0.4718093333333334,-0.15132600000000004,17.5,False
1607124706.7714593,0.39820556101666654,-10.410533046573333,1.9312870008366667,-11.705166666666665,10.829875,10.210083333333332,0.03524266666666667,0.4716413333333334,-0.15132600000000004,17.5,False
1607124706.7796252,0.41698921842666653,-10.499865090306665,1.9298911876533336,-11.19825,12.858416666666669,13.811291666666664,0.035980000000000005,0.47146400000000005,-0.15132600000000004,17.5,False
1607124706.7877982,0.41818562972666656,-10.526465301543332,1.9349958758666668,-11.181041666666669,14.803833333333333,17.25033333333333,0.03747333333333333,0.4711933333333333,-0.1513166666666667,17.5,False
1607124706.7960591,0.4625525487683332,-10.577791346313331,1.9488742469466669,-11.602791666666668,16.473041666666667,20.61820833333333,0.03896666666666666,0.47092266666666666,-0.1513166666666667,17.5,False
1607124706.8043392,0.5166303395283331,-10.645887089471668,1.9656638855233337,-12.030375,17.92554166666667,24.154375,0.04018,0.47093199999999996,-0.1513166666666667,17.5,False
1607124706.812578,0.5668397337516666,-10.703394592625,1.9750357740400006,-12.128666666666668,19.26954166666667,28.185208333333335,0.042214666666666664,0.4708386666666666,-0.1513166666666667,17.5,False
1607124706.8207443,0.6368497349899997,-10.753344764400001,1.9709679756200005,-11.248416666666666,20.591666666666672,32.647125,0.04424933333333333,0.4707453333333333,-0.1513166666666667,17.5,False
1607124706.829003,0.7040082892966666,-10.730632889888334,1.949891196551667,-9.634625000000002,21.985250000000004,37.38,0.046507999999999994,0.4707266666666667,-0.1513166666666667,17.5,False
1607124706.837167,0.8168099346983333,-10.627342714321665,1.8831115058233336,-7.872666666666666,23.525541666666665,41.67770833333334,0.04948533333333333,0.470512,-0.15105066666666672,17.5,False
1607124706.845341,0.9200004093233333,-10.539605885654998,1.8176678077133337,-6.503875000000002,25.034041666666667,45.268125000000005,0.052462666666666664,0.4702973333333333,-0.15105066666666672,17.5,False
1607124706.8535619,1.03357972207,-10.54411236821833,1.7710077670133337,-5.6810833333333335,26.48070833333334,48.36416666666667,0.05564533333333333,0.4700546666666667,-0.15105066666666672,17.5,False
1607124706.861747,1.1139985016183331,-10.538888038874997,1.7405192190516667,-5.381833333333333,28.06241666666667,51.31816666666667,0.059528,0.4698213333333333,-0.1515406666666667,17.5,False
1607124706.8699248,1.1866605479049999,-10.539585945466664,1.7236897000983333,-5.100666666666666,29.858208333333334,54.14383333333334,0.06341066666666667,0.46958799999999995,-0.1515406666666667,17.5,False
1607124706.8781648,1.2714661688866664,-10.55727289251833,1.7253048553533334,-4.344083333333334,31.783500000000004,57.20429166666667,0.06775066666666667,0.4698866666666666,-0.1515406666666667,17.5,False
1607124706.8866196,1.3851252423866665,-10.538309773413328,1.7226727504933335,-3.161375000000002,33.844416666666675,60.43391666666667,0.07265999999999999,0.470344,-0.1514053333333334,17.5,False
1607124706.8949268,1.533340662268333,-10.495857112451663,1.698505242233333,-1.676791666666667,35.813750000000006,63.512750000000004,0.07756933333333334,0.47080133333333335,-0.1514053333333334,17.5,False
1607124706.9031515,1.6987046441166664,-10.429795268503334,1.6518651417216668,-0.1758750000000005,37.519125,66.01816666666667,0.08257199999999999,0.4710440000000001,-0.1514053333333334,17.5,False
1607124706.9114318,1.8687545702233332,-10.347442290686663,1.5906288233499999,1.4627083333333333,38.7905,68.21004166666667,0.08757466666666665,0.47128666666666674,-0.1514053333333334,17.5,False
1607124706.9196506,2.0690537620316665,-10.232646626451665,1.523410448478333,2.908208333333334,39.43245833333334,69.99650000000001,0.09316533333333332,0.47152000000000005,-0.15124666666666672,17.5,False
1607124706.9279144,2.2736400943316664,-10.111490042138332,1.4681561866066666,3.895208333333334,39.652083333333344,71.18270833333334,0.098756,0.47175333333333336,-0.15124666666666672,17.5,False
1607124706.9362633,2.484487645768333,-9.953483989785001,1.424227951708333,4.333583333333333,39.85245833333334,71.69895833333334,0.10442133333333332,0.4721173333333334,-0.15124666666666672,17.5,False
1607124706.9446805,2.674637281715,-9.807920614951664,1.3873386032916664,4.75475,40.084625,71.66366666666667,0.11036666666666665,0.47236933333333336,-0.1508173333333334,17.5,False
1607124706.9531024,2.868575553445,-9.66624557684333,1.3574482609799996,5.441625000000002,40.12254166666667,71.19204166666668,0.11631199999999998,0.4726213333333334,-0.1508173333333334,17.5,False
1607124706.9614444,3.0570302733833334,-9.520383099184995,1.3246466511716661,6.719708333333334,39.76641666666668,70.41912500000002,0.12168799999999999,0.4728733333333334,-0.1508173333333334,17.5,False
1607124706.9697113,3.2854850111183334,-9.384729997953333,1.2653046506916665,8.381333333333336,39.07750000000001,69.24954166666667,0.127512,0.47331200000000007,-0.1507846666666667,17.5,False
1607124706.9814165,3.541357507811667,-9.219086853468331,1.175055358295,10.045000000000003,38.01700000000001,67.96825000000001,0.13333599999999998,0.4737506666666668,-0.1507846666666667,17.5,False
1607124706.9896784,3.8623347194133335,-9.059166543034998,1.078863889775,11.787125000000003,36.646458333333335,66.65400000000001,0.13901066666666667,0.4740120000000002,-0.15069600000000005,17.5,False
1607124706.9978752,4.2327835382700005,-8.862695867386664,0.982193856735,12.618958333333335,34.9825,65.35025,0.1446853333333333,0.4742733333333336,-0.15069600000000005,17.5,False
1607124707.0063012,4.663551426835,-8.663154402734998,0.901555735115,12.551583333333335,33.362,63.518000000000015,0.15036,0.4745346666666669,-0.15069600000000005,17.5,False
1607124707.0146043,5.12566529146,-8.440302857921663,0.8424928972716667,11.979041666666669,31.890541666666664,61.147333333333336,0.15558666666666665,0.47436666666666694,-0.15038800000000005,17.5,False
1607124707.022934,5.648935713703334,-8.255337670941666,0.7838089230066667,11.604250000000004,30.33041666666667,58.123333333333335,0.16081333333333334,0.4742826666666669,-0.15038800000000005,17.5,False
1607124707.0312402,6.192644828988334,-8.084569898054998,0.7235696140516669,10.658958333333338,28.132416666666668,54.37745833333334,0.16604,0.4741986666666668,-0.15038800000000005,17.5,False
1607124707.039486,6.7797437940866665,-7.984111229231666,0.6505486443750002,9.92629166666667,25.539208333333338,50.687875,0.17051066666666664,0.4742080000000001,-0.15038800000000005,17.5,False
1607124707.0476868,7.375177757908333,-7.8983684193983335,0.5655037411333335,9.602250000000003,22.489833333333333,47.7225,0.17490666666666668,0.47418000000000016,-0.15066800000000005,17.5,False
1607124707.056064,7.960262763985,-7.770491991616666,0.48528436346833337,9.267708333333339,19.261375,45.44195833333334,0.1793026666666667,0.4741520000000001,-0.15066800000000005,17.5,False
1607124707.06489,8.538348763956666,-7.583173862413333,0.4204787513850002,8.465625000000006,16.37183333333333,43.53854166666667,0.1828773333333334,0.4742266666666667,-0.15066800000000005,17.5,False
1607124707.073163,9.105308138838332,-7.359564590443332,0.35114671655000007,6.9970833333333395,14.114916666666662,41.53333333333333,0.18637733333333337,0.4739466666666667,-0.1508966666666667,17.5,False
1607124707.081428,9.659346271679999,-7.12833816653,0.2676770881866666,5.037666666666673,12.222583333333336,39.412041666666674,0.1898773333333334,0.4736666666666668,-0.1508966666666667,17.5,False
1607124707.0895677,10.188917793436667,-6.919225411478333,0.16386846772333322,2.911125000000004,10.141833333333333,37.260999999999996,0.1926586666666667,0.4735826666666668,-0.1508966666666667,17.5,False
1607124707.0977566,10.732048643259999,-6.66173775953,0.01718844234333329,0.9782500000000063,7.506333333333335,34.962375,0.1957013333333334,0.4732746666666668,-0.15117200000000003,17.5,False
1607124707.1060908,11.276256263253334,-6.351408608498333,-0.15234303886666675,-0.8799583333333293,4.278750000000002,32.118624999999994,0.19874400000000003,0.47296666666666665,-0.15117200000000003,17.5,False
1607124707.1143909,11.832049132668335,-6.010032584231666,-0.3137189830483333,-3.045874999999995,0.4576249999999983,28.557666666666655,0.20108666666666672,0.4726493333333333,-0.15117200000000003,17.5,False
1607124707.1248617,12.380683474471665,-5.638327533509999,-0.4191626989549999,-6.094666666666664,-3.699208333333336,24.309541666666664,0.202972,0.4719213333333333,-0.15149866666666673,17.5,True
1607124707.1330988,12.924611931828332,-5.17555564267,-0.42699919297,-10.754041666666662,-7.678125000000002,19.22170833333332,0.20485733333333334,0.4711933333333333,-0.15149866666666673,17.5,True
1607124707.1413445,13.292548286954998,-4.635276239778333,-0.32161529762833335,-16.273833333333332,-11.339416666666667,13.473833333333326,0.2061733333333333,0.47030666666666665,-0.15149866666666673,17.5,True
1607124707.1494966,13.479128629189999,-4.009991814021666,-0.101754781065,-22.97283333333333,-14.358458333333335,6.779499999999996,0.2067706666666666,0.46920533333333336,-0.15223133333333339,17.5,True
1607124707.1577165,13.47849054316333,-3.2844680615133344,0.21932213147833327,-31.014375000000005,-16.391958333333335,-1.520750000000003,0.20736799999999994,0.4681040000000001,-0.15223133333333339,17.5,True
1607124707.1659746,13.210713754034998,-2.526740904846667,0.5986044537666666,-40.13858333333334,-16.8945,-12.162791666666665,0.20796533333333325,0.4670026666666668,-0.15223133333333339,17.5,True
1607124707.1743014,12.617533031494997,-1.749711645873333,0.9707282484433333,-47.911500000000004,-16.572208333333336,-23.97558333333333,0.20677066666666657,0.46470666666666677,-0.15288000000000004,17.5,True
1607124707.1825395,11.772906534071666,-1.0162915787849998,1.2598210989,-52.25325,-16.83004166666667,-35.49175,0.20557599999999993,0.4624106666666668,-0.15288000000000004,17.5,True
1607124707.1906505,10.920363781879997,-0.48695933928833407,1.5331013800083333,-53.01712500000001,-18.454625,-46.639541666666666,0.20438133333333325,0.4601146666666668,-0.15288000000000004,17.5,True
1607124707.1989322,10.069097201741666,-0.1316251831883338,1.8339190612049998,-51.50045833333334,-20.883625,-57.61029166666667,0.2008626666666666,0.45778133333333343,-0.1532346666666667,17.5,True
1607124707.2071424,9.212666112824998,0.13288141505333334,2.108156471353333,-49.83591666666668,-21.902125,-68.557125,0.1973439999999999,0.45544800000000013,-0.1532346666666667,17.5,True
1607124707.2153082,8.346583972754997,0.018823537786666122,2.3442283610316665,-50.85266666666668,-19.333708333333334,-79.48266666666669,0.19382533333333327,0.4531146666666668,-0.1532346666666667,17.5,True
1607124707.2235203,7.446543691953332,-0.4212962991066665,2.5077179651766666,-57.26058333333335,-13.57533333333333,-90.24341666666669,0.18762799999999996,0.44954933333333347,-0.1539766666666667,17.5,True
1607124707.2317092,6.501817449096666,-0.8864011919816667,2.563889475711667,-66.58895833333335,-7.03879166666666,-100.89945833333337,0.18143066666666663,0.44598400000000016,-0.1539766666666667,17.5,True
1607124707.239916,5.498486992728332,-1.3634502576683336,2.5060429893566667,-71.76458333333335,-1.8447916666666628,-111.25420833333335,0.17488800000000002,0.44242800000000015,-0.1539766666666667,17.5,True
1607124707.248215,4.438366879986665,-1.8529818812516672,2.2957138828166666,-68.55975000000002,2.0615000000000063,-113.13633333333337,0.16792533333333334,0.43833066666666676,-0.15426133333333336,17.5,True
1607124707.256685,3.3306096573166655,-2.3430120095433336,1.7940785649150002,-60.340583333333356,3.484250000000001,-106.11650000000004,0.16096266666666673,0.4342333333333334,-0.15426133333333336,17.5,True
1607124707.2649632,2.2942383088799994,-2.710549560903333,1.2529217937366668,-51.33012500000002,-0.08166666666666486,-96.33545833333338,0.15400000000000005,0.4301360000000001,-0.15426133333333336,17.5,True
1607124707.273215,1.4427922670466653,-2.597488693053334,0.9437691138166667,-43.30812500000001,-7.233041666666662,-86.14287500000005,0.14784000000000005,0.4276720000000001,-0.15293600000000004,17.5,True
1607124707.2814558,0.5988836164033328,-2.2162522323083342,0.8934799588400001,-41.50650000000001,-14.453541666666661,-76.6004166666667,0.14168000000000006,0.4252080000000001,-0.15293600000000004,17.5,True
1607124707.289675,-0.3066800965666675,-1.918764562563333,1.1003594127983334,-44.069958333333346,-19.41829166666667,-69.31370833333337,0.13552,0.42274400000000006,-0.15293600000000004,17.5,True
1607124707.2978067,-1.2580464221383343,-1.68347034023,1.442971728741667,-48.018250000000016,-22.339333333333332,-63.585083333333365,0.12943466666666664,0.42031733333333343,-0.1528846666666667,17.5,True
1607124707.30627,-2.1950956924866674,-1.5245669794016667,1.8210576397300002,-51.285208333333344,-24.238958333333333,-58.844041666666726,0.12361066666666666,0.4181613333333335,-0.1528846666666667,17.5,True
1607124707.3146899,-3.1992835769533343,-1.4918850107233337,2.2476979093100002,-52.27775000000001,-25.99625,-54.64929166666671,0.11778666666666664,0.4160053333333335,-0.1528846666666667,17.5,True
1607124707.3233378,-4.20969280018,-1.5733606202533337,2.6940590251516667,-51.48062500000001,-27.426,-49.794791666666704,0.1120373333333333,0.4142040000000001,-0.1528846666666667,17.5,True
1607124707.3317318,-5.192684264448333,-1.5924035001116674,3.1070801461000004,-48.69054166666669,-28.034125000000007,-44.38875000000003,0.10660533333333329,0.41272933333333345,-0.15293600000000004,17.5,True
1607124707.3402998,-6.105147282581667,-1.5849259294866669,3.4689347437849998,-44.352291666666694,-27.53245833333334,-38.67150000000003,0.1011733333333333,0.4112546666666669,-0.15293600000000004,17.5,True
1607124707.3486588,-6.895257305101667,-1.5863416828583337,3.7499717581549996,-38.615208333333364,-26.264875000000004,-32.97233333333337,0.09547999999999994,0.41000400000000015,-0.15293600000000004,17.5,True
1607124707.3573036,-7.583014340906666,-1.6055241440350003,3.956611929853333,-32.03783333333335,-24.646708333333336,-27.422791666666704,0.09064533333333327,0.40919200000000017,-0.15267000000000006,17.5,True
1607124707.3792324,-8.203273839203332,-1.65966175536,4.0912281412916665,-25.10783333333336,-22.961458333333336,-22.186208333333372,0.08581066666666665,0.40838000000000013,-0.15267000000000006,17.5,True
1607124707.3916135,-8.820502428873333,-1.8949360375050002,4.222514341278333,-18.697291666666693,-22.805124999999997,-16.933875000000032,0.08177866666666665,0.40841733333333347,-0.15184866666666672,17.5,True
1607124707.4113734,-9.430093926411667,-2.23537487292,4.299603109374999,-11.837291666666678,-22.322125000000003,-10.483083333333362,0.077756,0.40922000000000014,-0.15181133333333338,17.5,True
1607124707.423495,-9.828917633266665,-2.660499688186667,4.25539571184,-4.998000000000005,-20.729333333333333,-3.153791666666698,0.07373333333333335,0.41002266666666676,-0.15181133333333338,17.5,True
1607124707.4371352,-9.902895731983332,-3.1512676034466667,4.062913073858334,2.420249999999995,-19.391166666666667,4.577708333333297,0.07121333333333334,0.41146000000000016,-0.15110200000000004,17.5,True
1607124707.4516351,-9.715517782214997,-3.7691542193316674,3.7694333819683328,11.14575,-19.610791666666668,12.260499999999984,0.06869333333333331,0.4128973333333335,-0.15110200000000004,17.5,True
1607124707.460576,-9.264291260419999,-4.530051865943333,3.453700439898333,20.824125000000002,-21.218458333333334,21.56437499999999,0.06635066666666666,0.4145306666666668,-0.1508966666666667,17.5,True
1607124707.477482,-8.538428524709998,-5.35178702716,3.1588249348249993,29.335541666666664,-22.553125000000005,32.50975,0.06521199999999999,0.41736800000000013,-0.1508966666666667,17.5,True
1607124707.498767,-7.646803003384999,-6.157370635826666,2.9461628262499997,34.76054166666667,-22.54670833333334,43.80366666666667,0.063896,0.4202240000000002,-0.15054666666666672,17.5,True
1607124707.515455,-6.684549334983331,-6.815975116288333,2.7054448726899993,37.84579166666667,-21.47104166666667,54.96720833333334,0.06294399999999999,0.42326666666666685,-0.15026666666666672,17.5,True
1607124707.5238268,-5.575037375739999,-7.25563632885,2.377089791404999,39.369458333333334,-20.69695833333334,65.51504166666668,0.064036,0.4264586666666668,-0.15026666666666672,17.5,True
1607124707.532369,-4.46093917318,-7.600940570218333,2.0635103896750002,40.424416666666666,-21.691541666666673,75.45562500000001,0.06566933333333333,0.4299026666666668,-0.1497626666666667,17.5,True
1607124707.5406299,-3.3728230360183344,-7.602176861895,1.78672063542,43.030458333333335,-26.22404166666667,85.00041666666668,0.06730266666666666,0.43334666666666677,-0.1497626666666667,17.5,True
1607124707.5491476,-2.3486351426533334,-7.334798876533332,1.591984756156667,49.34854166666667,-33.424708333333335,94.546375,0.07116666666666666,0.43783600000000006,-0.1497626666666667,17.5,True
1607124707.5576627,-1.3955539608849992,-7.1255864205399995,1.5086148287349999,56.72508333333334,-40.742333333333335,104.27754166666668,0.07463866666666666,0.4425026666666667,-0.14952933333333338,17.5,True
1607124707.5663176,-0.5143172776816658,-6.970571396436667,1.5733406800650003,57.80308333333334,-46.13845833333333,114.57220833333335,0.07811066666666666,0.44716933333333336,-0.14952933333333338,17.5,True
1607124707.5747697,0.2989632436816658,-6.839923282476667,1.8189639199549998,49.08924999999999,-49.67579166666666,117.29316666666668,0.08200266666666665,0.4523773333333334,-0.14952933333333338,17.5,True
1607124707.5831747,1.0910872252233326,-6.694379847831666,2.37918351118,34.77075000000001,-50.457166666666666,111.87575,0.08609066666666666,0.45742666666666665,-0.15009400000000006,17.5,True
1607124707.5918925,1.7889738767016665,-6.627859379551666,2.962174797481666,20.71941666666668,-46.44908333333333,104.45575000000001,0.09017866666666666,0.46247599999999994,-0.15009400000000006,17.5,True
1607124707.6002834,2.249213363623333,-6.989394934223332,3.3243085578033327,9.094166666666677,-39.415541666666655,97.32391666666668,0.09346399999999999,0.465808,-0.15009400000000006,17.5,True
1607124707.6087146,2.6765116594183325,-7.533403152333332,3.471267745819999,5.153458333333343,-32.64362500000001,91.29079166666669,0.09730933333333332,0.4689253333333333,-0.15073800000000004,17.5,True
1607124707.6172433,3.1161329916033327,-7.916972615113332,3.408795135771666,6.800500000000013,-28.106458333333347,87.64962500000003,0.10115466666666664,0.4720426666666667,-0.15073800000000004,17.5,True
1607124707.6258042,3.578027514156666,-8.149196048443333,3.2601011513699993,11.155375000000014,-25.11862500000001,84.99575000000002,0.10499999999999997,0.47516,-0.15073800000000004,17.5,True
1607124707.6343052,4.04781835129,-8.309614863584999,3.066840846043333,15.883583333333345,-22.789375000000007,82.18029166666669,0.10943333333333331,0.4774093333333334,-0.15070533333333336,17.5,True
1607124707.6429312,4.557310103394999,-8.401718593496664,2.81336117195,19.057500000000015,-20.242250000000006,78.97779166666668,0.11386666666666662,0.47965866666666673,-0.15070533333333336,17.5,True
1607124707.651473,5.064568554406666,-8.432566064848332,2.51545475825,20.599541666666678,-17.733916666666666,75.10970833333334,0.11829999999999995,0.48190800000000006,-0.15070533333333336,17.5,True
1607124707.6598382,5.51533645187,-8.563373700314997,2.2310079716749995,19.935416666666683,-15.858208333333334,70.99720833333335,0.12277066666666663,0.48378400000000005,-0.15070533333333336,17.5,True
1607124707.6685133,5.910670625766665,-8.717331894436665,1.9979869308116662,16.92804166666668,-14.975041666666664,67.328625,0.1272413333333333,0.48566000000000004,-0.15070533333333336,17.5,True
1607124707.6769803,6.148297850134998,-8.889316018811664,1.8534205653949993,11.674833333333348,-14.837375,64.64791666666667,0.13171199999999997,0.4875359999999999,-0.15070533333333336,17.5,True
1607124707.6854792,6.319105503398331,-9.057531447591664,1.8137794709883326,5.446291666666679,-15.140999999999996,63.23683333333334,0.13576266666666667,0.4886653333333333,-0.15099933333333337,17.5,True
1607124707.693933,6.449434574344999,-9.192925326374997,1.8644474895433327,-0.3345416666666632,-15.461249999999998,63.077291666666675,0.13981333333333332,0.4897946666666666,-0.15099933333333337,17.5,True
1607124707.702464,6.59605477916,-9.143074855541665,1.8797615541833328,-4.278458333333335,-13.929124999999999,63.509250000000016,0.14351866666666666,0.4904853333333332,-0.15099933333333337,17.5,True
1607124707.710978,6.754639096975,-9.05164909203333,1.828176286965,-7.0767083333333325,-12.278874999999998,62.87983333333334,0.14797999999999997,0.48995333333333324,-0.1512093333333334,17.5,True
1607124707.719294,6.856393878039999,-8.990053850271664,1.7531014778899998,-9.132083333333334,-11.395708333333335,61.306291666666674,0.15244133333333332,0.48942133333333326,-0.1512093333333334,17.5,True
1607124707.7277458,6.791628146333332,-8.997012975999999,1.6953945728533333,-11.025583333333334,-10.482499999999998,60.24404166666668,0.15611866666666663,0.48846933333333326,-0.1512093333333334,17.5,True
1607124707.7363548,6.641638049689999,-9.000183465944998,1.6379468902649998,-13.340833333333334,-8.760500000000004,61.04379166666668,0.16015066666666664,0.48745199999999994,-0.15064000000000005,17.5,True
1607124707.7447398,6.468058710248333,-8.907561291136664,1.5616956100783332,-16.067333333333334,-6.999125000000002,62.62579166666668,0.1640053333333333,0.4862386666666666,-0.15064000000000005,17.5,True
1607124707.7531698,6.318786460385,-8.824988971248333,1.5032509180733333,-19.057791666666663,-6.142791666666668,63.93887500000001,0.16786,0.4850253333333333,-0.15064000000000005,17.5,True
1607124707.7616668,6.246164294474999,-8.715397696168333,1.4581462120633333,-22.05320833333333,-6.108083333333337,64.95795833333335,0.17189200000000002,0.48379333333333324,-0.1510646666666667,17.5,True
1607124707.7700818,6.10552614616,-8.564689752745,1.47744831437,-25.567791666666665,-6.181583333333336,66.0172916666667,0.1761946666666667,0.48223466666666664,-0.1510646666666667,17.5,True
1607124707.7784917,5.838407383246666,-8.439325788693333,1.5774483588616663,-29.273416666666666,-5.279458333333335,67.66287500000001,0.18049733333333334,0.480676,-0.1510646666666667,17.5,True
1607124707.7868047,5.5759346842149995,-8.323772397301665,1.6930615708183332,-32.806666666666665,-3.706791666666667,69.73050000000002,0.18425866666666668,0.47886533333333337,-0.1510646666666667,17.5,True
1607124707.7952607,5.358666392135,-8.187541030608333,1.8033308123016665,-35.644875,-1.7800416666666672,71.97108333333334,0.18852400000000002,0.4768026666666667,-0.15153600000000006,17.5,True
1607124707.8035367,5.231707213016667,-8.016932779228332,1.9095721357416664,-37.005500000000005,-0.26250000000000034,74.039875,0.19278933333333334,0.47474,-0.15153600000000006,17.5,True
1607124707.8118765,5.191049169004999,-7.776334466798334,2.0061424678399997,-36.585208333333334,0.6343750000000002,75.77120833333335,0.19744666666666666,0.47250000000000003,-0.15153600000000006,17.5,True
1607124707.8203285,5.250052186283331,-7.484350289033333,2.080399729193333,-34.48491666666667,1.0389166666666667,76.68033333333334,0.20216933333333334,0.47005466666666673,-0.15167133333333338,17.5,True
1607124707.8286543,5.391109078553331,-7.171309272388334,2.12051938812,-31.044416666666667,0.8898750000000002,76.65145833333332,0.20689200000000002,0.4676093333333334,-0.15167133333333338,17.5,True
1607124707.8375633,5.557131086616664,-6.888597282198334,2.13104780756,-26.68545833333333,0.5559166666666664,76.11858333333333,0.2114186666666667,0.46532266666666666,-0.15167133333333338,17.5,True
1607124707.8460655,5.699085287361665,-6.658547329396667,2.1424735354749997,-22.908666666666665,0.35699999999999954,74.99974999999999,0.21628133333333338,0.46270933333333336,-0.15167133333333338,17.5,True
1607124707.8545911,5.8561940312399985,-6.475596101438334,2.163610135108333,-20.28366666666666,0.5961666666666662,73.44516666666665,0.2211440000000001,0.460096,-0.15167133333333338,17.5,True
1607124707.866245,5.976911931409999,-6.3638911663950015,2.1779670707083327,-19.08491666666667,1.374624999999999,71.62225,0.2255306666666667,0.457408,-0.1515126666666667,17.5,True
1607124707.8746543,6.091209090936667,-6.3012789750283345,2.16562409413,-19.00791666666667,2.5590833333333336,69.83345833333334,0.2299173333333334,0.45471999999999996,-0.1515126666666667,17.5,True
1607124707.882991,6.196194182511666,-6.293322839883333,2.1257237772749997,-20.003083333333336,3.765416666666667,67.95979166666669,0.234304,0.4520319999999999,-0.1515126666666667,17.5,True
1607124707.891521,6.286563116038333,-6.273522232868333,2.091945098238333,-21.604333333333336,4.903208333333334,66.16837500000001,0.23830800000000005,0.44985733333333316,-0.15167600000000006,17.5,True
1607124707.89982,6.415257091541666,-6.243572069991667,2.0495921382183333,-23.38116666666667,5.74175,64.42333333333333,0.24231200000000003,0.4476826666666665,-0.15167600000000006,17.5,True
1607124707.908445,6.542555253861665,-6.196174242323334,2.0145572273166668,-24.86895833333334,6.086791666666667,62.29883333333334,0.246316,0.4455079999999999,-0.15167600000000006,17.5,True
1607124707.9168892,6.690451630729999,-6.155077514168334,1.9968702802649996,-25.891250000000007,6.057625,59.75170833333334,0.2501333333333334,0.44308133333333327,-0.1516106666666667,17.5,True
1607124707.925406,6.800980094661666,-6.146543113561667,2.00458713315,-26.342750000000002,6.016791666666666,56.613375,0.2539506666666667,0.4406546666666667,-0.1516106666666667,17.5,True
1607124707.933751,6.919424813361666,-6.1321861779616675,2.0293329068716663,-26.581625,6.3035,52.929624999999994,0.257768,0.438228,-0.1516106666666667,17.5,True
1607124707.9423387,6.990033020249999,-6.132744503235001,2.03856521407,-26.921125000000004,7.063291666666667,48.92008333333334,0.26114666666666664,0.43589466666666665,-0.15178800000000006,17.5,True
1607124707.9507248,7.0044697166033325,-6.16917522732,2.0352750829950006,-27.59954166666667,8.213333333333333,44.83208333333334,0.26436666666666664,0.4335613333333333,-0.15178800000000006,17.5,True
1607124707.9592826,6.986284264843332,-6.242256017561668,2.0290936246116673,-28.729458333333334,9.386708333333335,41.00775,0.26758666666666664,0.431228,-0.15178800000000006,17.5,True
1607124707.967661,6.948377966821665,-6.324369713118334,2.0346170567800006,-29.96495833333334,10.168958333333334,37.72445833333333,0.2700413333333333,0.429352,-0.15200266666666673,17.5,True
1607124707.9763496,6.9066032722633315,-6.386204237140001,2.07254329499,-30.792125000000002,10.42329166666667,34.91920833333333,0.27243066666666665,0.4272613333333333,-0.15200266666666673,17.5,True
1607124707.9846976,6.863093781319998,-6.409075633158335,2.1353548882400006,-30.998625,10.323833333333335,32.14370833333332,0.27482,0.4251706666666667,-0.15200266666666673,17.5,True
1607124707.9933167,6.833402840891665,-6.415277031730001,2.2069800447333336,-30.595833333333335,10.089041666666667,29.279833333333325,0.2768546666666667,0.4231453333333333,-0.15200266666666673,17.5,True
1607124708.0017836,6.818328058511667,-6.404628971160002,2.2778674142583335,-29.78091666666667,9.858916666666664,26.26458333333333,0.27947733333333336,0.421232,-0.1521986666666667,17.5,True
1607124708.0103757,6.805027952893332,-6.366343809560003,2.321556366896667,-28.608125000000005,9.781916666666666,22.95241666666666,0.2821,0.4193186666666666,-0.1521986666666667,17.5,True
1607124708.0187724,6.792684976315,-6.339883179641669,2.342174521633334,-27.27841666666667,9.937375000000001,19.550125,0.28472266666666673,0.4174053333333333,-0.1521986666666667,17.5,True
1607124708.0271947,6.772784668358333,-6.319065623021669,2.3318654442650004,-26.026000000000003,10.4125,16.272666666666666,0.28614133333333336,0.4159773333333333,-0.15202133333333337,17.5,True
1607124708.0357754,6.734998011466667,-6.307161330586668,2.2873788840933336,-25.077791666666673,10.950333333333333,13.044500000000003,0.28756000000000004,0.4145493333333333,-0.15202133333333337,17.5,True
1607124708.0443394,6.695616139508333,-6.2904115723866685,2.2316261175133336,-24.16779166666667,11.292166666666668,10.002125000000003,0.2889786666666668,0.41312133333333334,-0.15202133333333337,17.5,True
1607124708.0527854,6.647321003364999,-6.266642867893335,2.170130576693333,-23.32545833333334,11.479125000000002,7.188708333333336,0.28994933333333345,0.41184266666666675,-0.15223600000000007,17.5,True
1607124708.0614302,6.602196357166667,-6.232505265466667,2.117687881376667,-22.78500000000001,11.757375000000001,4.715666666666668,0.2909200000000001,0.4105640000000001,-0.15223600000000007,17.5,True
1607124708.0699773,6.525745675096667,-6.225446438796666,2.0914266533416668,-23.05741666666667,12.003833333333336,1.9177083333333362,0.29189066666666685,0.4092853333333334,-0.15223600000000007,17.5,True
1607124708.0785093,6.453283030693334,-6.223950924671667,2.0547367068083333,-23.26275,12.345666666666666,-0.6617916666666662,0.29285200000000006,0.40827733333333344,-0.1521986666666667,17.5,True
1607124708.0868683,6.3539410124166675,-6.192604948611666,2.0346569371566665,-23.366875,12.609625000000001,-3.2132916666666658,0.2938133333333334,0.4072693333333335,-0.1521986666666667,17.5,True
1607124708.0953782,6.264289925670001,-6.159683697673332,2.030270095723333,-23.238833333333332,12.68079166666667,-6.020875000000001,0.29477466666666674,0.4062613333333335,-0.1521986666666667,17.5,True
1607124708.103655,6.192844230871668,-6.114040606578332,2.0296718900733333,-22.826125,12.788125000000003,-8.705958333333335,0.295204,0.40556133333333355,-0.15221733333333337,17.5,True
1607124708.1122832,6.105526146160002,-6.068776379061665,2.0145572273166663,-21.893083333333333,13.004833333333336,-11.291000000000002,0.29563333333333347,0.4048613333333336,-0.15221733333333337,17.5,True
1607124708.120589,6.008955814061667,-6.035017640213332,1.9801803426299998,-20.2475,13.044500000000001,-13.83666666666667,0.2959786666666667,0.40445066666666685,-0.15221733333333337,17.5,True
1607124708.1289222,5.912365541775,-6.016353623933333,1.950728684461667,-18.290124999999996,12.922291666666666,-16.557333333333336,0.29611866666666675,0.40423600000000015,-0.1522266666666667,17.5,False
1607124708.137301,5.82125882128,-6.022774364576667,1.918186297101667,-16.658249999999995,12.904208333333335,-19.043208333333336,0.2962586666666667,0.40402133333333345,-0.1522266666666667,17.5,False
1607124708.145748,5.7303515026683325,-6.055496213631668,1.8900108109866667,-15.652583333333334,13.128208333333335,-21.103250000000003,0.29593200000000014,0.4038906666666668,-0.1522266666666667,17.5,False
1607124708.154367,5.642614674001666,-6.083113374473334,1.8640486857766665,-15.190291666666667,13.442333333333334,-22.92616666666667,0.29554933333333344,0.4036760000000001,-0.15211466666666673,17.5,False
1607124708.162782,5.584389324068331,-6.106882078966668,1.8522042139066666,-14.874708333333333,13.769000000000002,-24.739458333333335,0.29516666666666674,0.40346133333333345,-0.15211466666666673,17.5,False
1607124708.1711378,5.536154008489999,-6.100461338323334,1.8340387023349998,-14.425250000000002,14.068833333333336,-26.789291666666667,0.2946160000000001,0.40354533333333337,-0.15211466666666673,17.5,False
1607124708.1796708,5.516233760344999,-6.075775385166668,1.81196491385,-13.700750000000001,14.276208333333335,-29.22383333333334,0.2936733333333334,0.40384400000000004,-0.15200266666666673,17.5,False
1607124708.1881518,5.499703344216666,-6.071348663356669,1.7894723814100002,-12.598249999999998,14.267166666666666,-32.03666666666667,0.2927306666666667,0.4041426666666667,-0.15200266666666673,17.5,False
1607124708.1970737,5.45587481026,-6.109574004391667,1.78600278864,-11.271458333333335,13.963541666666666,-35.18841666666667,0.291788,0.404656,-0.15200266666666673,17.5,False
1607124708.2055106,5.405505894529999,-6.160421484641668,1.7538990854233336,-8.669791666666669,13.535958333333333,-38.17420833333334,0.2906120000000001,0.40572,-0.1518253333333334,17.5,False
1607124708.2139757,5.37798843463,-6.217310841956666,1.7631912131866665,-5.116124999999999,12.60204166666667,-40.87708333333334,0.2894360000000001,0.40678400000000003,-0.1518253333333334,17.5,False
1607124708.2225227,5.333461994081666,-6.324788457073333,1.7470396606366667,-1.4052500000000003,11.560208333333337,-43.27458333333333,0.2882600000000001,0.40784800000000004,-0.1518253333333334,17.5,False
1607124708.2309456,5.301617513313333,-6.434938057426666,1.7307285865799997,2.025333333333334,10.813250000000004,-45.166624999999996,0.2864773333333334,0.4093506666666667,-0.15188600000000005,17.5,False
1607124708.2395406,5.280879717446666,-6.542355851978332,1.7024334593349997,4.439458333333334,10.574375000000003,-46.658791666666666,0.2846946666666667,0.4108533333333334,-0.15188600000000005,17.5,False
1607124708.2479722,5.271288486858333,-6.6369720456199985,1.675653786403333,5.528833333333335,10.895500000000004,-47.898375,0.282912,0.4123560000000001,-0.15188600000000005,17.5,False
1607124708.2566295,5.270191776499999,-6.706862405728331,1.6505291491033327,5.350625000000002,11.52754166666667,-48.96033333333334,0.280112,0.41394266666666685,-0.15172733333333338,17.5,False
1607124708.2651594,5.269852793298333,-6.799006016016664,1.6315660299983328,4.364500000000001,12.280916666666672,-50.14275,0.2773120000000001,0.4155293333333335,-0.15172733333333338,17.5,False
1607124708.2770343,5.273601548705001,-6.863053900943331,1.6173686159049998,3.1392083333333347,12.94591666666667,-51.644833333333345,0.274512,0.41711600000000015,-0.15172733333333338,17.5,False
1607124708.2855692,5.266881705236667,-6.944609271226664,1.612363628633333,2.286958333333335,13.133750000000003,-53.23441666666668,0.2721693333333333,0.41862800000000006,-0.15172733333333338,17.5,False
1607124708.2940214,5.229334330605,-7.098348123276664,1.604945878573333,2.301833333333334,12.703250000000002,-54.668541666666684,0.26982666666666666,0.42014,-0.15172733333333338,17.5,False
1607124708.3025482,5.189733116575001,-7.263153779851664,1.6111273369566663,3.4361250000000014,11.64216666666667,-55.74245833333336,0.26748399999999994,0.42165199999999997,-0.15172733333333338,17.5,False
1607124708.3110912,5.139763004611668,-7.422655346329998,1.6338990320333326,5.389708333333334,10.376916666666668,-56.37654166666668,0.264432,0.42347199999999996,-0.15187666666666672,17.5,False
1607124708.3194711,5.070610431471668,-7.548358293583332,1.6399209689099992,7.263666666666668,9.356666666666667,-57.01120833333335,0.26138,0.42529199999999995,-0.15187666666666672,17.5,False
1607124708.3279233,5.025306323578334,-7.644749163986665,1.6168701111966661,9.083375,8.93929166666667,-57.199041666666695,0.25832799999999995,0.42711199999999994,-0.15187666666666672,17.5,False
1607124708.3365371,4.949872591113334,-7.726783098789999,1.6121841669383328,10.06366666666667,8.813875000000001,-57.52308333333335,0.2552013333333333,0.429128,-0.1516573333333334,17.5,False
1607124708.344935,4.8948775516900005,-7.833542867126665,1.5890535484716664,10.523916666666668,8.920625000000001,-57.79870833333335,0.2520746666666666,0.431144,-0.1516573333333334,17.5,False
1607124708.353451,4.817948305100001,-7.930611703933332,1.5425929096549995,10.924958333333333,9.023000000000001,-57.77479166666669,0.248948,0.43316000000000004,-0.1516573333333334,17.5,False
1607124708.362311,4.725027027466667,-8.051668587304999,1.4849458251833327,11.517333333333333,8.759916666666667,-57.65054166666668,0.24565333333333333,0.43503600000000003,-0.15173200000000003,17.5,False
1607124708.3707778,4.631009039475,-8.156075413418332,1.4274981425949997,12.512791666666663,8.045041666666668,-57.593958333333354,0.24235866666666667,0.4369120000000001,-0.15173200000000003,17.5,False
1607124708.3793118,4.5526839797016665,-8.255676654143333,1.380798221518333,13.585541666666666,7.256083333333335,-57.55079166666669,0.239064,0.438788,-0.15173200000000003,17.5,False
1607124708.3877127,4.481058823208333,-8.357610896903331,1.3279766626233331,14.790708333333331,6.587000000000002,-57.453958333333354,0.235732,0.4407480000000001,-0.15150800000000006,17.5,False
1607124708.3964248,4.408955102195,-8.447321804215,1.268614721955,16.076958333333334,5.863083333333336,-57.433541666666684,0.2324,0.44270800000000005,-0.15150800000000006,17.5,False
1607124708.4048166,4.337130543818333,-8.534859230998332,1.2122438095366668,17.527125,5.169500000000001,-57.32766666666668,0.229068,0.44466800000000006,-0.15150800000000006,17.5,False
1607124708.4132986,4.250111561931665,-8.635796464341665,1.1712069019466669,19.060416666666665,4.592291666666668,-57.015000000000015,0.2256986666666667,0.44702933333333333,-0.1512093333333334,17.5,False
1607124708.4217877,4.144787487154999,-8.752905190423332,1.1338589291983332,20.53216666666667,4.213416666666667,-56.11929166666668,0.22232933333333335,0.4493906666666667,-0.1512093333333334,17.5,False
1607124708.4303684,4.038386642208333,-8.876255195453332,1.1112666958166666,21.751041666666666,4.063208333333334,-54.71637500000001,0.21896000000000004,0.451752,-0.1512093333333334,17.5,False
1607124708.4386766,3.9305102233249993,-9.01340381081,1.086720323978333,22.651999999999997,4.056791666666667,-52.76045833333333,0.21567466666666674,0.4539546666666666,-0.15074266666666672,17.5,False
1607124708.4470165,3.846621851006666,-9.141958204995001,1.0657033654749997,23.64775,4.134083333333334,-50.211875,0.21238933333333343,0.45615733333333336,-0.15074266666666672,17.5,False
1607124708.4554944,3.810091425979999,-9.220901410606666,1.0251849027816664,24.875083333333333,4.442666666666667,-47.216750000000005,0.20910400000000007,0.45835999999999993,-0.15074266666666672,17.5,False
1607124708.4638274,3.799941870118333,-9.280901437301663,1.0046265686099998,24.904249999999998,4.8343750000000005,-44.312041666666666,0.20613600000000012,0.45999333333333325,-0.1510413333333334,17.5,False
1607124708.4724245,3.776272866566667,-9.344809740909998,0.9375876554333331,23.86825,5.775583333333334,-41.734874999999995,0.2031680000000001,0.4616266666666666,-0.1510413333333334,17.5,False
1607124708.4807234,3.7713077596716666,-9.373344150414999,0.8977870395199996,22.393874999999998,6.873125000000001,-39.305875,0.20020000000000007,0.46325999999999995,-0.1510413333333334,17.5,False
1607124708.4891143,3.7560335754083334,-9.406444863048332,0.8600203228166664,20.64475,7.752791666666667,-37.0755,0.1976893333333334,0.46499599999999996,-0.1510413333333334,17.5,False
1607124708.4974833,3.738705551746667,-9.444929426531665,0.8345766425033331,19.337500000000002,8.214208333333334,-35.07029166666667,0.19517866666666675,0.466732,-0.1510413333333334,17.5,False
1607124708.5059144,3.718565961530001,-9.499027157479997,0.810768057633333,19.023958333333336,8.172791666666669,-33.35820833333334,0.19266800000000003,0.46846799999999994,-0.1510413333333334,17.5,False
1607124708.523066,3.6957743262650005,-9.588738064791666,0.7831907771683331,19.81904166666667,7.765625000000001,-31.92175,0.19100666666666674,0.469756,-0.15051400000000006,17.5,False
1607124708.5339203,3.6921053316116668,-9.65541805457833,0.7680162938466665,21.307125,7.058916666666667,-30.306208333333334,0.1893453333333334,0.471044,-0.15051400000000006,17.5,False
1607124708.555647,3.69284311858,-9.741061163469997,0.7494918588849998,23.11370833333333,6.432416666666668,-28.288166666666662,0.18771200000000005,0.47258400000000006,-0.15035533333333337,17.5,False
1607124708.5716622,3.736831174043333,-9.799964479806667,0.7169494715249999,25.001666666666665,6.308458333333334,-25.87141666666667,0.18616266666666673,0.47413333333333335,-0.14995400000000006,17.5,False
1607124708.5817327,3.888476306318333,-9.772028275951666,0.6878966171233335,26.516875000000002,6.182458333333334,-23.55879166666667,0.18461333333333343,0.4756826666666667,-0.14995400000000006,17.5,False
1607124708.5957057,4.097309898733333,-9.713503823193331,0.6522635005716668,27.278125,6.297666666666668,-21.763,0.1832320000000001,0.47706400000000004,-0.15032733333333337,17.5,False
1607124708.6077547,4.379962068358334,-9.64654467077,0.6621139536083334,26.779958333333337,6.1448333333333345,-20.851250000000004,0.18250400000000008,0.47824000000000005,-0.15032733333333337,17.5,False
1607124708.6207416,4.754378984693333,-9.601858708715001,0.6786244295483334,26.302500000000002,5.664458333333335,-20.040125000000003,0.18187866666666672,0.4794066666666667,-0.1501033333333334,17.5,False
1607124708.6377387,5.266143918268333,-9.568738055893334,0.728076096615,26.521541666666668,4.7270416666666675,-19.040875000000003,0.18125333333333338,0.48057333333333335,-0.14980000000000004,17.5,False
1607124708.6517015,5.780441255761668,-9.536993276066669,0.75744799403,27.296208333333333,3.4798750000000007,-17.620166666666663,0.18048800000000004,0.48157200000000006,-0.14980000000000004,17.5,False
1607124708.6655984,6.2870815609349995,-9.47840900274333,0.7579664389266667,27.658749999999998,2.2332916666666667,-16.363958333333333,0.1801146666666667,0.4823840000000001,-0.1496086666666667,17.5,False
1607124708.6743376,6.802156565773333,-9.376893503938332,0.7599205773833333,27.010958333333335,0.9875833333333333,-15.457750000000003,0.17974133333333334,0.48319600000000007,-0.1496086666666667,17.5,False
1607124708.6828606,7.327141844213333,-9.180821632056666,0.7691130042049998,25.754458333333336,0.09887500000000078,-14.989041666666669,0.179732,0.4841666666666668,-0.1496086666666667,17.5,False
1607124708.6915116,7.866444177876668,-8.90921632676833,0.7724430156566665,23.184291666666663,-0.10470833333333278,-14.949375000000002,0.17915333333333333,0.4849506666666667,-0.14966000000000004,17.5,False
1607124708.6999373,8.409196164121667,-8.534440487043332,0.7796613638333331,18.668125,0.46637500000000015,-15.600083333333334,0.17857466666666663,0.48573466666666676,-0.14966000000000004,17.5,False
1607124708.7085934,8.953443664491665,-8.062236887121665,0.8199206040783332,12.301916666666664,1.4933333333333343,-17.043833333333335,0.17823866666666666,0.48623866666666676,-0.14966000000000004,17.5,False
1607124708.7169933,9.501140817443334,-7.485008315248335,0.9346763879366665,5.185833333333335,2.576000000000001,-19.650458333333336,0.178024,0.48607066666666665,-0.15018733333333337,17.5,False
1607124708.7255461,10.000722295946666,-6.796294150403333,1.1581859589649999,-1.430333333333335,3.2025000000000015,-23.651833333333332,0.17780933333333332,0.4859026666666667,-0.15018733333333337,17.5,False
1607124708.7341113,10.231769258164999,-5.987559991980001,1.4969298783716665,-6.141916666666669,3.1147083333333336,-29.316291666666665,0.17768799999999996,0.4854173333333334,-0.15018733333333337,17.5,False
1607124708.7427092,10.131509991224998,-5.065764965706668,1.900918094005,-8.257958333333333,2.683916666666667,-37.232124999999996,0.17619466666666664,0.48486666666666683,-0.15049066666666672,17.5,False
1607124708.7544103,9.572965375819999,-4.155834351491667,2.3332213770716663,-7.147291666666665,2.7827916666666663,-46.10054166666667,0.17470133333333332,0.4843160000000001,-0.15049066666666672,17.5,False
1607124708.7628312,8.800721762046665,-3.451766241630001,2.6924239297083328,-4.197083333333332,3.6624583333333334,-54.91179166666667,0.17351599999999998,0.48370933333333344,-0.15049066666666672,17.5,False
1607124708.7712061,8.028537968838332,-2.7415166733850014,2.9566713055016662,-2.7868749999999993,6.951875,-63.69212500000001,0.17048266666666664,0.4831680000000001,-0.15046266666666672,17.5,False
1607124708.7798452,7.248597442368333,-1.897428561046668,3.155295521489999,-6.051791666666668,13.596333333333336,-72.513,0.16744933333333334,0.4826266666666667,-0.15046266666666672,17.5,False
1607124708.7883341,6.4779689838499985,-1.1876376171333327,3.184826940411666,-13.621708333333336,22.89904166666667,-81.44266666666668,0.16449066666666667,0.48210400000000003,-0.15046266666666672,17.5,False
1607124708.796748,5.711308622809999,-1.0054441163316663,3.0298119163083332,-22.164333333333335,31.77329166666667,-90.4980416666667,0.15982400000000002,0.48033066666666674,-0.15185800000000008,17.5,False
1607124708.805106,4.950969301471665,-1.3109876221633328,2.7687350304600002,-29.113000000000007,37.55383333333334,-99.79375000000003,0.15515733333333334,0.4785573333333334,-0.15185800000000008,17.5,False
1607124708.8135948,4.189952013729998,-1.6142579465249989,2.3504696399799996,-34.11245833333334,40.41362500000001,-109.38695833333337,0.15070533333333333,0.4764573333333334,-0.15185800000000008,17.5,False
1607124708.8221457,3.4244681238016654,-1.9249460209466662,1.8242480698633334,-35.23975,40.662708333333335,-114.14462500000005,0.1439666666666667,0.47310666666666673,-0.15238066666666672,17.5,False
1607124708.8304496,2.647698087276666,-2.2391635087033324,1.1893724135183334,-32.463375,38.800125,-107.71016666666671,0.13722800000000004,0.4697560000000001,-0.15238066666666672,17.5,False
1607124708.8388948,1.8628921548533317,-2.55134709725,0.7436693238916666,-27.73837500000001,34.519041666666666,-98.02275000000004,0.1300693333333334,0.46665733333333353,-0.15238066666666672,17.5,False
1607124708.8471687,1.0596016678449989,-2.322533436124999,0.5709274723600003,-23.646583333333336,27.991249999999997,-88.28895833333338,0.12411466666666673,0.4644266666666669,-0.15166200000000005,17.5,False
1607124708.8555508,0.4275973986199991,-1.728216122849999,0.5925027561366663,-20.885666666666673,21.021875,-78.80804166666671,0.11813200000000008,0.4619440000000002,-0.15166200000000005,17.5,False
1607124708.8643126,-0.1499502162666679,-1.2882757476516657,0.7866803101266662,-20.186541666666674,15.095208333333334,-71.91275000000003,0.11217733333333342,0.45918133333333355,-0.15166200000000005,17.5,False
1607124708.8727427,-0.7976075333333341,-1.0305288732549998,1.0714660799033326,-21.007583333333333,10.877708333333334,-65.88137500000002,0.10661466666666676,0.45731466666666687,-0.15135866666666672,17.5,False
1607124708.8811765,-1.541137275906667,-0.8397411512816665,1.3392029886549999,-22.134875,7.265999999999999,-59.883250000000025,0.1008840000000001,0.45561600000000013,-0.15135866666666672,17.5,False
1607124708.8896525,-2.3894128277950006,-0.7252844702483329,1.5290136414000002,-22.29704166666666,4.089458333333331,-53.4085416666667,0.09515333333333341,0.45391733333333345,-0.15135866666666672,17.5,False
1607124708.8982575,-3.3442886265133347,-0.6356732638783329,1.699920995605,-21.25608333333333,0.9056249999999987,-46.958625000000026,0.08999200000000007,0.4529840000000001,-0.15093866666666672,17.5,False
1607124708.9067583,-4.431407754258335,-0.49633122780499955,1.853919070103334,-19.511916666666668,-2.0699583333333353,-40.8015416666667,0.08483066666666673,0.4520506666666668,-0.15093866666666672,17.5,False
1607124708.9151173,-5.476413204243334,-0.3361317547349996,1.9902301975499994,-17.396166666666666,-4.539208333333334,-35.398125000000036,0.07982800000000007,0.4510240000000002,-0.15093866666666672,17.5,False
1607124708.9236963,-6.471428602076668,-0.22436699912666616,2.0953748106316668,-14.752499999999998,-6.4927916666666645,-30.10466666666669,0.07460133333333338,0.45064133333333345,-0.15017333333333338,17.5,False
1607124708.9322844,-7.395756032268334,-0.1661017688166665,2.1413768251166667,-11.859458333333334,-7.825125,-24.33316666666669,0.06937466666666664,0.45025866666666675,-0.15017333333333338,17.5,False
1607124708.9408033,-8.23789000615,-0.20731813810166647,2.1454845039133326,-9.529916666666672,-8.824083333333336,-17.868375000000036,0.06414799999999998,0.44987600000000005,-0.15017333333333338,17.5,False
1607124708.9493783,-9.012745784595,-0.32628130169833347,2.143869348658333,-7.600833333333329,-10.057249999999993,-10.736541666666673,0.06024666666666666,0.45014666666666675,-0.14986533333333338,17.5,False
1607124708.957904,-9.726066141843331,-0.5474977510683332,2.1382262753599997,-5.158416666666664,-11.687958333333333,-2.9945416666666933,0.05634533333333332,0.45041733333333334,-0.14986533333333338,17.5,False
1607124708.9665122,-10.39884809621,-0.8777471502449999,2.11393912597,-1.6426666666666694,-13.685583333333335,5.391458333333314,0.05244399999999998,0.45068800000000003,-0.14986533333333338,17.5,False
1607124708.9749591,-11.006325933785002,-1.3455639087333333,2.045524339798333,2.9971666666666636,-15.899916666666671,14.73674999999999,0.04934533333333334,0.4517146666666667,-0.14956200000000006,17.5,False
1607124708.9843142,-11.472248374381667,-1.968276050195,1.9006987519333334,8.226458333333332,-17.74966666666667,25.049500000000013,0.046246666666666665,0.4527413333333334,-0.14956200000000006,17.5,False
1607124708.992772,-11.595239456021666,-2.7045874445916662,1.635434426535,12.338083333333334,-18.596958333333337,37.03175000000002,0.043148,0.45376800000000006,-0.14956200000000006,17.5,False
1607124709.0011919,-11.304710912005,-3.519323599703333,1.2700304753266667,14.169166666666667,-18.434500000000003,51.137333333333345,0.042168,0.45498133333333346,-0.1496553333333334,17.5,False
1607124709.009692,-10.466106351458334,-4.320021862228333,0.8277770382816664,12.652791666666669,-18.18016666666667,66.03508333333336,0.04118800000000001,0.4561946666666668,-0.1496553333333334,17.5,False
1607124709.018454,-9.316913417431667,-4.915136783036666,0.4269792527816666,9.026499999999997,-18.58704166666667,80.49037500000001,0.04020800000000001,0.45740800000000015,-0.1496553333333334,17.5,False
1607124709.0269618,-8.109933817615,-5.529813028599999,0.09732805925500002,6.378749999999996,-21.446833333333327,94.33287500000002,0.042336000000000006,0.4585653333333335,-0.14972533333333338,17.5,False
1607124709.0353768,-6.838527469293331,-6.305506294954999,-0.14059826793833322,7.862458333333331,-28.082250000000002,107.79941666666666,0.044464,0.45972266666666683,-0.14972533333333338,17.5,False
1607124709.0439677,-5.5372108384716645,-6.946722931189999,-0.15355939035499996,13.519333333333334,-37.829458333333335,120.736875,0.046592,0.4608800000000002,-0.14972533333333338,17.5,False
1607124709.0525029,-4.282534308161669,-7.090671150768332,0.06255237080166653,20.007458333333332,-47.67145833333333,133.40191666666666,0.05083866666666667,0.4634466666666668,-0.15023866666666671,17.5,False
1607124709.0609477,-3.0402007544300016,-6.733941181484998,0.4344568234066666,24.700666666666667,-54.45737499999999,146.42804166666667,0.05508533333333333,0.4660133333333334,-0.15023866666666671,17.5,False
1607124709.0694015,-1.8312869563450014,-6.347001826876666,0.9860024327066662,27.314875000000022,-57.873374999999996,159.68633333333338,0.05933199999999999,0.46858000000000005,-0.15023866666666671,17.5,False
1607124709.0778847,-0.650867687388335,-5.952166157688334,1.6342579554233327,25.975833333333355,-58.26158333333332,168.32404166666672,0.066472,0.47236000000000006,-0.1502713333333334,17.5,False
1607124709.0864336,0.5125625411083304,-5.54321283516,2.3959930899449997,20.483458333333335,-56.38091666666665,166.2765416666667,0.073612,0.47614,-0.1502713333333334,17.5,False
1607124709.0948396,1.6417155858599974,-5.084907546506667,2.946980373971667,12.926375000000004,-51.95370833333332,161.3327916666667,0.080752,0.47991999999999996,-0.1502713333333334,17.5,False
1607124709.1032314,2.7415565537616646,-5.15234526345,3.1932217597,6.117125000000001,-45.299624999999985,156.18954166666666,0.08751866666666668,0.4824773333333333,-0.1505746666666667,17.5,False
1607124709.1115794,3.6415370139983323,-5.593801092961668,3.220878800918334,0.7204166666666713,-38.68666666666665,150.92379166666666,0.09428533333333333,0.48503466666666667,-0.1505746666666667,17.5,False
1607124709.1199105,4.435894296633332,-5.871328634185001,3.079622506765,-2.73116666666667,-33.606125000000006,147.5334583333333,0.101052,0.4875920000000001,-0.1505746666666667,17.5,False
1607124709.1285274,5.198227636805,-5.973721501276667,2.843351215203333,-4.776041666666666,-29.922375,144.52958333333328,0.10810800000000001,0.4887773333333334,-0.15076600000000004,17.5,False
1607124709.1368635,5.9621960724199985,-6.036832197351666,2.60542488801,-6.818875000000001,-26.583375,141.01587499999994,0.11516400000000002,0.4899626666666667,-0.15076600000000004,17.5,False
1607124709.1452224,6.719085741176666,-6.071468304486666,2.364208429741666,-9.503083333333334,-23.368041666666667,136.84679166666663,0.12222000000000002,0.49114800000000003,-0.15076600000000004,17.5,False
1607124709.1536543,7.433462928406666,-6.127360652384999,2.1295722336233327,-13.545291666666667,-20.22125,132.22095833333327,0.12894000000000003,0.49130666666666667,-0.1513446666666667,17.5,False
1607124709.1654282,8.08845823478,-6.277071586391666,1.8856439097416662,-18.979333333333333,-17.26170833333333,127.60037499999996,0.13566000000000003,0.4914653333333333,-0.1513446666666667,17.5,False
1607124709.1738951,8.615018788098332,-6.531647970843333,1.6726228777766659,-25.29945833333334,-14.926333333333334,123.55408333333331,0.14238000000000003,0.491624,-0.1513446666666667,17.5,False
1607124709.1825101,9.044370923291666,-6.816533441561665,1.5372289989933328,-31.66479166666667,-13.130250000000002,120.47904166666666,0.14882000000000004,0.4911106666666667,-0.1518253333333334,17.5,False
1607124709.1907961,9.381280345371668,-7.107540550098333,1.4791831107549998,-37.47887500000001,-11.76991666666667,118.223875,0.15526000000000004,0.49059733333333333,-0.1518253333333334,17.5,False
1607124709.1995451,9.638269492611668,-7.341917523768332,1.4550355426833332,-42.42904166666667,-10.789333333333337,116.58645833333331,0.16170000000000007,0.4900840000000001,-0.1518253333333334,17.5,False
1607124709.207956,9.862197807595003,-7.523293476848332,1.443789276463333,-46.243166666666674,-10.038875,115.19870833333331,0.1678413333333334,0.4883106666666667,-0.15221733333333337,17.5,False
1607124709.2165701,10.067003481966669,-7.6263842505316655,1.43078827367,-49.09333333333335,-9.782208333333335,113.838375,0.17398266666666676,0.4865373333333334,-0.15221733333333337,17.5,False
1607124709.2250519,10.25896767505167,-7.677829936431666,1.411785274188333,-51.662041666666674,-9.768791666666667,112.11929166666665,0.1801240000000001,0.4847640000000001,-0.15221733333333337,17.5,False
1607124709.233579,10.392307714436667,-7.68766044928,1.3885350145916666,-54.48508333333334,-9.793291666666669,110.04145833333334,0.18578000000000008,0.4824773333333333,-0.15244133333333337,17.5,False
1607124709.2421238,10.406584889283335,-7.684749181783332,1.3705888450916663,-58.186916666666676,-9.927750000000001,108.044125,0.19143600000000008,0.4801906666666667,-0.15244133333333337,17.5,False
1607124709.2505398,10.341759337011666,-7.698946595876665,1.3758729949999997,-62.182166666666674,-10.281833333333333,106.16141666666668,0.19709200000000007,0.47790399999999994,-0.15244133333333337,17.5,False
1607124709.2590938,10.192008522628335,-7.738886793108332,1.4278969463616664,-66.08000000000001,-11.040458333333333,104.53683333333333,0.2022720000000001,0.474768,-0.15344933333333338,17.5,False
1607124709.267619,9.940163943978336,-7.808159007378332,1.5352748605366666,-69.54120833333334,-12.089291666666668,103.41420833333335,0.20745200000000008,0.471632,-0.15344933333333338,17.5,False
1607124709.2762396,9.586664285204998,-7.8569526482299965,1.6718452104316663,-72.09125000000002,-12.9255,103.05516666666668,0.2126320000000001,0.468496,-0.15344933333333338,17.5,False
1607124709.2847807,9.189894417748329,-7.867002503149997,1.8161124730233331,-73.64875000000002,-13.477916666666665,103.52270833333334,0.21738266666666678,0.46464133333333335,-0.15372933333333336,17.5,False
1607124709.2932148,8.733124523596665,-7.824111158044997,1.9306289746216663,-74.49895833333335,-13.621125,104.41345833333335,0.22213333333333343,0.4607866666666667,-0.15372933333333336,17.5,False
1607124709.3016565,8.274739474189998,-7.738826972543332,1.974218226318333,-74.92566666666669,-13.510291666666665,105.721,0.22688400000000009,0.456932,-0.15372933333333336,17.5,False
1607124709.3102865,7.867381366728332,-7.589295500231665,1.986780544968333,-74.88279166666668,-12.917041666666668,107.05041666666668,0.23169066666666674,0.45255466666666666,-0.15365000000000004,17.5,False
1607124709.3188374,7.490093063273331,-7.426723144749998,1.9457037570016664,-74.42341666666668,-12.247958333333333,107.97995833333336,0.2364973333333334,0.4481773333333334,-0.15365000000000004,17.5,False
1607124709.3271694,7.1705914256083325,-7.256413996194998,1.8945771141149996,-73.44370833333336,-11.849833333333333,108.60120833333335,0.2413040000000001,0.4438000000000001,-0.15365000000000004,17.5,False
1607124709.3355656,6.8860848184683325,-7.089654201163331,1.8315860591699997,-72.04691666666668,-11.386083333333334,108.75841666666669,0.24599866666666675,0.4389653333333333,-0.15377133333333337,17.5,False
1607124709.3447404,6.621179416459999,-6.984788750718331,1.758425508175,-70.57604166666668,-10.432041666666667,108.2614166666667,0.25069333333333343,0.43413066666666666,-0.15377133333333337,17.5,False
1607124709.3531034,6.380800446101665,-6.9378495473816635,1.7076378484899997,-69.37291666666667,-9.323708333333332,107.5439166666667,0.2553880000000001,0.429296,-0.15377133333333337,17.5,False
1607124709.3616073,6.151587981209999,-6.8776301786149965,1.6744972554799997,-68.01229166666667,-8.188249999999998,107.15716666666668,0.2597653333333334,0.4242653333333333,-0.15372933333333336,17.5,False
1607124709.3700964,5.979085411938332,-6.806663048336664,1.6742978535966664,-66.47579166666668,-7.26395833333333,107.0941666666667,0.26414266666666675,0.4192346666666666,-0.15372933333333336,17.5,False
1607124709.3786473,5.8570713995266654,-6.752246274374998,1.6876577797799999,-65.3485,-6.2894999999999985,107.37795833333332,0.26852000000000004,0.41420399999999996,-0.15372933333333336,17.5,False
1607124709.3871274,5.766064379973332,-6.659065774293331,1.7225132289866665,-64.528625,-5.152874999999999,107.56345833333334,0.27272,0.4093133333333333,-0.15351000000000006,17.5,False
1607124709.3954852,5.735456190881666,-6.548337908478332,1.7905092712033333,-63.75920833333334,-4.041333333333332,107.89508333333333,0.27692,0.40442266666666665,-0.15351000000000006,17.5,False
1607124709.404019,5.756513029761667,-6.399304940874998,1.8986648527233332,-62.87983333333333,-2.8233333333333324,108.31625000000001,0.28112,0.3995319999999999,-0.15351000000000006,17.5,False
1607124709.4125302,5.828437289080001,-6.222794393748331,2.015773578805,-61.76770833333334,-1.384249999999999,108.78845833333335,0.285488,0.3947906666666665,-0.1533326666666667,17.5,False
1607124709.420832,5.939962762428334,-5.993661689609999,2.1659630773316665,-59.79341666666668,0.16216666666666685,108.93779166666668,0.28985600000000006,0.3900493333333332,-0.1533326666666667,17.5,False
1607124709.429302,6.145466343391666,-5.688457166979998,2.3283160907416667,-56.76795833333334,1.9252916666666677,108.79195833333334,0.29422400000000004,0.38530799999999993,-0.1533326666666667,17.5,False
1607124709.43777,6.372744610015,-5.357709263094999,2.4629123619916666,-52.83600000000001,3.778250000000001,107.84841666666668,0.298536,0.38066933333333325,-0.15337000000000006,17.5,False
1607124709.446303,6.60454929939,-5.010470823458333,2.580360071275,-47.83274999999999,5.574625,105.87325000000001,0.302848,0.37603066666666657,-0.15337000000000006,17.5,False
1607124709.4546478,6.809753777528333,-4.70058035657,2.6741786573833335,-41.61091666666667,7.372750000000002,103.04554166666667,0.3071599999999999,0.3713919999999999,-0.15337000000000006,17.5,False
1607124709.4631507,6.965925332555,-4.454259210088333,2.7473392083783335,-34.49045833333334,9.289291666666669,99.79812500000001,0.3115933333333333,0.36784533333333325,-0.15309000000000006,17.5,False
1607124709.4715238,7.093143734121667,-4.283232214753334,2.794836736988333,-27.03429166666667,11.603375000000002,96.51250000000002,0.31602666666666657,0.3642986666666666,-0.15309000000000006,17.5,False
1607124709.4798858,7.205087951424999,-4.159024781625001,2.8045276685183333,-19.748458333333343,14.126875000000002,93.45116666666667,0.3204599999999999,0.3607519999999999,-0.15309000000000006,17.5,False
1607124709.4885447,7.322495780331666,-4.046801401685,2.7752554720450004,-12.951166666666666,16.663208333333333,90.51641666666666,0.3245199999999999,0.3580733333333333,-0.15297800000000006,17.5,False
1607124709.4969287,7.4707909609666645,-3.9069608609033333,2.694138785905,-6.434166666666664,19.014916666666668,87.46995833333334,0.3285799999999999,0.3553946666666667,-0.15297800000000006,17.5,False
1607124709.5053308,7.633762120214998,-3.7665021742833336,2.5803600712750008,-0.2753333333333316,20.848625000000006,84.326375,0.33263999999999994,0.3527160000000001,-0.15297800000000006,17.5,False
1607124709.5138447,7.806683433441664,-3.647977694830001,2.467279263236667,5.2998750000000046,21.929833333333338,81.32395833333334,0.336756,0.35084000000000004,-0.15211000000000005,17.5,False
1607124709.5225227,7.998228882571664,-3.5220554055049993,2.3586052368200003,10.041208333333337,22.259708333333336,78.40116666666667,0.340872,0.3489640000000001,-0.15211000000000005,17.5,False
1607124709.5309565,8.190930862624999,-3.4189048112566662,2.278046875953334,13.53275,21.917000000000005,75.59270833333333,0.344988,0.34708800000000006,-0.15211000000000005,17.5,False
1607124709.5393226,8.366863144289999,-3.3375289026683324,2.227438677963334,15.579666666666668,21.291958333333337,72.89158333333333,0.3482733333333333,0.34592133333333336,-0.15226866666666672,17.5,False
1607124709.5479305,8.535517257213332,-3.289552809538333,2.208116635468333,16.18254166666667,20.663125,70.13037499999999,0.35168,0.344736,-0.15226866666666672,17.5,False
1607124709.5565324,8.677670859841664,-3.2945777369983333,2.2247467525383327,15.559833333333334,20.160000000000004,67.35020833333331,0.35508666666666666,0.34355066666666656,-0.15226866666666672,17.5,False
1607124709.5650125,8.828697846278333,-3.325325507408334,2.2393828507749998,14.379458333333334,19.761583333333338,64.85354166666664,0.3580266666666666,0.34272933333333316,-0.15235733333333337,17.5,False
1607124709.5769663,8.945268187274998,-3.3694730843783334,2.2657437797516664,13.494250000000005,19.49354166666667,62.624916666666635,0.36091066666666666,0.34148799999999985,-0.15235733333333337,17.5,False
1607124709.5855353,9.030133628821662,-3.4641690387733335,2.284328035278333,12.775875000000008,19.1205,60.67395833333331,0.36379466666666666,0.34024666666666653,-0.15235733333333337,17.5,False
1607124709.5942934,9.098847517818331,-3.538426300126666,2.337508517563333,12.282083333333338,18.2105,59.05870833333332,0.366632,0.33897733333333324,-0.1525906666666667,17.5,False
1607124709.602724,9.163932292538332,-3.5508091570816664,2.389053904404999,12.481875000000008,16.536916666666674,57.77741666666665,0.3694693333333333,0.337708,-0.1525906666666667,17.5,False
1607124709.6112232,9.222536506049998,-3.5382667786199997,2.425723910749999,13.438250000000009,14.656833333333335,56.63233333333332,0.3723066666666666,0.3364386666666668,-0.1525906666666667,17.5,False
1607124709.619781,9.283573422538332,-3.5514671832966664,2.452762806129999,14.145250000000003,12.932208333333334,55.42658333333332,0.3750226666666666,0.33518800000000015,-0.15232466666666672,17.5,False
1607124709.6283672,9.309455786994999,-3.5373694701449994,2.440300188421666,14.140291666666668,11.722375000000003,54.325250000000004,0.3777386666666667,0.3339373333333335,-0.15232466666666672,17.5,False
1607124709.636866,9.304729962359998,-3.518087308026666,2.3984257929216657,13.685583333333335,10.692208333333335,53.20175,0.3804546666666668,0.33268666666666685,-0.15232466666666672,17.5,False
1607124709.645267,9.279884487696666,-3.5219158241866664,2.3465613630666655,12.695083333333338,9.590875000000002,52.458875000000006,0.3827320000000001,0.3314640000000002,-0.15294066666666672,17.5,False
1607124709.6537988,9.221798719081669,-3.5113674645583326,2.2777477731283327,11.296541666666666,8.470875000000001,52.26316666666666,0.38500933333333337,0.3302413333333335,-0.15294066666666672,17.5,False
1607124709.662433,9.135497583975,-3.496312622366666,2.2223938103150003,9.746041666666667,7.387041666666668,52.40841666666667,0.38728666666666667,0.3290186666666669,-0.15294066666666672,17.5,False
1607124709.6849167,9.035218376846666,-3.477808127593333,2.181137560653333,8.272249999999996,6.192375000000003,52.69220833333335,0.38909733333333335,0.3272360000000002,-0.15269800000000006,17.5,False
1607124709.7047026,8.91840875359,-3.478745316444999,2.1317656543399996,8.019374999999998,5.164250000000001,52.70445833333334,0.3910666666666666,0.3248466666666668,-0.1530526666666667,17.5,False
1607124709.7218306,8.796693844003336,-3.461138130146666,2.056112579803333,8.200791666666666,4.3936666666666655,52.4125,0.39303600000000005,0.32245733333333343,-0.1530526666666667,17.5,False
1607124709.7316797,8.704550233715,-3.396292637686666,1.967817425863333,8.545541666666661,3.622208333333332,51.966833333333334,0.39514533333333335,0.3201893333333333,-0.15288933333333338,17.5,False
1607124709.7476118,8.626883200156668,-3.327120124358333,1.873839318248333,8.094041666666671,3.065125000000003,51.26975000000001,0.39754399999999995,0.3180706666666666,-0.15280533333333338,17.5,False
1607124709.7642634,8.568917072671667,-3.270489989491666,1.7955142584749995,6.048583333333336,2.3928333333333343,50.44579166666667,0.3999426666666667,0.315952,-0.15280533333333338,17.5,False
1607124709.7777333,8.555377684793333,-3.2027132893466663,1.7516259039533326,2.36220833333334,1.4927500000000002,49.588,0.4017906666666667,0.3134133333333333,-0.15271666666666672,17.5,False
1607124709.7891533,8.562755554476666,-3.117209761773333,1.7459429502783326,-2.3919583333333296,0.6515833333333333,48.561625000000014,0.40363866666666676,0.3108746666666667,-0.15271666666666672,17.5,False
1607124709.8063414,8.605028753743333,-3.001337327368333,1.7876578242716656,-6.590500000000004,-0.2584166666666677,47.349166666666676,0.40546800000000005,0.30830799999999997,-0.15280533333333338,17.5,False
1607124709.8161552,8.645168352858331,-2.9227131647699998,1.8306089899416658,-10.207458333333335,-0.907958333333333,46.00895833333335,0.40723200000000015,0.3053026666666666,-0.15280533333333338,17.5,False
1607124709.8252883,8.673523300668332,-2.8602405547216665,1.886840321041666,-13.739541666666668,-1.4399583333333317,44.97675000000002,0.4092386666666668,0.30224133333333325,-0.1526466666666667,17.5,False
1607124709.8349712,8.697551227609999,-2.8052654554866665,1.957029783974999,-17.289125000000002,-1.9462916666666648,43.87804166666668,0.41124533333333346,0.29917999999999995,-0.1526466666666667,17.5,False
1607124709.8443341,8.714041763361667,-2.7388247479600003,2.031925131354999,-20.831124999999997,-2.291041666666665,42.621833333333356,0.4129253333333335,0.2960439999999999,-0.1526466666666667,17.5,False
1607124709.853208,8.739166400661667,-2.6586253104833344,2.109791566796666,-24.19579166666666,-2.329833333333331,41.28104166666669,0.4146800000000002,0.29292666666666656,-0.15295000000000006,17.5,False
1607124709.862266,8.779784564296666,-2.5674388292350003,2.1771694631749994,-27.067541666666667,-1.9917916666666649,39.63866666666668,0.4164346666666668,0.2898093333333333,-0.15295000000000006,17.5,False
1607124709.8707619,8.824969031059998,-2.4885155638116667,2.240200398496666,-29.05933333333333,-1.600083333333332,37.63054166666668,0.41818933333333347,0.286692,-0.15295000000000006,17.5,False
1607124709.879188,8.868797565016667,-2.4104696666749996,2.291107699311666,-29.590458333333334,-1.2512499999999978,35.54395833333334,0.41958933333333354,0.28322,-0.15290333333333336,17.5,False
1607124709.8875988,8.895517417383333,-2.322673017443333,2.320818579928333,-28.540750000000003,-0.9277916666666651,33.579000000000015,0.42098933333333355,0.279748,-0.15290333333333336,17.5,False
1607124709.896306,8.894460587401666,-2.241317049043333,2.336651089464999,-26.550416666666663,-0.6813333333333322,31.644666666666673,0.42238933333333356,0.276276,-0.15290333333333336,17.5,False
1607124709.9047759,8.910731781081665,-2.1651255894216663,2.327598243961666,-24.599749999999993,-0.6098749999999995,29.573249999999998,0.4239946666666669,0.2731586666666666,-0.15301533333333336,17.5,False
1607124709.9131596,8.925666982143332,-2.0655442888849995,2.303530436643333,-22.96233333333333,-0.4689999999999994,27.413458333333338,0.42560000000000026,0.2700413333333333,-0.15301533333333336,17.5,False
1607124709.9216816,8.953244262608333,-1.9739191234933329,2.2584855511983326,-21.776999999999994,-0.27154166666666624,25.140500000000007,0.4267573333333336,0.26744666666666667,-0.15301533333333336,17.5,False
1607124709.9301627,8.892546329321666,-1.872682787325,2.2322642035399998,-21.396083333333326,0.2321666666666677,22.830500000000004,0.42803600000000025,0.264936,-0.1526466666666667,17.5,False
1607124709.9386756,8.946504478951665,-1.79928295407,2.1975483356516667,-21.825708333333328,0.5465833333333338,20.408208333333338,0.4293146666666669,0.26242533333333334,-0.1526466666666667,17.5,False
1607124709.9471176,8.988937199725,-1.738226097393333,2.1870597965883336,-22.51958333333333,0.5600000000000006,17.808583333333328,0.4302013333333336,0.26044666666666666,-0.1526466666666667,17.5,False
1607124709.9556746,9.020881381435,-1.7049658632533329,2.2038693753533334,-23.108749999999993,0.5690416666666661,15.050583333333329,0.4313306666666669,0.2582066666666667,-0.15271666666666672,17.5,False
1607124709.9641464,9.046105719676667,-1.6852848973683332,2.2505294160533333,-23.200625,0.5611666666666663,12.312125000000002,0.43246000000000023,0.2559666666666667,-0.15271666666666672,17.5,False
1607124709.9727705,9.088757782521665,-1.6885750284433334,2.2818155715483335,-22.631583333333335,0.29312499999999975,9.462250000000003,0.43352400000000024,0.2540346666666667,-0.15271666666666672,17.5,False
1607124709.9812524,9.132646137043334,-1.707099463405,2.3120847774383333,-21.443333333333335,-0.10237500000000056,6.395375000000002,0.43443866666666686,0.25201866666666667,-0.15277266666666672,17.5,False
1607124709.9897983,9.169635186401667,-1.7467804381883334,2.318106714315,-19.961083333333328,-0.47250000000000025,3.3413333333333353,0.4353533333333335,0.2500026666666667,-0.15277266666666672,17.5,False
1607124709.9983814,9.199126724946666,-1.7903098693200001,2.31469694211,-18.567499999999995,-0.6889166666666663,0.39958333333333407,0.43623066666666677,0.24866800000000003,-0.15277266666666672,17.5,False
1607124710.0068603,9.234301217166667,-1.8322241451966668,2.299482578411666,-18.795875,-1.0077083333333314,-1.7911250000000005,0.43666933333333346,0.24799600000000005,-0.1531506666666667,17.5,False
1607124710.0153382,9.255278295293332,-1.8874983472566667,2.297528439955,-19.8835,-1.4735000000000005,-3.4078333333333335,0.4371080000000001,0.24732400000000004,-0.1531506666666667,17.5,False
1607124710.0236943,9.273543507806666,-1.9635502255600001,2.3163918581183327,-21.637291666666666,-1.9416250000000004,-4.708666666666668,0.4375746666666667,0.24664266666666673,-0.1531506666666667,17.5,False
1607124710.0323644,9.297970238515001,-2.0320647126733333,2.3268405168050004,-23.47625,-2.4829583333333343,-5.667958333333333,0.43757466666666667,0.24582133333333336,-0.15344933333333338,17.5,False
1607124710.040795,9.329695078153332,-2.079303018835,2.330110707691667,-24.79866666666667,-2.956625000000001,-6.651750000000001,0.4375746666666666,0.24500000000000002,-0.15344933333333338,17.5,False
1607124710.0492442,9.335756895406666,-2.1220946629983333,2.3182263554449998,-25.365083333333335,-3.4337916666666684,-7.836208333333333,0.43754666666666664,0.24430000000000002,-0.15344933333333338,17.5,False
1607124710.061026,9.307262366278334,-2.165923196955,2.2947168733999996,-24.996416666666665,-4.292750000000001,-9.187791666666667,0.43777999999999995,0.24334800000000004,-0.15354733333333337,17.5,False
1607124710.0693922,9.223633216408333,-2.227099694761667,2.2575483623466663,-24.76920833333333,-5.184666666666668,-10.448083333333333,0.4380319999999999,0.24242400000000006,-0.15354733333333337,17.5,False
1607124710.077863,9.12335400928,-2.2624935290533332,2.245823531606667,-24.66975,-6.240791666666668,-11.417291666666667,0.438284,0.24150000000000008,-0.15354733333333337,17.5,False
1607124710.086356,9.023513486295,-2.29579364357,2.2468404812116662,-24.370791666666666,-7.2041666666666675,-12.788416666666668,0.4381533333333333,0.24107066666666674,-0.15349133333333337,17.5,False
1607124710.094792,8.930412746966665,-2.318086774126667,2.256391831423333,-23.774625,-7.8420416666666695,-14.625041666666666,0.43802266666666667,0.2406413333333334,-0.15349133333333337,17.5,False
1607124710.1030958,8.860681908364997,-2.344288181596667,2.2542183508949996,-22.573249999999998,-8.159083333333335,-17.298750000000002,0.43789199999999995,0.24021200000000012,-0.15349133333333337,17.5,False
1607124710.111569,8.784729731003331,-2.3839292760033337,2.2315064763833328,-20.426291666666668,-8.427708333333333,-20.957416666666667,0.43749066666666664,0.23984800000000012,-0.1536126666666667,17.5,False
1607124710.1198568,8.712147445469999,-2.418405861631667,2.175494487355,-17.356791666666663,-8.778291666666668,-25.485833333333336,0.4370893333333334,0.2394840000000001,-0.1536126666666667,17.5,False
1607124710.1288998,8.649615014856664,-2.4353949020916663,2.089971019593333,-13.673041666666666,-9.210250000000002,-30.698791666666672,0.436688,0.2391200000000001,-0.1536126666666667,17.5,False
1607124710.1371968,8.607581097849998,-2.4047268924349994,1.9936000893783332,-10.581958333333334,-9.745458333333334,-36.63829166666667,0.43618399999999996,0.23977333333333342,-0.1535006666666667,17.5,False
1607124710.1457248,8.570292945666665,-2.349552391316666,1.896750594643333,-8.713833333333335,-10.121708333333334,-43.37666666666667,0.43567999999999996,0.24042666666666676,-0.1535006666666667,17.5,False
1607124710.1541996,8.51290508364333,-2.296710892233333,1.8285750907316662,-7.886083333333333,-10.669458333333331,-50.557500000000005,0.43517599999999995,0.24108000000000007,-0.1535006666666667,17.5,False
1607124710.1627536,8.451748526024998,-2.2495722870133332,1.8087944239049998,-7.588000000000002,-11.453166666666666,-57.72170833333334,0.43366399999999994,0.24287200000000006,-0.15360800000000005,17.5,False
1607124710.1713305,8.420083506951665,-2.2144376751699992,1.8312869563449998,-7.623000000000003,-12.343916666666667,-64.53329166666667,0.4321519999999998,0.2446640000000001,-0.15360800000000005,17.5,False
1607124710.1797595,8.430731567521665,-2.1653648716816667,1.8822141973483333,-7.881416666666669,-12.842958333333334,-71.12845833333334,0.43063999999999986,0.2464560000000001,-0.15360800000000005,17.5,False
1607124710.1883385,8.604709710729999,-2.083490458385,1.9142780201883332,-7.700583333333337,-13.331791666666668,-77.94062500000001,0.42837199999999986,0.24885466666666672,-0.15325800000000006,17.5,False
1607124710.1968985,8.746364808649998,-1.9556738511683334,1.9517456340666668,-6.727875000000002,-13.832291666666668,-85.35479166666667,0.4261039999999999,0.25125333333333333,-0.15325800000000006,17.5,False
1607124710.2052083,8.973682955649998,-1.8039888385166667,1.9420148221600002,-5.320000000000001,-14.410375,-93.33595833333335,0.423836,0.253652,-0.15325800000000006,17.5,False
1607124710.2137275,9.238010092196667,-1.6725630572116665,1.9056638588283332,-3.869250000000001,-15.567708333333334,-101.53033333333335,0.4203266666666667,0.2567973333333333,-0.15331866666666671,17.5,False
1607124710.2223144,9.541140835239998,-1.5796417795783335,1.8548961393316665,-3.096916666666667,-17.708250000000003,-109.47183333333334,0.4168173333333333,0.25994266666666666,-0.15331866666666671,17.5,False
1607124710.2307653,9.867342376184999,-1.532423413605,1.8462819779716666,-3.3955833333333327,-19.892541666666666,-116.56458333333335,0.41330799999999995,0.263088,-0.15331866666666671,17.5,False
1607124710.2391043,10.216873937479997,-1.4629916778283332,1.8809779056716667,-5.3272916666666665,-21.928958333333338,-122.57554166666668,0.4090613333333334,0.2668866666666666,-0.1536406666666667,17.5,False
1607124710.2475061,10.587920961986665,-1.3790434849449997,1.9309280774466666,-8.181249999999999,-23.71483333333334,-127.8386666666667,0.4048146666666667,0.2706853333333334,-0.1536406666666667,17.5,False
1607124710.2561562,10.976555232603333,-1.2467602755416665,1.9560925951233332,-11.577416666666666,-25.11891666666667,-133.08283333333333,0.40056800000000004,0.274484,-0.1536406666666667,17.5,False
1607124710.264707,11.382996091401667,-1.081396293693333,1.92191511232,-15.446375000000002,-26.188166666666675,-139.01795833333333,0.3952480000000001,0.2779933333333334,-0.1542846666666667,17.5,False
1607124710.273144,11.796675238564998,-0.9056434737233331,1.7861024895816666,-20.05529166666667,-27.065791666666666,-145.89516666666668,0.3899280000000001,0.2815026666666667,-0.1542846666666667,17.5,False
1607124710.283708,12.208938632356665,-0.7042076911799998,1.5442878256633332,-25.736083333333337,-28.016041666666673,-153.58058333333332,0.3846080000000001,0.28501200000000004,-0.1542846666666667,17.5,True
1607124710.292561,12.617792253943332,-0.5198008294733332,1.2363116168550001,-33.24241666666667,-30.257208333333338,-161.90095833333334,0.37894266666666676,0.287644,-0.1555586666666667,17.5,True
1607124710.3009548,13.023973890293332,-0.33467612098666655,0.9560921502066667,-41.945166666666665,-33.93745833333334,-169.943375,0.37327733333333346,0.29027600000000003,-0.1555586666666667,17.5,True
1607124710.30933,13.426207369353333,-0.09974082204333294,0.7302495771433333,-50.82495833333334,-38.596250000000005,-177.3905,0.36761200000000016,0.292908,-0.1555586666666667,17.5,True
1607124710.317766,13.828620310108333,0.2090728746750005,0.5962315713549999,-59.94770833333334,-43.561,-184.61566666666664,0.3602106666666668,0.2943266666666666,-0.15628200000000003,17.5,True
1607124710.326408,14.238849804689998,0.5991627790400001,0.5098706156833333,-69.059375,-48.458666666666666,-192.2205833333333,0.3528093333333334,0.2957453333333333,-0.15628200000000003,17.5,True
1607124710.3348827,14.630794146569999,1.0601799333066668,0.42313079643333307,-78.26700000000001,-52.81441666666667,-199.80741666666663,0.3454080000000001,0.2971639999999999,-0.15628200000000003,17.5,True
1607124710.3432097,14.809577875166665,1.5398411636649998,0.3232105126949999,-87.77970833333335,-56.57691666666667,-207.16062499999998,0.3365600000000001,0.29642666666666656,-0.15699600000000002,17.5,True
1607124710.3516698,14.736497084924999,2.0230118671699997,0.2294318069633333,-97.342875,-60.31550000000001,-214.22829166666665,0.327712,0.2956893333333333,-0.15699600000000002,17.5,True
1607124710.3600476,14.360026329191664,2.467079861353333,0.1752941956383332,-107.03845833333335,-64.45891666666667,-220.75754166666667,0.3188639999999999,0.29495199999999994,-0.15699600000000002,17.5,True
1607124710.3686287,13.661421830933332,2.8411777346749996,0.23465613630666657,-117.06420833333338,-69.21104166666667,-226.61041666666668,0.3088213333333332,0.2918159999999999,-0.15707066666666672,17.5,True
1607124710.3771856,12.71308641398833,3.3048868143666663,0.4367300048766666,-127.57966666666671,-73.76250000000002,-230.6905416666667,0.2987786666666665,0.28867999999999994,-0.15707066666666672,17.5,True
1607124710.3856964,11.744292363813333,3.878366630833333,0.6727021936133333,-136.88937500000006,-76.77979166666668,-232.4624166666667,0.28873599999999994,0.28554399999999996,-0.15707066666666672,17.5,True
1607124710.3941956,10.759207179769998,4.527599222778333,0.8510871184433331,-145.38416666666672,-78.03891666666668,-233.20033333333336,0.2785626666666667,0.2796266666666666,-0.15741600000000003,17.5,True
1607124710.4026937,9.784690295543331,5.2214579562133325,0.8600003826283331,-155.34400000000005,-78.65929166666668,-234.75258333333338,0.26838933333333337,0.27370933333333336,-0.15741600000000003,17.5,True
1607124710.4114304,8.844789578263333,5.925027561366666,0.8855836442599997,-165.2530833333334,-81.85187500000002,-237.1352083333334,0.2582160000000001,0.26779200000000003,-0.15741600000000003,17.5,True
1607124710.4197567,7.908059350928331,6.62177762211,1.2602398428549997,-175.04608333333337,-89.53437500000001,-239.62662500000005,0.24868666666666678,0.25742266666666674,-0.1568326666666667,17.5,True
1607124710.4282253,6.950511566973332,6.972246372256666,1.8001603223566667,-184.66116666666673,-98.36487500000003,-242.58383333333344,0.23915733333333342,0.24705333333333337,-0.1568326666666667,17.5,True
1607124710.4367313,5.947659675124998,6.885327091311666,2.3294128010999997,-194.0548750000001,-107.57454166666669,-245.82716666666678,0.22962800000000008,0.23668400000000003,-0.1568326666666667,17.5,True
1607124710.4452603,4.870769863994998,6.337290955158332,2.874697191263334,-198.68800000000007,-115.3532916666667,-248.90716666666677,0.21910933333333343,0.22314133333333339,-0.1551246666666667,17.5,True
1607124710.4536705,3.7277783285399986,5.618287644234999,3.4422747119833335,-193.65704166666674,-119.8884166666667,-248.60091666666676,0.20859066666666679,0.20959866666666674,-0.1551246666666667,17.5,True
1607124710.4622543,2.5252653309099986,4.876771860683332,4.0396428740733334,-184.46808333333337,-122.23662500000002,-240.50220833333344,0.19807200000000014,0.19605600000000006,-0.1551246666666667,17.5,True
1607124710.4738572,1.2964911052449983,4.147957977099998,4.56921439583,-175.00758333333337,-123.1267916666667,-223.8559166666668,0.18851466666666675,0.18303600000000006,-0.15532533333333337,17.5,True
1607124710.482937,0.06101697629999876,4.181517314064999,5.030450892168333,-164.8581666666667,-121.6777916666667,-206.50058333333345,0.1789573333333334,0.17001600000000006,-0.15532533333333337,17.5,True
1607124710.4912372,-1.0659426477350005,4.6366919931499995,5.417529828095,-153.74479166666666,-118.1611666666667,-189.76562500000009,0.16940000000000005,0.15699600000000005,-0.15532533333333337,17.5,True
1607124710.499591,-2.120300046048334,5.11764933575,5.637529925976667,-141.22441666666666,-113.1237916666667,-176.3451666666667,0.16048666666666672,0.14653333333333338,-0.15648733333333337,17.5,True
1607124710.5081232,-3.1359934191833334,5.476313503301666,5.773721412293333,-127.97954166666666,-107.93387500000003,-164.31741666666673,0.15157333333333342,0.13607066666666673,-0.15648733333333337,17.5,True
1607124710.5166342,-4.174578128525,5.64323281984,5.91003253974,-114.68158333333334,-103.9992916666667,-152.22170833333342,0.1426600000000001,0.12560800000000005,-0.15648733333333337,17.5,True
1607124710.525046,-5.276931560156667,5.660979587456666,6.13412037623,-100.74050000000003,-102.01858333333335,-138.74962500000007,0.13524000000000005,0.11756266666666676,-0.15707066666666672,17.5,True
1607124710.5334847,-6.417749615083335,5.613242776586666,6.511149457236667,-85.90166666666669,-101.75287500000003,-123.53512500000008,0.12782000000000002,0.10951733333333341,-0.15707066666666672,17.5,True
1607124710.54196,-7.5998239196716675,5.539523900318332,7.035117786071667,-69.99883333333335,-102.732,-106.67854166666672,0.12040000000000002,0.10147200000000005,-0.15707066666666672,17.5,True
1607124710.5503137,-8.870093677258334,5.518865865204999,7.600481945886668,-52.20600000000004,-103.86512500000002,-88.73462500000005,0.11307333333333335,0.09792533333333339,-0.15656200000000003,17.5,True
1607124710.5588229,-10.079306578168335,5.5386265918433315,8.035158111365,-33.210625000000014,-104.95333333333333,-71.27487500000008,0.10574666666666666,0.09437866666666674,-0.15656200000000003,17.5,True
1607124710.567206,-11.259087761098332,5.483711313173332,8.337132323485,-14.097416666666714,-105.69270833333334,-55.25391666666672,0.09841999999999997,0.09083200000000005,-0.15656200000000003,17.5,True
1607124710.5757186,-12.449197961585002,5.314299473093332,8.483672767546667,4.981083333333275,-105.64983333333335,-39.68037500000006,0.0925493333333333,0.09271733333333336,-0.1542426666666667,17.5,True
1607124710.5842338,-13.658351041930002,4.975156749919999,8.523652845155,23.801749999999956,-104.68879166666667,-23.36395833333335,0.08667866666666664,0.09460266666666668,-0.1542426666666667,17.5,True
1607124710.5928345,-14.835699521883337,4.493282158656666,8.524809376078332,42.63641666666664,-103.00820833333336,-6.006583333333335,0.080808,0.096488,-0.1542426666666667,17.5,True
1607124710.6011546,-15.722958141963339,3.921058574054998,8.530931013896664,61.74962499999995,-100.7475,12.84208333333331,0.07691600000000001,0.10317066666666667,-0.15206333333333338,17.5,True
1607124710.6096566,-16.292410040386674,3.3687153572216646,8.499644858401663,80.8628333333333,-97.50825000000005,31.955291666666653,0.07302400000000003,0.10985333333333334,-0.15206333333333338,17.5,True
1607124710.6183295,-16.474523780435003,2.8852256107033316,8.385507220381664,99.97254166666663,-93.35375000000002,51.06849999999998,0.06913200000000003,0.11653600000000001,-0.15206333333333338,17.5,True
1607124710.6269546,-16.158272393468334,2.459402888844998,8.133762342673332,119.08574999999998,-88.55058333333336,70.18170833333332,0.06819866666666669,0.12698933333333334,-0.15051866666666672,17.5,True
1607124710.6352274,-15.442778555691666,1.9306489148099983,7.769355400881666,138.19312499999998,-83.97550000000001,88.25804166666667,0.06726533333333334,0.13744266666666669,-0.15051866666666672,17.5,True
1607124710.6436806,-14.59310719062,1.3490933220683325,7.399584548428333,155.609125,-80.58312500000001,104.75529166666668,0.066332,0.147896,-0.15051866666666672,17.5,True
