window size: 20,acc threshold: 14
time,aX,aY,aZ,gX,gY,gZ,faX,faY,faZ,fgX,fgY,fgZ,temp,punchReg,punchCount
0.08789658546447754,6.179464364499999,-6.173482308,3.9948173306999997,-48.4575,37.126250000000006,-7.945000000000001,6.691438670052499,-6.1882878978375,4.157349805805,-59.18631250000001,8.816937500000003,-21.609875000000002,16.5,False,0
0.09809255599975586,6.426523297949999,-5.977270854799999,3.9092739227499997,-48.5275,35.49,-5.0575,6.663352914784999,-6.183262970377501,4.056522243497499,-53.33825,22.41925,-11.336937500000001,16.5,False,0
0.10855340957641602,6.33679245045,-6.03051115765,3.6867414209499993,-47.626250000000006,37.31,-4.313750000000001,6.5202322130225,-6.138726559735001,3.4921750332875,-42.132999999999996,36.713687500000006,-8.3383125,16.5,False,0
0.1188344955444336,5.266004336949999,-5.7858450468,3.6185459768499992,-49.4025,38.815000000000005,-3.8850000000000002,6.521578175735,-6.153083495335,3.5009985666250003,-40.200125,38.45012500000001,-7.612937500000001,16.5,False,0
0.1290743350982666,6.1040904525999995,-5.660820065949999,3.6664024288499992,-54.88875,36.120000000000005,-5.425000000000001,6.451468473555001,-6.16438958212,3.4957941774699988,-39.82125,38.794000000000004,-6.882312500000002,16.5,False,0
0.13925933837890625,6.2644095667999995,-5.934200047999999,3.8775690232999995,-64.7325,35.026250000000005,-7.9887500000000005,6.54425016987,-6.0889857599375,3.5031820172475,-40.786375,38.273812500000005,-6.7086250000000005,16.5,False,0
0.14936232566833496,5.17507707815,-6.427719709249999,4.1401813036499995,-76.8075,41.04625,-7.140000000000001,6.5534924471625,-6.056592923989999,3.5193634800800004,-42.834312499999996,37.6420625,-6.8766250000000015,16.5,False,0
0.15958213806152344,6.3505511804,-5.633302606049999,4.2759739861999995,-84.4025,39.15625000000001,-7.402500000000001,6.548377788855002,-6.050909970314999,3.5666516367125007,-45.78306250000001,37.2045625,-6.981624999999999,16.5,False,0
0.16969037055969238,6.317051663999999,-5.645864924699999,4.6480579005,-86.9925,35.533750000000005,-6.20375,6.553552267727501,-6.0412489490675,3.6268909456675,-49.119875,36.690062499999996,-7.1080625,16.5,False,0
0.17980313301086426,6.1088760978,-5.46580502405,5.140979356100001,-85.53125000000001,34.063750000000006,-9.87875,6.523911177770001,-6.0075101504075,3.6959238776775,-52.25675,36.1169375,-7.308000000000002,17.5,False,0
0.18985629081726074,5.81754994625,-5.639882868199999,5.3347979867,-81.13875,30.178750000000004,-13.50125,6.547719762640002,-5.961119302249999,3.7898122544449997,-54.95,35.455,-7.678562500000001,17.5,False,0
0.19989490509033203,5.751149119099999,-5.630909783449999,5.22293353015,-73.22000000000001,22.785000000000004,-14.735000000000001,6.4910397773024995,-5.932405431049999,3.891686676639999,-57.179937500000015,34.7108125,-8.108187500000001,16.5,False,0
0.21014118194580078,5.87138845475,-5.725426276149999,5.0440700407999985,-63.35000000000001,22.715000000000003,-14.420000000000002,6.4367825248475,-5.9097334369149985,4.0056149426825,-58.70987500000001,33.7955625,-8.4678125,16.5,False,0
0.22032618522644043,5.718247808349999,-5.808576861499999,4.9328037898999995,-54.89750000000001,21.848750000000003,-14.778750000000002,6.3848582744275,-5.915057467199999,4.092623954475,-59.70737499999999,32.973062500000005,-8.8195625,16.5,False,0
0.2305619716644287,5.633302606049999,-6.0550375893,4.7012982033499995,-49.72625000000001,22.653750000000002,-14.568750000000001,6.316423548067499,-5.933571932067499,4.170001855302499,-60.206999999999994,32.243750000000006,-9.104812500000003,16.5,False,0
0.24318385124206543,5.564508956299999,-6.04367168195,4.21196598165,-49.682500000000005,25.208750000000002,-13.142500000000002,6.2827445699725,-5.921577908784999,4.237389721774999,-60.42881250000001,31.7349375,-9.349375,16.5,False,0
0.253842830657959,5.3736813539499995,-6.323033720499999,4.214957009899999,-52.325,22.566250000000004,-11.908750000000001,6.219095488812501,-5.92355198743,4.286681867335,-60.643187500000025,31.46981250000001,-9.510375,17.5,False,0
0.2640068531036377,5.342574660149999,-6.226124405199999,4.288536304849999,-55.04625000000001,18.462500000000002,-6.501250000000001,6.163013709125,-5.9216676396325,4.332175407017499,-60.86456250000001,31.150437500000002,-9.518250000000002,16.5,False,0
0.2741398811340332,5.6303115778,-5.782854018549999,4.527220359199999,-55.1075,15.496250000000002,-0.7087500000000001,6.114200128084999,-5.9104811939775,4.370759671442499,-61.243437500000006,30.663062500000002,-9.239562500000002,16.5,False,0
0.28426575660705566,5.99581522995,-5.2965128251,4.622335057549999,-53.44500000000001,15.295000000000002,1.6975000000000002,6.055904987492499,-5.86253501113,4.365256179462499,-61.60306250000001,29.918437500000003,-8.7775625,16.5,False,0
0.2944788932800293,6.914659108349999,-5.3066823211499985,5.6231331099999995,-48.99125000000001,22.330000000000002,1.1462500000000002,6.059883055065,-5.8164432657975,4.415684915757499,-61.83493750000001,28.980874999999997,-8.274000000000001,16.5,False,0
0.3047158718109131,6.52103979065,-4.8203411277,4.718646167199999,-44.563750000000006,22.37375,-2.31,6.0502818543825,-5.7540504165024995,4.448376854529998,-61.78156250000002,28.4414375,-7.973875000000001,16.5,False,0
0.3148765563964844,6.546762633599999,-5.0093741131,4.7533420949,-42.56875,16.21375,-0.23625000000000002,6.0383177413825,-5.690072322234999,4.491567302459998,-61.586875000000006,27.56293750000001,-7.836500000000001,17.5,False,0
0.3249657154083252,6.7393848529,-5.24805816745,4.803591369499999,-39.87375,15.575000000000001,1.11125,6.059733503652501,-5.6516974297875,4.5453160801124985,-61.23906250000001,26.463937500000007,-7.619062500000001,17.5,False,0
0.33507752418518066,6.826722877799999,-5.2067819775999995,4.8466621763,-39.7775,17.82375,3.7187500000000004,6.0833028062625,-5.62983301328,4.601936244884999,-60.650187500000015,25.331250000000004,-7.278250000000002,17.5,False,0
0.3452415466308594,7.036094855299999,-5.189434013749999,4.838885502849999,-43.566250000000004,18.22625,4.3925,6.11318317848,-5.606562813494999,4.649284222082499,-59.740187500000005,24.511375000000008,-6.73575,17.5,False,0
0.3553755283355713,7.140182638399999,-4.970490745849999,4.901098890449999,-48.92125000000001,17.28125,4.768750000000001,6.1452170910375,-5.561906761722499,4.692235387752499,-58.53400000000001,23.52787500000001,-6.037937500000001,17.5,False,0
0.36553144454956055,7.038487677899999,-4.9375894351,5.2067819775999995,-50.776250000000005,16.1525,3.9987500000000002,6.1758452203175,-5.499663463839999,4.736233413309999,-57.002312500000016,22.316875000000007,-5.467437500000001,16.5,False,0
0.37566637992858887,7.060621286949999,-4.89033118875,5.3156554058999985,-48.9825,16.117500000000003,3.4125000000000005,6.223582031187499,-5.457729247775,4.7673700173924995,-55.230000000000004,21.21568750000001,-4.978750000000001,16.5,False,0
0.38585734367370605,6.9906312259,-4.89870606785,5.3946185517,-46.033750000000005,15.155000000000001,2.975,6.234648835712499,-5.4559047205425,4.7952464006825,-53.283125,20.315750000000005,-4.360125000000002,16.5,False,0
0.3960871696472168,6.90269499535,-4.98006203625,5.540580730299999,-41.85125000000001,16.563750000000002,3.1587500000000004,6.2733826515499995,-5.420520856344999,4.8216870904125,-51.2334375,19.498062500000007,-3.629937500000002,17.5,False,0
0.40630125999450684,7.401598507449998,-4.881358103999999,5.297111030749999,-35.525000000000006,19.328750000000003,2.54625,6.298208186024999,-5.377719242087499,4.816303239562499,-49.2795625,19.004125000000002,-2.779437500000001,17.5,False,0
0.41655635833740234,6.839883402099999,-4.94058046335,5.136193710899999,-30.485000000000003,17.4475,3.0975,6.343342802317499,-5.337968476644999,4.8195335500724985,-47.593875000000004,18.787125000000003,-1.921500000000001,17.5,False,0
0.42681121826171875,6.61196704945,-4.9441696972499996,4.92024147125,-26.41625,16.72125,3.6312500000000005,6.388567149457499,-5.299025288829999,4.824947311204999,-46.0411875,18.509312500000004,-1.0486874999999998,17.5,False,0
0.43701601028442383,6.4462640844,-4.858028083649999,4.73599413105,-24.59625,15.671250000000002,5.468750000000001,6.43047145524,-5.2469514869975,4.828985199342499,-44.696749999999994,18.244187500000002,-0.09318749999999998,16.5,False,0
0.4478440284729004,6.372086583799999,-4.6576291909,4.5236311253,-23.896250000000002,11.051250000000001,5.390000000000001,6.475755622945,-5.1813283271924995,4.831916407027499,-43.44156250000001,17.7113125,0.8960000000000005,16.5,False,0
0.45797109603881836,6.37507761205,-4.744967215799999,4.36630303935,-23.485000000000003,8.9075,5.075,6.519185353134999,-5.103591502975,4.842205544207499,-42.1255625,16.979374999999997,1.7985624999999998,16.5,False,0
0.4680628776550293,6.102295835649999,-4.80060034125,4.4697926167999995,-22.05,8.023750000000001,3.7450000000000006,6.56399095632,-5.02875597616,4.847709036187499,-40.6,16.347625,2.5130000000000003,16.5,False,0
0.47838783264160156,6.0478591215,-4.813760865549999,4.42253437045,-17.255000000000003,7.140000000000001,4.9,6.587859361754999,-4.96726043534,4.852733963647499,-38.8521875,15.886500000000002,2.9041250000000005,16.5,False,0
0.4886019229888916,5.958726479649999,-4.70010179205,4.400400761399999,-7.51625,4.305000000000001,6.956250000000001,6.602006925377499,-4.929394017695001,4.843910430309999,-36.812125,15.4175,3.179312500000001,17.5,False,0
0.4988138675689697,5.81754994625,-4.624727880149999,4.4207397534999995,2.345,3.6575,6.588750000000001,6.5900428123775,-4.903970277570001,4.8331726388925,-34.3345625,14.849625000000003,3.4418125,17.5,False,0
0.5089700222015381,5.65603442075,-4.510470601,4.4141594913499995,11.165000000000001,2.5200000000000005,7.3325000000000005,6.5677297416325,-4.891348138355,4.82261430917,-31.658812500000003,13.704250000000002,3.7979375000000006,17.5,False,0
0.5194168090820312,5.640481073849999,-4.322035821249999,4.247260115,12.451250000000002,4.165,8.33,6.5263937312175,-4.86640296275,4.807958270745,-28.899062499999996,12.907562500000003,4.2861875,17.5,False,0
0.5295467376708984,5.85942434175,-4.13659206975,3.9966119476499995,11.68125,5.223750000000001,7.74375,6.4773408679175,-4.818367049055,4.774279292649999,-26.233812500000006,12.369875,4.701812500000001,16.5,False,0
0.5396997928619385,6.020939867249999,-4.1587256788,3.736392489899999,7.717500000000001,3.22,6.39625,6.435047728462498,-4.7654258490300005,4.721338092625,-23.743562500000003,11.815125000000002,4.919250000000001,16.5,False,0
0.5497486591339111,6.0598232345,-4.2006000743,3.7483566029,2.9575000000000005,-0.8487500000000001,5.643750000000001,6.3910796131874985,-4.711078865727499,4.667170571017499,-21.420437500000002,10.983875000000001,5.000625000000001,16.5,False,0
0.559795618057251,6.0382878311,-4.2699919297,3.9912280968,0.9275000000000001,-3.9637500000000006,5.3375,6.343372712599999,-4.668037969209999,4.6185962722374985,-19.0413125,9.942625000000001,5.042187500000001,16.5,False,0
0.5698676109313965,5.97667264915,-4.4362931003999995,4.3932222936,3.21125,-6.711250000000001,6.553750000000001,6.284599007487499,-4.634568363092498,4.578725865664999,-16.438625000000002,8.8571875,5.077187500000001,17.5,False,0
0.5799174308776855,5.9527444231499995,-4.529613181799999,4.8011985469,7.910000000000001,-7.638750000000001,10.1325,6.225316827572498,-4.613541434494999,4.5441196688125,-13.6723125,7.680312500000001,5.310812500000001,17.5,False,0
0.5899336338043213,6.134598940749999,-4.553541407799999,4.95493739895,14.918750000000001,-4.3925,12.88,6.170581010597498,-4.5799820975299985,4.5197128782925,-10.723562500000002,6.565125,5.750062500000001,17.5,False,0
0.6000404357910156,6.3846489024499995,-4.2795632201,4.9555356046,20.04625,-3.0450000000000004,12.652500000000002,6.130531142329998,-4.550640110397499,4.49240479037,-7.6466249999999985,5.6179375,6.269812500000002,16.5,False,0
0.6234183311462402,6.8638116281,-4.3298124947,4.5810588676999995,21.157500000000002,-5.0575,7.9975000000000005,6.1410894720524976,-4.530600221122498,4.4817567298,-4.588937499999998,4.605125,6.754562500000001,17.5,False,0
0.645362377166748,7.076772839499999,-4.9100719752,5.08056058545,14.533750000000001,-14.21,8.085,6.149075517479998,-4.507120649359999,4.4502013817625,-2.0877499999999976,3.050687500000001,6.976812500000001,16.5,False,0
0.6657900810241699,7.610970484949999,-4.73719054235,5.457430144950001,17.2025,-11.217500000000001,10.955000000000002,6.167799354324998,-4.505445673539999,4.461028904027499,0.05950000000000113,1.5767500000000005,7.413000000000001,17.5,False,0
0.6877622604370117,7.393821834000001,-5.059025182049999,5.3994041969,23.4675,-2.19625,4.733750000000001,6.226214136047497,-4.504368903369999,4.490640083702498,2.427250000000001,0.41868750000000005,7.5849375000000006,16.5,False,0
0.7034261226654053,7.411169797849999,-5.291128974249999,4.963312278049999,22.4875,-7.95375,3.8500000000000005,6.283492327034998,-4.515764721002499,4.521118661569998,4.847500000000002,-0.2926875000000003,7.4532500000000015,16.5,False,0
0.7199039459228516,7.417151854349999,-5.62373131565,4.89870606785,19.34625,-11.620000000000001,8.925,6.339185273049999,-4.56478767402,4.543521463162499,7.096687500000002,-1.3054999999999999,7.436187500000001,17.5,False,0
0.7426519393920898,7.8765737935499995,-5.18105913465,4.6803610056,14.84875,-11.593750000000002,7.5075,6.4061543955674995,-4.607529467712499,4.567270227467498,9.011187500000002,-2.293375,7.634375000000001,16.5,False,0
0.7528269290924072,7.931010507699999,-4.9986064114,4.3920258823,11.908750000000001,-9.765,5.71375,6.50417039132,-4.623561379132499,4.571756769842499,10.735812500000002,-3.2388125000000003,7.749437500000002,16.5,False,0
0.7629656791687012,7.8257263133,-4.70847667115,4.1491543884,9.49375,-9.7825,4.62,6.597669934414999,-4.630111731,4.565924264755,11.975687500000001,-4.003125000000001,7.7074375,16.5,False,0
0.7733819484710693,7.7347990545,-4.51705086315,3.8835510797999997,5.232500000000001,-10.75375,5.7225,6.6902721690349995,-4.63178670682,4.5451366184175,12.5418125,-4.756500000000001,7.572687499999999,16.5,False,0
0.7834768295288086,7.403991330049998,-4.649852517449999,3.7435709577,3.0625000000000004,-10.33375,2.45,6.78915556298,-4.622125685572501,4.521357943830001,12.461749999999999,-5.41625,7.571374999999999,17.5,False,0
0.7936055660247803,7.164709070049999,-4.807180603399999,3.9511483182499996,-0.22750000000000004,-13.2825,1.7500000000000002,6.8794547058475,-4.6367817239975,4.494947164382501,11.962124999999999,-6.242687500000001,7.2935625,17.5,False,0
0.8037276268005371,6.936194511749999,-4.935794818149999,4.09830690815,-1.1375000000000002,-14.306250000000002,4.235,6.945586340454999,-4.669473662770001,4.492135597827501,11.316374999999997,-7.156625,6.989937499999999,17.5,False,0
0.8140137195587158,6.8374905795,-4.983651270149999,4.13300283585,-0.48125000000000007,-14.717500000000001,4.89125,6.993951267257499,-4.70943380019,4.506671995122501,10.764687499999997,-8.1545625,6.860437499999999,17.5,False,0
0.8242385387420654,6.784250276649998,-5.1996035098,4.146761565799999,0.14875000000000002,-14.131250000000001,5.678750000000001,7.032924365355001,-4.752713978967501,4.527908295697501,10.486874999999998,-8.956062500000002,6.805750000000001,17.5,False,0
0.8345036506652832,6.807580296999999,-4.9579284272,4.1012979364,2.56375,-13.658750000000001,7.385000000000001,7.059514606497499,-4.790131742375,4.540949178867501,10.471124999999999,-9.505125000000003,6.856937499999999,17.5,False,0
0.8447234630584717,6.2536418651,-5.0500520973,4.27298295795,4.576250000000001,-11.585,8.16375,7.1572614097075,-4.791447794805,4.536731829035,10.523187499999999,-9.968437500000002,6.849062499999998,17.5,False,0
0.8548414707183838,6.63230604155,-4.59960324285,4.29691118395,3.21125,-12.302500000000002,6.65,7.2276103941475,-4.814000147809999,4.5115772814524995,10.445312499999998,-10.2195625,6.800937499999999,16.5,False,0
0.8648993968963623,6.8949183219,-4.6366919931499995,4.0444683996499995,3.98125,-10.0975,6.65875,7.273492767502502,-4.8434617760725,4.475714852735,10.062937499999999,-10.4698125,6.5419375,16.5,False,0
0.8749063014984131,6.91944475355,-4.3806599749499995,3.86739952725,6.65,-6.83375,6.4575000000000005,7.310402056107502,-4.85324243845,4.4253758472874996,9.419812499999999,-10.726625,6.209874999999999,16.5,False,0
0.8849203586578369,6.75673281675,-4.2652062845,3.5796626096,6.0025,-4.85625,6.046250000000001,7.328766969562501,-4.852225488845,4.368875323644999,8.641937499999997,-10.928749999999999,5.919812499999999,16.5,False,0
0.8956303596496582,6.866802656349999,-4.2693937240499995,3.3314072648499997,0.35000000000000003,-5.696250000000001,6.361250000000001,7.322156797130002,-4.8422653647725,4.313361839324999,7.990499999999997,-10.539812500000002,5.86775,16.5,False,0
0.905982255935669,6.8135623535,-4.12821719065,3.5072797259499997,-8.758750000000001,-6.965000000000001,5.223750000000001,7.309594478479999,-4.805146704189999,4.219204270015,7.1176875,-10.254125000000002,5.586,17.5,False,0
0.9163882732391357,6.81057132525,-4.0725840652,3.8488551520999996,-10.298750000000002,-7.805000000000001,3.77125,7.266463851115001,-4.768357056715,4.128277011214999,5.60175,-10.277312500000003,5.420187499999999,16.5,False,0
0.9267041683197021,6.964908382949999,-3.8392838617,4.1120656381,-9.415000000000001,-6.755000000000001,2.9400000000000004,7.230511691549998,-4.71924437285,4.067469406892499,3.8364375,-10.6404375,5.442937499999999,16.5,False,0
0.9371671676635742,6.9140609027,-3.5581272061999996,4.38424920885,-2.415,-6.816250000000001,0.6825000000000001,7.201827730632499,-4.6256550989075,4.0354953148999995,2.4784375,-10.592750000000002,5.3221875,16.5,False,0
0.9473891258239746,6.976872495949999,-3.5228330728499992,4.334598139899999,3.3950000000000005,-5.897500000000001,-4.305000000000001,7.174758924969998,-4.5231226504975,4.013780449805001,1.7701250000000002,-10.402437500000003,4.878125,16.5,False,0
0.9577891826629639,7.0313092101,-3.5934213395499994,4.2173498325,5.250000000000001,-1.6887500000000002,-6.8425,7.1262743570375,-4.4411086558825,4.000530194657501,1.4105000000000005,-10.021812500000003,4.3588125,16.5,False,0
0.9681739807128906,6.9355963061,-4.1120656381,4.13061001325,4.15625,2.8262500000000004,-10.902500000000002,7.084070948429998,-4.388586199812501,3.9924245081,1.1160625000000006,-9.547125000000003,3.6277500000000003,16.5,False,0
0.9787049293518066,6.84646366425,-4.331008905999999,4.166502352249999,2.3975000000000004,6.606250000000001,-12.355,7.038039023662501,-4.368097656300001,3.9990346805325006,0.8837500000000004,-8.758750000000001,2.820125,16.5,False,0
0.9889819622039795,7.08454951295,-4.3495532811499995,4.1359938641,2.66,6.16875,-12.766250000000001,6.9975405011575,-4.366632052457501,4.010370677599999,0.7975625000000003,-7.906499999999999,1.8672499999999999,16.5,False,0
0.9994239807128906,7.3651079628,-4.3298124947,4.195216223449999,3.5262500000000006,4.4625,-15.216250000000002,6.984828631094999,-4.3459939575325,4.026163306759999,0.8575000000000002,-6.979874999999998,1.0521875,17.5,False,0
1.0098838806152344,7.557131976449999,-4.378267152349999,4.28973271615,5.29375,5.06625,-18.637500000000003,7.006393944777498,-4.3191943444125,4.0360037897025,1.0710000000000002,-5.968374999999999,0.08531249999999897,17.5,False,0
1.0203626155853271,7.746763167499999,-4.47517646765,4.2693937240499995,7.918750000000001,4.541250000000001,-20.685000000000002,7.0438117081849985,-4.292005897619999,4.045425528689999,1.40875,-4.977874999999999,-1.141,16.5,False,0
1.0309178829193115,7.835895809349999,-4.7258246349999995,4.41894513655,10.815000000000001,4.41,-22.04125,7.091847621879998,-4.27059013535,4.051048661799999,1.8821250000000003,-4.034625,-2.4705625,16.5,False,0
1.0413026809692383,7.820342462449999,-5.1505506465,4.15932388445,10.797500000000001,6.282500000000001,-21.892500000000002,7.1485276072175,-4.268167402467499,4.05978246429,2.3926875,-3.08525,-3.8832500000000003,16.5,False,0
1.051741600036621,7.948956677199999,-5.663811094199999,3.83748924475,6.1775,8.478750000000002,-20.44,7.140721023484998,-4.321317974469999,4.0610985167199996,2.7374375000000004,-2.0286874999999998,-5.1996875000000005,17.5,False,0
1.0623795986175537,8.18524790895,-6.010172165549999,3.6299118841999998,-3.5787500000000003,10.36875,-19.582500000000003,7.1746392838399995,-4.366661962739999,4.050480366432499,2.6814375000000004,-0.9161249999999985,-6.555937499999999,17.5,False,0
1.0727636814117432,8.44127992715,-6.255436482049999,3.4522448061499995,-13.361250000000002,7.166250000000001,-19.153750000000002,7.2486074124624995,-4.431088711245001,4.0210187381699996,2.1021875000000003,0.1378124999999998,-7.865375,17.5,False,0
1.0831255912780762,8.3928252695,-6.464210253899999,3.7812579136499997,-18.3575,-1.11125,-18.585,7.323413028994999,-4.5216271363725,3.9961333831299997,1.0517500000000006,0.7546875000000005,-9.127125000000001,16.5,False,0
1.0935685634613037,8.13499863435,-6.6771714653,4.20359110255,-17.902500000000003,-7.883750000000001,-15.986250000000002,7.3962445668824985,-4.635794684675,4.00307256867,-0.20474999999999985,0.7997500000000002,-10.3569375,16.5,False,0
1.1040735244750977,7.829913752849999,-6.710670981699999,4.8000021356,-12.783750000000001,-6.790000000000001,-2.5987500000000003,7.456334324424998,-4.760221459875,4.053890138637501,-1.2236875000000005,0.5840624999999998,-11.355750000000002,16.5,False,0
1.1283605098724365,7.824529902,-6.4833528347,4.6366919931499995,-9.7825,-4.322500000000001,-1.9250000000000003,7.5048188923575,-4.876273355975,4.1205900686125,-1.621375,0.6002500000000001,-11.7333125,16.5,False,0
1.1387462615966797,7.633104094,-6.397809426749999,4.5260239479,-13.02875,-0.7350000000000001,-2.7125000000000004,7.5498637778025,-4.9922355212275,4.1708393432125,-1.71325,0.8229375000000001,-12.095562500000002,16.5,False,0
1.1493632793426514,7.195217558199999,-6.262016744199999,4.5595234643,-16.861250000000002,1.0762500000000002,-0.31500000000000006,7.57974415002,-5.111577548402499,4.197369763789999,-1.8821250000000003,1.2263124999999997,-12.359812500000002,17.5,False,0
1.159825086593628,6.976274290299999,-5.9659049474499986,4.53260421005,-17.9375,2.6162500000000004,1.7850000000000001,7.5942506370325,-5.2300222671025,4.21220526391,-2.4675000000000002,1.7919999999999998,-12.452125000000002,17.5,False,0
1.1702191829681396,6.884150620199999,-5.7948181315500005,4.693521529899999,-17.28125,-0.74375,3.4650000000000003,7.586174860757501,-5.349543755972499,4.2215073617674985,-3.4356875000000002,2.2505,-12.328750000000003,17.5,False,0
1.1806092262268066,6.5982083195,-5.8612189587,4.7473600384,-16.38875,1.7500000000000002,6.763750000000001,7.579504867760001,-5.4697830916225,4.2396030826799995,-4.6090625,2.3970625,-11.899125000000002,17.5,False,0
1.1910080909729004,6.2907306154,-5.791827103299999,4.862813728849999,-13.04625,8.155000000000001,9.2225,7.5515387536225,-5.572943655965,4.2777985134325,-5.5846875,2.592625000000001,-11.046875000000002,17.5,False,0
1.2012169361114502,6.57009265395,-5.6219366987,4.53140779875,-11.418750000000001,14.42875,12.276250000000001,7.5249186021975,-5.6472707079774995,4.3124346205675,-6.3625625,2.8844375,-9.909812500000001,17.5,False,0
1.2113900184631348,6.98524737505,-5.359922623999999,4.117449488949999,-11.383750000000001,19.60875,12.346250000000001,7.511698257332499,-5.707270734672499,4.318865331305,-7.122937500000001,3.3779375000000003,-8.66075,17.5,False,0
1.221740961074829,7.3914290114,-5.164309376449999,3.7812579136499997,-11.506250000000001,28.831250000000004,13.825000000000001,7.513403143434999,-5.745316614012499,4.31210560746,-7.8238125,4.2669375,-7.313250000000001,16.5,False,0
1.23223876953125,7.651050263499999,-4.9483571367999994,3.0915267991999995,-9.773750000000001,32.2175,11.856250000000001,7.50604521394,-5.778576848152499,4.2648174508275,-8.5509375,5.5199375,-5.829249999999999,17.5,False,0
1.2426629066467285,7.341777942449999,-5.033900544749999,3.0430721415499997,-7.07,27.720000000000002,10.281250000000002,7.500272529417499,-5.801787227372499,4.20155720334,-9.281562500000001,6.8180000000000005,-4.244187500000001,17.5,False,0
1.2529349327087402,6.964310177300001,-5.252245607,3.3403803495999997,-5.31125,25.36625,9.791250000000002,7.469973413245,-5.833671588517499,4.1446678460249995,-10.048062499999999,7.900812500000001,-2.6998124999999993,16.5,False,0
1.2634048461914062,6.6987068686999995,-5.210969417149999,3.5246276897999995,-4.62875,29.863750000000003,13.11625,7.421847768702499,-5.8493744868299995,4.1012680261175,-10.843875,8.97925,-1.0661874999999998,16.5,False,0
1.2737786769866943,6.708278159099999,-4.9304109673,3.4444681327,-4.82125,32.243750000000006,15.618750000000002,7.3645396674325,-5.834449255862499,4.06959303695,-11.578875000000002,10.2011875,0.7424375000000001,16.5,False,0
1.2847435474395752,6.809374913949999,-4.63310275925,3.4827532943,-4.87375,33.39,15.435000000000002,7.3010102274025,-5.7977792495174985,4.0579280267749995,-11.926687500000003,11.3658125,2.5090624999999998,16.5,False,0
1.2952306270599365,6.79501797835,-4.50867598405,3.3954152693999995,-2.3975000000000004,34.588750000000005,14.918750000000001,7.219923451545,-5.7275199959249985,4.0517964188625,-11.729375000000001,12.60525,4.2564375000000005,16.5,False,0
1.3055667877197266,6.784848482299999,-4.563112698199999,3.3176485348999996,-1.6187500000000001,31.272500000000004,12.801250000000001,7.140332189812499,-5.637340494187499,4.0441992071075,-11.0263125,14.084437499999998,5.915000000000001,17.5,False,0
1.3162705898284912,6.7573310224,-4.767699030499999,3.4073793824000003,-2.765,30.712500000000002,10.613750000000001,7.0610400309050005,-5.540311537757499,4.01946340348,-10.2309375,15.856312500000001,7.381062500000001,16.5,False,0
1.326836347579956,6.796214389649999,-4.9136612091,3.33978214395,-3.115,29.566250000000004,11.873750000000001,7.0001726060175,-5.445854865622499,3.9618861096674998,-9.562875,17.852625000000003,8.633187500000002,16.5,False,0
1.3371655941009521,6.7609202562999995,-5.337789014949999,3.4438699270499993,-1.2862500000000001,25.208750000000002,13.895000000000001,6.9500429725475,-5.369763106942499,3.8928232673749994,-9.107000000000001,19.558437500000004,9.326625000000002,16.5,False,0
1.3476033210754395,6.6221365455,-5.4963135121999995,3.81715025265,-4.64625,23.957500000000003,17.902500000000003,6.89695222111,-5.320082127709999,3.8386557457674995,-8.706687500000001,20.9076875,10.217375,16.5,False,0
1.3579814434051514,6.812964147849999,-5.46700143535,4.0378881374999995,-9.59875,24.63125,24.71,6.860371945612501,-5.27581490961,3.8079677959225,-8.319500000000001,22.130062500000005,11.314625,16.5,False,0
1.3685262203216553,7.206583465549999,-5.364708269199999,4.5212383027,-18.558750000000003,21.8225,31.438750000000002,6.8540010554399995,-5.2429135988599995,3.7918461536550003,-8.103375000000002,23.212437500000004,12.6949375,16.5,False,0
1.3789904117584229,7.716852884999999,-4.92861635035,4.9842494758,-27.177500000000002,20.536250000000003,36.82,6.879065872175,-5.20486771952,3.7999817504949993,-8.323875000000001,24.204687500000002,14.272124999999999,16.5,False,0
1.389451265335083,8.4873417622,-4.7485564497,5.183451957249999,-31.911250000000003,20.65875,36.00625,6.946483648930001,-5.151268493279999,3.8229229371724998,-9.013375000000002,25.269125000000003,15.913625000000001,16.5,False,0
1.3999524116516113,9.102895376049998,-4.74436901015,5.085944436299999,-27.9125,19.153750000000002,32.01625000000001,7.063044019832501,-5.0926144292975,3.8359339100600005,-9.8599375,26.047875000000005,17.218250000000005,17.5,False,0
1.4105112552642822,8.897710838099998,-6.18245539275,3.30867545015,-10.85875,18.03375,30.703750000000003,7.2013192558300005,-5.040391076052499,3.8420056974075,-10.38275,26.439437500000004,18.270437500000003,17.5,False,0
1.4209949970245361,9.0711904766,-5.708676517949999,3.63170650115,-0.9275000000000001,10.815000000000001,30.975,7.352575554432501,-5.0183771081325,3.8637205625024995,-10.22175,26.4280625,19.108687500000002,16.5,False,0
1.431443214416504,9.297910417949998,-5.920441318049999,4.25264396585,-1.32125,2.0825,35.1225,7.461239610755001,-5.0377888814750005,3.8748471875925006,-9.806999999999999,25.655875,20.0423125,16.5,False,0
1.4418249130249023,9.4348995118,-5.64885595295,4.3238304382,-12.005,-2.6950000000000003,39.585,7.54983386752,-5.0872305784475,3.9114573733724995,-9.4250625,24.0988125,21.2331875,16.5,False,0
1.4524002075195312,9.5401837062,-5.433501918949999,4.2257247116,-28.017500000000002,-7.866250000000001,44.275000000000006,7.643004397507499,-5.108466879022499,3.9642789322675,-9.8914375,22.3181875,22.785437499999997,17.5,False,0
1.4628868103027344,9.319445821349998,-5.4771709314,4.1958144290999995,-43.89000000000001,-14.84875,43.7325,7.766743236209999,-5.119862696655,4.0207495456275,-11.328625,20.503,24.521875,17.5,False,0
1.4731130599975586,9.077770738749999,-5.40598445905,4.47039082245,-55.98250000000001,-22.715000000000003,46.103750000000005,7.8913494731050005,-5.1274898186925,4.069862229492499,-13.5856875,18.2485625,26.208,16.5,False,0
1.4834837913513184,8.772685857249998,-5.22054070755,4.9363930238,-63.73500000000001,-27.501250000000002,47.1625,8.006234868187498,-5.1333522340625,4.131028757205,-16.35725,15.413999999999998,27.824125000000002,16.5,False,0
1.493849754333496,8.42692299155,-4.8011985469,5.158925525599999,-65.31,-29.566250000000004,45.91125,8.0961152671,-5.1249175343975,4.203710743679999,-19.398312500000003,12.322187500000002,29.400875000000006,16.5,False,0
1.5043718814849854,7.760521897449999,-4.208974953399999,5.084149819349999,-61.862500000000004,-26.285000000000004,42.105000000000004,8.1704423191125,-5.122853724905,4.2968214531025,-22.424937500000006,9.166500000000001,30.828875000000004,17.5,False,0
1.514758825302124,7.546364274749999,-4.242474469799999,5.28873615165,-55.895,-25.261250000000004,36.0675,8.221050517102498,-5.1093641874974995,4.3946579871600004,-25.2826875,6.206375000000003,32.12387500000001,17.5,False,0
1.528418779373169,6.741179469849999,-3.9266218865999996,4.7994039299499995,-38.666250000000005,-20.895000000000003,31.237500000000004,8.237590903324998,-5.0833422417225,4.4789750735275,-27.547187500000007,3.575249999999998,33.25043750000001,17.5,False,0
1.5388288497924805,6.22432978825,-3.7471601916,4.79581469605,-34.9825,-22.802500000000002,25.698750000000004,8.243543049542499,-5.0387759207975,4.5535713180825,-29.114312500000004,0.890312499999997,34.10968750000001,16.5,False,0
1.5490946769714355,5.595017444450001,-3.64845625935,4.807180603399999,-38.79750000000001,-14.875000000000002,27.615000000000002,8.189465258782498,-4.966662229689999,4.6298724487400005,-30.835875000000005,-1.485312500000001,34.77643750000001,16.5,False,0
1.5593526363372803,5.1044888114499996,-3.19621278795,4.754538506199999,-43.09375000000001,-7.32375,29.776250000000005,8.128777295589998,-4.878995191682499,4.697948251710001,-32.82825000000001,-3.2646250000000014,35.442750000000004,16.5,False,0
1.5696396827697754,4.9866422984,-2.6476582069,4.402793583999999,-44.03875000000001,1.1025,30.773750000000003,8.052296703237499,-4.75884558688,4.7388356078875,-34.69375000000001,-4.595062499999999,35.949375,16.5,False,0
1.5801055431365967,4.7533420949,-2.2839491717,3.88654210805,-39.2,2.86125,31.683750000000003,7.9503026399125005,-4.613092780257499,4.7396730957974995,-36.19612500000001,-5.6472500000000005,36.1291875,16.5,False,0
1.5905184745788574,5.332405164100001,-1.64446733185,3.6059836581999996,-27.55375,1.2512500000000002,25.952500000000004,7.827700391945001,-4.450470574304999,4.6911586175825,-36.801625,-6.583937499999999,35.928375,17.5,False,0
1.6007843017578125,5.21934429625,-0.9535398061,2.9958138951999995,-22.40875,4.130000000000001,15.601250000000002,7.6912496831800015,-4.2703209428074995,4.5955653547125,-36.4835625,-7.573125,35.1124375,17.5,False,0
1.6112174987792969,5.47417990315,-0.7411768003499999,3.1663025054499996,-22.47875,10.246250000000002,-0.49000000000000005,7.532545724235002,-4.08024109752,4.504727826759999,-36.033812499999996,-8.2140625,33.893125,17.5,False,0
1.6215894222259521,5.3407800432,-1.0265208954,3.72143734865,-21.60375,21.105,-9.2925,7.3210501166775,-3.8868711211575,4.407250216092499,-36.04956249999999,-8.3846875,32.077937500000004,17.5,False,0
1.6320834159851074,4.8705904022999995,-1.4207384187499998,3.80398972835,-11.252500000000001,30.161250000000003,-12.32,7.0882284776975,-3.7113575834475006,4.355654978779999,-36.5295,-7.959874999999999,30.064562500000005,16.5,False,0
1.6426723003387451,4.91665223735,-1.61575346065,3.7381871068499994,8.61875,35.175000000000004,-12.67875,6.856663070582499,-3.5188550052775005,4.346203329509999,-36.558375,-6.658312499999999,27.883625000000002,16.5,False,0
1.652949333190918,5.720042425300001,-1.72821612285,2.9916264556499996,29.820000000000004,29.968750000000004,-17.59625,6.6603917968175,-3.2924042564700002,4.310849375595,-35.5053125,-4.984,25.317249999999998,16.5,False,0
1.6633312702178955,5.9114682333,-1.5104692662499999,2.2570299174499997,42.9275,27.098750000000003,-21.008750000000003,6.4872112611425,-3.1082167368349998,4.246392716807499,-32.8339375,-3.368750000000001,22.234625,16.5,False,0
1.674436092376709,6.877570358049999,-2.2043878202499996,2.0015961048999995,45.63125,23.528750000000002,-22.802500000000002,6.3173806771075,-2.92594347528,4.1339898751725,-28.754687499999996,-1.5115624999999993,18.911375,16.5,False,0
1.6847970485687256,7.076174633849998,-2.1672990699499994,2.3605194948999997,31.080000000000002,18.996250000000003,-14.980000000000002,6.1891253857474995,-2.7593132914724996,4.0179379790725,-24.314499999999995,0.42306250000000123,15.680874999999997,17.5,False,0
1.6953630447387695,7.5050880849,-2.1906290903,2.97009105225,13.97375,24.4125,-3.5700000000000003,6.101877091694999,-2.6009682559174996,3.9045780083974995,-20.246624999999998,2.6753124999999995,12.7925,17.5,False,0
1.7057530879974365,9.53719267795,-2.4909283265999997,2.7607190747499994,6.282500000000001,18.961250000000003,2.3712500000000003,6.157510217144998,-2.470589334499999,3.8429628264474998,-16.348937500000005,5.439000000000001,10.483375000000002,16.5,False,0
1.7164320945739746,10.007980524499999,-2.5842484079999997,3.5563325892499997,5.495,11.235000000000001,6.483750000000001,6.233601975824998,-2.3661426280100004,3.7345380523849996,-12.8760625,7.6033124999999995,8.442000000000007,16.5,False,0
1.7269470691680908,10.5714902468,-2.37547463615,3.5551361779499997,13.842500000000001,13.3,9.54625,6.354708709667499,-2.2725234437850004,3.6562927533650003,-9.467500000000005,9.471875,6.8061875000000045,16.5,False,0
1.7373628616333008,11.08774172275,-2.6249263922,3.2255248647999997,29.977500000000003,4.803750000000001,24.106250000000003,6.5410497696425,-2.1896420509775,3.5759537345700005,-6.112750000000004,11.2826875,5.696687500000001,16.5,False,0
1.771608829498291,12.658031553999999,-3.11485681955,1.4967105362999997,7.805000000000001,-21.60375,20.41375,6.803273216319999,-2.1183658477800003,3.4453355308925007,-2.790375000000002,12.445125,5.572437500000002,17.5,False,0
1.783677577972412,11.885149854199998,-3.2327033326,2.1667008643,-14.437500000000002,-30.266250000000003,23.6075,7.132346144384999,-2.109931148115,3.2919556022325005,-1.0364375000000012,12.0841875,5.310812500000002,17.5,False,0
1.8016905784606934,10.857432547499998,-4.4279182213,4.14496694885,-17.990000000000002,-23.730000000000004,31.832500000000003,7.415775981354997,-2.1365213892575,3.2183763072825,0.2266249999999978,11.2214375,5.203625,17.5,False,0
1.825319766998291,10.121639597999998,-3.7316068446999995,4.8514478215,14.131250000000001,-26.1975,43.015,7.691937619677498,-2.1926928997924997,3.2083862729274997,2.6564999999999985,10.037125,5.7640625000000005,16.5,False,0
1.8432602882385254,8.837292067449999,-3.3702906320999997,4.763511590949999,24.972500000000004,-26.171250000000004,36.46125000000001,7.936992564199999,-2.2419252247875,3.2393135050325,5.8375625000000015,8.614375,6.293875000000001,17.5,False,0
1.8583364486694336,7.6008009889,-3.5736805530999995,4.99681179445,26.766250000000003,-24.727500000000003,27.475,8.128448282482498,-2.3132014279850006,3.2905498189549993,8.8370625,7.098000000000002,6.434750000000001,16.5,False,0
1.8791325092315674,5.557330488499999,-3.8566318255499996,5.4185467777,12.836250000000001,-13.868750000000002,31.657500000000002,8.201848115737498,-2.4401107566325004,3.3832716947050003,11.255125000000001,5.9898125,6.701187500000001,16.5,False,0
1.8896074295043945,5.916852084149999,-3.3732816603499995,5.059623387699999,4.077500000000001,-8.7675,31.876250000000002,8.199245921159998,-2.5744677456225,3.4809287670675007,12.78725,5.076750000000001,7.8281875,16.5,False,0
1.8998932838439941,5.828317647949999,-3.0161528872999996,4.9674997176,-5.635000000000001,-5.3025,28.97125,8.231907949649997,-2.69611286455,3.5851960118625,13.854750000000001,3.9663749999999993,9.562437500000001,16.5,False,0
1.9105503559112549,5.78644325245,-2.83370016405,4.833501652,-9.738750000000001,-5.250000000000001,29.137500000000003,8.278059515547499,-2.7608686261624995,3.6396327260125005,14.3416875,2.4845625000000005,11.5451875,16.5,False,0
1.9210312366485596,5.688337525849999,-3.0568308715,4.727619251949999,-6.64125,-10.666250000000002,32.305,8.331329728679998,-2.8225436286774994,3.6708590609424996,14.0809375,0.42831249999999965,13.621125000000003,16.5,False,0
1.931941032409668,5.76012220385,-3.2063822839999996,4.75752953445,-9.205,-11.025,36.251250000000006,8.357082481912496,-2.906860715045,3.7357643739674997,12.891375,-1.859375,16.0838125,16.5,False,0
1.9426460266113281,5.6183474648,-2.9156543381,4.827519595499999,-17.692500000000003,-2.1525000000000003,31.395000000000003,8.352536118972498,-2.9754749030999994,3.8376387961625,10.471125,-3.6399999999999997,18.818625000000004,17.5,False,0
1.9529898166656494,5.63689183995,-2.9042884307499994,5.1667021990499995,-25.663750000000004,6.273750000000001,25.3575,8.323971799184998,-3.0110083187099996,3.9936508296824997,6.986875,-4.8055,21.483437500000004,16.5,False,0
1.963451862335205,5.720640630949999,-2.60159637185,5.565107161949999,-24.981250000000003,11.628750000000002,14.227500000000001,8.2666936081975,-3.0393931768024993,4.1573797160875,3.737125,-5.4201875,23.442125,16.5,False,0
1.9738397598266602,5.904289765499999,-2.6835505458999998,5.72183704225,-22.181250000000002,16.84375,4.48,8.1951482124575,-3.0701409472125,4.312763633674999,1.4713124999999996,-5.704125000000001,24.433937500000006,16.5,False,0
1.9844779968261719,5.577071274949999,-2.62791742045,5.072783911999999,-12.11875,16.091250000000002,-3.3687500000000004,7.971120196532501,-3.1424041897325,4.534488557847499,0.12381249999999958,-6.119750000000002,24.214312500000005,16.5,False,0
1.9975917339324951,5.95154801185,-3.3559336964999993,5.61894567045,-3.8062500000000004,18.445,-13.457500000000001,7.784719315992501,-3.1644480679349996,4.661068873387499,-0.7459374999999999,-5.830562500000001,23.684062500000003,16.5,False,0
2.0080180168151855,6.2105710583,-3.2775687563499996,5.4508498828,6.378750000000001,13.02875,-14.6125,7.572146938265002,-3.2122147890874997,4.739882467775,-1.1624375000000007,-5.5750625000000005,22.607375,16.5,False,0
2.0185937881469727,6.3062839623,-3.6825539814,5.4771709314,11.340000000000002,10.290000000000001,-18.2525,7.336513732729999,-3.26704033691,4.831856586462499,-1.7080000000000002,-5.712875,21.197312500000002,16.5,False,0
2.0290825366973877,5.974279826549999,-3.8751762007,5.565107161949999,8.05,15.627500000000001,-20.0025,7.0383381264875,-3.327788120667499,4.997110897275,-2.744000000000001,-5.142812500000001,18.968687499999998,16.5,False,0
2.0394766330718994,6.4438712618,-3.6155549485999994,7.441080080349999,5.34625,16.87,-20.335,6.721019939445,-3.3541689898324996,5.1897630268574995,-2.380000000000001,-2.908937500000001,16.921625,16.5,False,0
2.0499966144561768,6.382854285500001,-3.4606196852499997,5.568098190199999,-1.3475000000000001,24.01875,-15.697500000000002,6.462804470622499,-3.364727319554999,5.254937532425,-1.3348125000000006,-0.3911250000000006,14.767812499999996,16.5,False,0
2.060487747192383,6.847061869899999,-3.8309089825999996,5.1577291142999995,-8.697500000000002,25.383750000000003,-12.057500000000001,6.254928007247501,-3.3511480512999996,5.296961479337499,-1.7898125000000005,2.1940625000000002,11.998437499999996,16.5,False,0
2.0710465908050537,7.28793943395,-3.55274335535,5.022534637399999,-12.906250000000002,25.681250000000002,-11.690000000000001,6.1178790928325,-3.3552756702850006,5.304977435047499,-3.3096875000000012,4.763062499999999,9.324874999999997,16.5,False,0
2.0815963745117188,7.810771172049999,-3.48454791125,5.0560341538,-16.380000000000003,19.810000000000002,-12.547500000000001,6.053362613479999,-3.3602108668975,5.316044239572499,-5.315187500000001,7.351750000000001,7.09975,16.5,False,0
2.0925214290618896,8.412566055949998,-3.1286155494999996,5.2271209697,-10.106250000000001,12.24125,-11.646250000000002,6.104419465707499,-3.342354428245,5.322774053134999,-7.142187500000001,9.261875000000002,5.155062500000001,17.5,False,0
2.102954387664795,8.5124663995,-3.3439695835,5.258227663499999,-2.415,10.6925,-12.740000000000002,6.24861693764,-3.3270403636049997,5.324030284999999,-7.903000000000001,10.405062499999998,2.9745624999999998,16.5,False,0
2.1132652759552,8.4574314797,-3.6765719248999997,5.187639396799999,-1.6625,12.215000000000002,-12.99375,6.394280013414999,-3.3464521369475,5.338357310317499,-7.936687500000001,11.280499999999998,0.8085000000000004,16.5,False,0
2.13147234916687,8.9204426528,-3.6574293440999996,5.14277397305,-13.90375,14.787500000000001,-6.151250000000001,6.523163420707499,-3.3976884508700005,5.3612685867125,-7.934937500000001,12.257874999999997,-1.0885000000000005,17.5,False,0
2.141951322555542,9.4971128994,-3.4438699270499993,5.229513792299999,-15.198750000000002,14.892500000000002,-1.4875,6.692306068245,-3.4354352273850006,5.3897431756525,-8.309437500000001,13.418124999999998,-2.7129375,17.5,False,0
2.1524672508239746,10.03848901265,-3.3200413575,5.274977421699999,-10.42125,8.9425,-1.2425000000000002,6.8947687704875,-3.4424043232075,5.416213775664999,-8.696625000000001,14.65625,-4.4944375,17.5,False,0
2.162856101989746,10.556535105549997,-3.5377882141,5.134997299599999,-4.0687500000000005,6.291250000000001,-2.31875,7.114100872059998,-3.4696226802824994,5.437689358499999,-8.436312500000001,15.408312500000003,-6.360812500000001,17.5,False,0
2.173129081726074,10.987243173549999,-3.4516466004999993,4.785645199999999,-3.1850000000000005,2.9225000000000003,-5.915000000000001,7.366005271274998,-3.5186157230174997,5.432604610474999,-7.435750000000001,15.4949375,-8.084999999999999,16.5,False,0
2.183458089828491,11.054242206349999,-3.6664024288499992,4.6791645942999995,-9.51125,-0.6125,-14.525000000000002,7.645128027564999,-3.5563026789675,5.401109083002499,-6.390125,15.163750000000002,-9.517375000000001,17.5,False,0
2.1937150955200195,10.518249943949998,-3.88654210805,4.7724846757,-21.778750000000002,-2.8262500000000004,-17.9725,7.900202916724998,-3.6111282267899996,5.3531928104375,-5.8541875,14.368375000000004,-10.810187500000001,17.5,False,0
2.2043728828430176,9.96072227815,-4.17846646525,4.9998028226999995,-28.560000000000002,-3.21125,-17.66625,8.1567434097275,-3.6250365081525,5.1824649179275,-6.352062500000001,13.302625,-11.536000000000001,17.5,False,0
2.214855909347534,9.06939585965,-4.3944187049,5.245665344849999,-30.79125,-6.483750000000001,-12.8975,8.336085463597499,-3.6874293574475,5.14755961825,-7.2375625,12.093375,-11.965625000000003,17.5,False,0
2.2250077724456787,8.822935131849999,-4.050450456149999,5.1218367753,-28.743750000000002,-10.6575,-5.696250000000001,8.478817331687498,-3.7200614756549997,5.141428010337501,-8.7653125,10.841687500000003,-11.757375,16.5,False,0
2.235240936279297,8.65783037245,-3.5880374886999995,4.740181570599999,-25.733750000000004,-12.346250000000001,-3.7012500000000004,8.6150287581925,-3.7288550987099995,5.118785926485,-10.5205625,9.712500000000002,-11.1549375,17.5,False,0
2.2457427978515625,8.27138952255,-3.260818998149999,4.408775640499999,-23.966250000000002,-13.912500000000001,-2.56375,8.734221233955,-3.7157843052574995,5.0744289775375,-12.280625000000002,8.47,-10.3481875,17.5,False,0
2.256220817565918,8.1068829688,-3.1304101664499995,4.17248440875,-23.28375,-15.968750000000002,-3.9550000000000005,8.8553877883625,-3.6826736225299994,5.0081477915175,-13.746687500000002,6.836812500000001,-9.488937500000002,17.5,False,0
2.2668278217315674,7.727022381049999,-2.8666014748,3.9248272696499997,-22.898750000000003,-18.523750000000003,-2.3537500000000002,8.9542113617425,-3.611786253004999,4.973780876925,-15.104687500000002,4.908750000000002,-8.8248125,16.5,False,0
2.2772786617279053,7.34895641025,-2.5627130046,3.65084908195,-23.485000000000003,-21.157500000000002,-0.14875000000000002,9.006943189789999,-3.5510085589649996,4.896791809769999,-16.033062500000003,2.6350625000000014,-8.207062500000001,16.5,False,0
2.28780460357666,6.981059935499999,-2.29292225645,3.4971102298999996,-26.083750000000002,-21.927500000000002,2.4675000000000002,9.010831526514998,-3.4920254818750003,4.822853591429999,-16.7313125,0.27693749999999734,-7.620375000000001,17.5,False,0
2.2982656955718994,6.64666297715,-1.9310078382,3.3631121643,-31.692500000000003,-19.477500000000003,6.492500000000001,8.992346971929999,-3.413421259465,4.740570404272499,-17.3928125,-1.9836250000000022,-6.823687500000001,17.5,False,0
2.308767795562744,6.36550632165,-1.63489604145,3.5294133349999997,-35.49875,-13.160000000000002,8.70625,8.923493501614999,-3.3338898182975,4.6532921999375,-18.45025,-3.6981875000000017,-5.8191875,16.5,False,0
2.3191745281219482,6.339783478699999,-1.2538390423999999,3.7256247882,-30.598750000000003,-6.1775,10.596250000000001,8.819256167102498,-3.2370403235625,4.568915293005,-19.8331875,-4.781000000000001,-4.7945625,16.5,False,0
2.3296425342559814,6.373282995099999,-1.0779665813,3.424727346249999,-19.433750000000003,-0.15750000000000003,9.49375,8.7172022832125,-3.1119555221474995,4.4758644041475,-21.029312500000003,-5.4901875,-3.605875,16.5,False,0
2.340076446533203,6.520441584999999,-0.92063849535,2.9647072013999995,-10.78875,2.02125,3.9725000000000006,8.6115591654225,-2.9686852689724996,4.378566255175,-21.3416875,-6.162625,-2.7549374999999996,16.5,False,0
2.350649356842041,6.918846547899999,-0.9337990196499999,2.3120648372499994,-5.04875,3.5612500000000002,-1.3562500000000002,8.484739567622501,-2.8362425380625,4.2480078720625,-20.951875,-6.795250000000001,-2.5711875,17.5,False,0
2.361130475997925,6.839883402099999,-1.1413763801999999,2.1655044529999996,-5.285,1.1025,-6.737500000000001,8.3404523648425,-2.7203701036575003,4.10046044849,-20.505625000000002,-7.299687500000002,-2.680125,17.5,False,0
2.371575355529785,6.760322050649999,-1.3938191645,2.43888443505,-7.665000000000001,1.8725000000000003,-8.8025,8.167241918885,-2.6038097327549994,3.9571303747499997,-20.435187500000005,-7.673750000000001,-3.0161249999999997,16.5,False,0
2.382110118865967,6.477968983849999,-1.5684952143,3.08016089185,-11.471250000000001,10.106250000000001,-7.28875,7.9519477054499985,-2.5062124809575,3.8457743930025003,-20.828500000000005,-7.689937500000002,-3.27775,16.5,False,0
2.3926544189453125,6.652046827999999,-1.4267204752499996,3.3882368016,-8.0675,13.965000000000002,-3.2812500000000004,7.7232237751724995,-2.4250957948175,3.772225008334999,-21.106312500000005,-7.161437500000003,-3.0375625,16.5,False,0
2.4031834602355957,7.6426753843999995,-1.2017951508499998,3.3744780716499996,1.21625,19.731250000000003,-4.9,7.5263842060399995,-2.3033310347600002,3.7183266792699996,-20.691125000000007,-6.300437500000003,-2.3953125,17.5,False,0
2.4162631034851074,8.603991863949998,-1.09172531125,2.9671000239999996,14.638750000000002,27.37,-8.7675,7.411558631522499,-2.15772777955,3.644089358105,-19.019437500000002,-4.858875000000003,-1.8178124999999998,17.5,False,0
2.4268200397491455,9.37567715245,-1.50448720975,2.5597219763499997,22.618750000000002,23.3625,-10.6925,7.381947451847499,-2.0097616120224995,3.5407792423499997,-16.598312500000002,-3.337250000000002,-1.512875,16.5,False,0
2.4371531009674072,9.343972252999999,-1.92203475345,2.35872487795,29.426250000000003,17.141250000000003,-6.781250000000001,7.412426029714998,-1.8926329457524997,3.3903305213749997,-13.805312500000005,-1.8663750000000014,-1.5076250000000002,17.5,False,0
2.4476139545440674,10.489536072749999,-1.76650128445,2.41495620905,29.111250000000002,12.600000000000001,0.9975,7.459923558324999,-1.80705962752,3.2672796191699995,-10.965937500000006,-0.556062500000001,-1.4879375000000004,17.5,False,0
2.4580860137939453,10.80179942205,-2.21874475585,2.6811577232999997,24.911250000000003,8.662500000000001,6.4662500000000005,7.539484909775001,-1.7355441420625002,3.1585856525649993,-8.356250000000001,0.6352500000000008,-1.20225,17.5,False,0
2.4686179161071777,10.96929700405,-1.8203397929499998,3.2476584738499996,21.035000000000004,9.703750000000001,14.883750000000001,7.673213782832501,-1.6793726315275,3.08686079513,-6.033562499999998,1.7937500000000015,-0.548625,17.5,False,0
2.4790799617767334,12.2057880826,-1.4608181972999998,3.1184460534499996,18.427500000000002,8.8375,20.168750000000003,7.8538120685675015,-1.6085450825675,3.0361030457275,-3.8657499999999976,3.1307500000000013,0.5110000000000003,17.5,False,0
2.4895758628845215,13.349557285400001,-0.7435696229499998,2.9168507493999996,20.501250000000002,9.065000000000001,21.726250000000004,8.1030245423575,-1.5357434549625,2.9996424113599995,-1.7613749999999961,4.553500000000001,1.6555000000000004,16.5,False,0
2.499912977218628,13.270594139599998,-1.00917293155,3.0897321822499997,24.220000000000002,4.7075000000000005,19.180000000000003,8.384928954920001,-1.457408425095,2.9705097962049996,0.5289375000000041,5.9985625,2.6617500000000005,16.5,False,0
2.510887622833252,13.40877964475,-1.50448720975,2.9425735923499996,30.196250000000003,-0.35875,15.382500000000002,8.699854319362501,-1.41619205581,2.9591438888549995,3.2064375000000025,7.130375000000001,3.366125000000001,17.5,False,0
2.521195650100708,13.044472403899999,-2.4873390927,3.8033915226999992,34.151250000000005,-3.2287500000000002,14.63,9.031768724265001,-1.4010873631475,2.9369803695224994,6.495562500000001,7.90475,3.6925000000000003,17.5,False,0
2.531522750854492,12.288340462299999,-2.3880369548,3.0508488149999997,36.102500000000006,-9.52875,16.75625,9.3366442337875,-1.4283057202225,2.8975287069049998,10.001687500000001,8.095062500000001,4.0473125,17.5,False,0
2.541752576828003,11.589636263100001,-2.9389843584499995,3.1286155494999996,33.83625,-9.66,20.536250000000003,9.61627546488,-1.5018251946075,2.8733611986449996,13.097437500000003,7.730187500000001,4.431875,17.5,False,0
2.552234649658203,10.732407566649998,-3.2063822839999996,3.0771698636,31.001250000000002,-6.20375,26.608750000000004,9.899495929872499,-1.5465410669450002,2.87330137808,15.645000000000005,7.3141250000000015,5.189625,16.5,False,0
2.5627245903015137,10.27059280485,-3.3116664784,3.3014969823499998,26.27625,-9.02125,33.6525,10.093613663297498,-1.6662121072275,2.9088647039725,17.509187500000003,6.783437500000001,6.597500000000001,16.5,False,0
2.5730485916137695,9.722636429449999,-3.00837621385,3.2434710343,23.563750000000002,-9.275,38.4125,10.251270762354997,-1.7790636030999998,2.9584559523574994,18.987500000000004,6.181,8.673875,16.5,False,0
2.58329439163208,9.209974187399999,-2.77268318775,3.170489945,21.411250000000003,-11.34875,41.42250000000001,10.386734431797498,-1.8616458930824997,3.0011080152025,20.424250000000004,5.683125,11.081,16.5,False,0
2.593581438064575,8.636294969049999,-2.5016960282999996,3.0580272828,20.676250000000003,-12.66125,41.510000000000005,10.516335685869999,-1.920180315935,3.0164519901249998,21.997500000000006,4.858874999999999,13.599687500000002,16.5,False,0
2.6040384769439697,8.1966138163,-2.4370898180999996,3.1615168602499994,20.868750000000002,-14.39375,40.46,10.610074511224997,-1.9549061539175,3.0054749164475,23.571625000000004,3.5787499999999994,15.904,16.5,False,0
2.614769458770752,7.689933630749999,-2.44606290285,3.2829526071999995,21.28875,-15.076250000000002,38.307500000000005,10.662567057012499,-2.0090736755249994,2.9878876703375004,24.870125000000005,2.056249999999999,18.0779375,16.5,False,0
2.62509822845459,7.015157657549999,-2.5214368147499995,3.493520996,24.465000000000003,-13.273750000000001,37.126250000000006,10.631011708974999,-2.074756655895,2.9891738124850002,25.504937500000004,0.04462499999999947,20.279875,17.5,False,0
2.6355783939361572,6.406184305849999,-2.5734807063,3.7028929734999996,22.7325,-8.3125,38.666250000000005,10.5176816485825,-2.1399909820275,3.02345099623,25.734625000000005,-1.8869374999999997,22.640187500000003,17.5,False,0
2.646101236343384,6.12143841645,-2.43888443505,3.7674991837,23.266250000000003,0.60375,41.1075,10.358529035399998,-2.1824635831775,3.1038797458725,25.579312500000007,-3.1639999999999997,25.1234375,17.5,False,0
2.656644105911255,6.0191452503,-2.18285241685,3.5491541214499995,22.968750000000004,6.483750000000001,41.597500000000004,10.1732946558775,-2.1967606982125,3.1692636234175,25.241125000000004,-3.7318749999999996,27.401937500000003,17.5,False,0
2.6671180725097656,5.9904313790999995,-1.9298114268999997,3.34217496655,21.525000000000002,10.255,40.057500000000005,9.96706325804,-2.2003499321125,3.2192137951924997,24.963312500000008,-3.8609374999999995,29.289749999999998,17.5,False,0
2.677532196044922,5.944967749699999,-1.7030914855499997,3.2578279698999997,18.812500000000004,12.46,36.916250000000005,9.7113004323825,-2.1850956880375003,3.2384760171224998,24.834687500000005,-3.695562499999999,30.740499999999997,17.5,False,0
2.68789005279541,5.94915518925,-1.5332010809499996,3.29431851455,15.172500000000001,11.637500000000001,32.05125,9.431160726487498,-2.1849162263424997,3.2476883841324997,24.693812500000003,-3.566937499999999,31.643062499999996,16.5,False,0
2.6985788345336914,5.800201982399999,-1.3842478741,3.6424742028499995,13.06375,12.048750000000002,25.830000000000002,9.099485603844998,-2.1923339764025,3.2652158096774997,24.435250000000003,-3.5441874999999996,32.0215,16.5,False,0
2.709040880203247,5.65723083205,-1.4973087419499997,4.021736584949999,13.020000000000001,14.096250000000001,20.72875,8.7417885354275,-2.2158434584475,3.3081071547825,24.016125000000006,-3.263749999999998,32.14662500000001,17.5,False,0
2.7195019721984863,5.5429735528999995,-1.3842478741,4.33639275685,14.507500000000002,16.94,15.785000000000002,8.352954862927499,-2.233998999925,3.3600613154849994,23.382625000000008,-2.5742499999999997,32.1531875,17.5,False,0
2.729975700378418,5.71705139705,-1.4333007374,4.4410787456,17.333750000000002,19.985000000000003,10.71,7.9742906864775,-2.2284356873799998,3.4283464904324994,22.547437500000008,-1.5806874999999991,32.12475,17.5,False,0
2.740431785583496,5.8480584343999995,-1.7491533205999998,4.4925244315,19.652500000000003,21.93625,3.8850000000000002,7.63920579163,-2.21001095336,3.510510036459999,21.697375000000005,-0.22574999999999878,31.6938125,17.5,False,0
2.751041889190674,6.0981083961,-2.0362920326,4.51106880665,19.556250000000002,22.295,-0.7175,7.333552614762501,-2.16957225142,3.5802907255324996,20.900687500000007,1.4196875000000004,30.850750000000005,17.5,False,0
2.7614028453826904,6.477968983849999,-2.2193429614999998,4.49910469365,14.5775,20.58875,-4.82125,7.0422862837775,-2.1742083452075,3.6402608419449995,19.999875000000003,2.8476875,29.583750000000002,16.5,False,0
2.7718827724456787,6.74955434895,-2.4717857457999997,4.5547378191,10.482500000000002,17.333750000000002,-10.867500000000001,6.845925279165,-2.1285652541125004,3.6989448162100005,19.191375000000004,4.206562500000001,27.745375000000003,16.5,False,0
2.782620668411255,7.09651362595,-2.8899314951499995,4.86999219665,5.678750000000001,13.7725,-15.181250000000002,6.69356230011,-2.10281250088,3.776651730145,18.357062500000005,5.418437500000001,25.182062500000008,16.5,False,0
2.7930517196655273,7.382455926649999,-3.1046873234999994,5.242076110949999,2.765,12.258750000000001,-18.9875,6.581757664125,-2.10783742834,3.8644384092824993,17.4330625,6.582625000000002,22.346187500000003,16.5,False,0
2.803436517715454,7.72343314715,-3.4689945643499995,5.7690952886,2.555,10.22,-21.97125,6.507490432677498,-2.1334107198774994,3.9827335765699994,16.510812499999997,7.724500000000002,19.250000000000004,17.5,False,0
2.813877582550049,8.238488211799998,-3.72741940515,6.20518720745,5.3375,9.695,-24.106250000000003,6.478208266109999,-2.1893728584349996,4.129473422515,15.643249999999998,8.889562500000002,16.027375,17.5,False,0
2.8270294666290283,8.757132510349999,-3.8805600515499994,6.400800454999999,9.765,9.301250000000001,-24.036250000000003,6.491996906342498,-2.2572691997099996,4.28985235728,15.031625,10.116312500000003,12.820062500000002,16.5,False,0
2.8372344970703125,9.189036989649999,-4.0067814437,6.363711704699999,9.8175,7.621250000000001,-25.733750000000004,6.5725153868324995,-2.3304895712699993,4.438626102435,14.440999999999997,11.316375,9.737437500000002,17.5,False,0
2.847635507583618,9.4564349152,-4.18743955,6.2991054945,7.07875,6.956250000000001,-28.332500000000003,6.7035822447474995,-2.407239356165,4.5781874805800005,13.74975,12.261375000000003,6.513062499999997,17.5,False,0
2.857928514480591,9.77288570405,-4.337589168149999,6.14177740855,4.0687500000000005,5.5125,-30.03,6.868268260192499,-2.4925733921375,4.7021656015425,12.914124999999999,12.834500000000002,3.071249999999998,17.5,False,0
2.868328332901001,9.9122676205,-4.480560318499999,5.81156788975,-0.9187500000000001,2.87875,-34.212500000000006,7.055865552032499,-2.5963919826949997,4.81615368815,11.852749999999997,12.879124999999998,-0.5827500000000008,17.5,False,0
2.892366409301758,9.4169533423,-4.970490745849999,5.361717240949999,-8.56625,-9.05625,-37.48500000000001,7.251389068734999,-2.7204299242224996,4.926163707184999,10.609812499999999,12.5435625,-4.404750000000003,17.5,False,0
2.9149982929229736,8.623134444749999,-4.857429878,5.55075022635,-4.48,-17.64,-30.75625,7.416075084179998,-2.8803901150324993,5.032345210059999,9.259249999999998,11.1335,-8.011062500000001,16.5,False,0
2.9363811016082764,8.4933238187,-4.3250268494999995,5.267798953899999,0.9625000000000001,-18.165000000000003,-32.8825,7.548966469327498,-3.030779015442499,5.148815850114998,8.392124999999997,9.6000625,-11.3211875,17.5,False,0
2.9553608894348145,7.90887689865,-4.42133795915,4.4410787456,8.26875,-20.32625,-35.385000000000005,7.669624548932499,-3.173630524662499,5.229932536254998,7.997062500000001,8.216249999999999,-14.553,17.5,False,0
2.9705898761749268,7.4404818747,-4.57926425075,3.7286158164499996,17.57,-25.54125,-31.290000000000003,7.7716186122575,-3.3311978928725,5.2478487954725,7.986562500000001,6.4106875,-17.390187500000003,16.5,False,0
2.98786997795105,7.0103720123499995,-4.570291166,3.3744780716499996,13.868750000000002,-26.38125,-23.94,7.8498639112775,-3.494089291367499,5.213392150032499,8.2079375,4.321187499999999,-19.663437500000004,17.5,False,0
3.0042829513549805,7.065406932149999,-3.88534569675,3.6340993237499997,-7.385000000000001,-18.602500000000003,-15.583750000000002,7.91617500758,-3.6385858661249997,5.174478872499999,7.785312500000001,2.250937499999997,-21.306687500000006,17.5,False,0
3.022021532058716,7.278966349199998,-3.29192569195,3.8356946277999997,-23.126250000000002,-13.04625,-14.39375,7.985716414392499,-3.742195084704999,5.138945456889998,6.18275,0.38499999999999907,-22.453375000000005,17.5,False,0
3.032846689224243,7.564908649899999,-2.8079773210999996,3.9505501125999998,-30.686250000000005,-11.69875,-14.665000000000001,8.055407372617498,-3.807010666882499,5.109962393147499,3.8237499999999995,-1.337000000000001,-23.258375000000004,17.5,False,0
3.043212413787842,7.95912617325,-2.50468705655,4.0378881374999995,-29.802500000000002,-12.55625,-18.62,8.130033527454996,-3.8350066913024996,5.08666228308,1.3846874999999998,-3.0183125000000004,-23.937812500000003,17.5,False,0
3.053680658340454,8.0315090569,-2.39701003955,4.1012979364,-21.525000000000002,-14.81375,-23.520000000000003,8.198767356639998,-3.8360834614724992,5.062674236514999,-0.6138124999999997,-4.651937500000001,-24.608500000000006,17.5,False,0
3.064171552658081,7.822735285049999,-2.43649161245,4.3884366484,-9.100000000000001,-16.87,-26.591250000000002,8.251529094969998,-3.820709576267499,5.0323751203425,-1.889125,-6.222125,-25.204375000000006,17.5,False,0
3.0748255252838135,7.5409804239,-2.5363919559999997,4.3441694303,4.445,-15.356250000000001,-27.69375,8.2750684872975,-3.7964523371599994,4.9976791926425,-2.257062500000001,-7.717500000000001,-25.721062500000006,17.5,False,0
3.085153579711914,7.2825555831,-2.5806591741,4.293321950049999,10.36875,-11.103750000000002,-24.718750000000004,8.268637776559999,-3.764418424602499,4.9406701941975,-2.0055,-8.9543125,-26.076750000000004,17.5,False,0
3.0955095291137695,7.0540410248,-2.5435704238,4.2675991071,10.447500000000002,-5.985,-24.885,8.228019612925,-3.712613815312499,4.853930374947499,-1.6275000000000013,-9.882249999999999,-26.222875000000005,17.5,False,0
3.1058194637298584,7.074380016899999,-2.4664018949499997,4.1407795093,7.437500000000001,-0.6737500000000001,-24.92875,8.167511111427501,-3.6478580536999994,4.745385959755,-1.5828750000000007,-10.539375,-26.219812500000007,17.5,False,0
3.116466522216797,7.0313092101,-2.5501506859500003,4.0450666053,4.41875,2.9400000000000004,-26.442500000000003,8.076673583475001,-3.5758640037225,4.6275693569874985,-1.7880625000000006,-10.93575,-26.308625,17.5,False,0
3.127009153366089,6.98644378635,-2.6757738724499998,4.0737804765,7.026250000000001,3.4037500000000005,-26.45125,7.956553888955,-3.501836054534999,4.512564320774999,-2.0146875000000004,-11.1155625,-26.278875000000006,16.5,False,0
3.137784242630005,7.116254412399999,-2.8103701436999997,3.9708891047,17.430000000000003,4.1475,-24.89375,7.82668344234,-3.4293634400374993,4.401926185807498,-1.7906875000000013,-11.274375000000001,-26.1296875,17.5,False,0
3.1481902599334717,7.342974353749999,-2.75832625215,3.7232319655999997,22.88125,5.897500000000001,-22.583750000000002,7.695796046119999,-3.349592716609999,4.2979580438374985,-0.9253125000000013,-11.2525,-25.756937500000003,17.5,False,0
3.1587491035461426,7.653443086099999,-2.76550471995,3.40678117675,24.062500000000004,6.562500000000001,-21.42875,7.571967476569998,-3.2576185979224994,4.195365774862499,0.41693750000000007,-11.005312499999999,-25.076625,17.5,False,0
3.1691441535949707,7.99023286705,-2.8558337730999996,3.1980074049,20.18625,7.183750000000001,-20.72875,7.494499844894998,-3.1483264256675,4.0920556591074995,1.9591249999999998,-9.8643125,-24.4855625,17.5,False,0
3.179429054260254,8.29412133725,-2.97009105225,2.9575287336,17.745,9.61625,-20.606250000000003,7.469764041267498,-3.0612276830275005,3.9696627831175,2.9745624999999998,-8.5203125,-23.965812500000002,17.5,False,0
3.1896910667419434,8.6117685374,-3.17707020715,2.77627242165,10.106250000000001,8.9425,-20.746250000000003,7.47661349596,-2.9994629496650003,3.85998177719,3.3429375,-7.1124375,-23.220750000000002,17.5,False,0
3.2001640796661377,8.92941573755,-3.33619291005,2.7110680057999996,4.086250000000001,8.102500000000001,-19.740000000000002,7.529345324007499,-2.937129920935,3.7912778582875006,3.0638125,-5.526499999999999,-22.564937500000003,17.5,False,0
3.2106738090515137,9.27876783715,-3.6622149893,2.6309084487,-1.0325000000000002,7.76125,-18.73375,7.625716254222498,-2.8766214194375,3.748924898267501,2.2089375000000007,-3.7861250000000006,-22.170749999999998,16.5,False,0
3.221061944961548,9.4719882621,-3.9684962820999994,2.6650061707499995,-6.090000000000001,6.3875,-18.13875,7.7443703449,-2.8487151258649996,3.6932917728175005,1.6817500000000003,-2.261,-22.124375,17.5,False,0
3.231383800506592,9.57906707345,-4.170689791799999,2.8085755267499994,-7.481250000000001,5.3812500000000005,-15.260000000000002,7.86078116439,-2.8697719647449995,3.63852604556,1.9617500000000008,-1.1348749999999999,-22.1974375,17.5,False,0
3.2416930198669434,9.8273224182,-4.273581163599999,2.9132615155,-3.33375,4.59375,-13.807500000000001,7.978268754049999,-2.927917553925,3.5887254251974996,3.0266250000000006,-0.27912500000000007,-22.2035625,16.5,False,0
3.2521307468414307,9.94397251995,-4.377668946699999,2.895315346,1.715,3.5962500000000004,-12.8275,8.0865738869825,-3.0167810032325,3.5349766475449997,4.510187500000001,0.5464375000000002,-22.0591875,16.5,False,0
3.262734889984131,10.1264252432,-4.5870409242,2.8809584104000003,6.44875,1.8725000000000003,-12.110000000000001,8.19194781223,-3.1184161431675,3.4807193950899995,6.066374999999999,1.3177500000000002,-21.641375000000004,16.5,False,0
3.2731475830078125,10.155139114399999,-4.6947179411999995,2.87437814825,12.180000000000001,0.77,-12.083750000000002,8.296454339284999,-3.227140020055,3.4189546617274997,7.376249999999999,2.2128750000000004,-20.994750000000003,17.5,False,0
3.2835257053375244,10.057033387799999,-4.7844487887,2.9042884307499994,15.732500000000002,0.23625000000000002,-10.596250000000001,8.4186378432975,-3.3399915159274998,3.3480672922025,8.1948125,3.0821875000000003,-20.198937500000003,17.5,False,0
3.294018507003784,9.942177903,-4.763511590949999,3.0825537144499995,22.356250000000003,0.35000000000000003,-6.597500000000001,8.5479100842625,-3.4522448061499995,3.2770602815475,8.670812499999998,3.796625,-19.317812500000006,17.5,False,0
3.307168483734131,9.767501853199999,-4.7700918531,3.2327033326,28.813750000000002,0.77875,-5.460000000000001,8.6832840228575,-3.5647971991975,3.2240592609574996,9.330999999999998,4.2437499999999995,-18.320312500000007,17.5,False,0
3.3175106048583984,9.46540799995,-4.5643091095,3.15792762635,35.6475,-0.29750000000000004,-3.4475000000000002,8.814261149925,-3.6805499924725,3.1757840650025,10.444,4.475625,-17.352125000000008,17.5,False,0
3.327852487564087,9.319445821349998,-4.654039957,3.2045876670499998,42.91875,-1.65375,-0.7350000000000001,8.9326759583425,-3.7849966989624995,3.1301110636250002,12.094687500000003,4.346562499999999,-16.198437500000008,17.5,False,0
3.338360548019409,9.10528819865,-4.7270210463,2.9234310115499995,42.2625,-2.56375,0.09625,9.04283552879,-3.8756547652199993,3.0764520168200002,14.124250000000004,4.082749999999999,-14.882437500000004,16.5,False,0
3.348959445953369,8.77388226855,-4.60438888805,2.6404797391,31.981250000000003,-1.37375,2.6950000000000003,9.1400738571975,-3.9599718515874995,3.016093066735,15.491000000000003,3.757249999999999,-13.523125000000004,16.5,False,0
3.360065221786499,8.355138313549999,-4.37467791845,2.691925425,17.92,-0.052500000000000005,7.9975000000000005,9.208897417230002,-4.0461134651875,2.9538796791350004,15.822625000000002,3.4956249999999995,-12.0999375,17.5,False,0
3.3705873489379883,8.07757089195,-4.103690759,2.8438696600999998,7.595000000000001,2.5025000000000004,13.125000000000002,9.250831633295,-4.132075617092499,2.9126932201324993,15.364999999999998,3.2283125,-10.4995625,16.5,False,0
3.381312131881714,8.2097743406,-3.9278182978999996,3.0149564759999996,1.3562500000000002,6.090000000000001,16.3275,9.272875511497501,-4.1871105368925,2.8917560223824994,14.335999999999999,3.0979375000000005,-8.68175,16.5,False,0
3.391705274581909,8.0674013959,-3.1716863562999995,3.13399940035,-3.2637500000000004,8.408750000000001,17.832500000000003,9.2713799973725,-4.229373766065,2.8906493419299997,13.311375000000002,3.0611875,-6.814937499999999,16.5,False,0
3.402219295501709,8.062615750700001,-2.9676982296499994,3.19621278795,-5.355,9.6775,16.17875,9.2523570577025,-4.237629004034999,2.8992335930074993,12.436375000000002,3.024,-4.8999999999999995,16.5,False,0
3.4127912521362305,7.7252277641000004,-2.8223342566999996,3.17228456195,-2.5987500000000003,12.696250000000001,15.74125,9.206444774065,-4.222883234762499,2.9177480578749995,11.825624999999999,3.136875,-3.088312500000001,17.5,False,0
3.4231181144714355,7.50927552445,-2.6644079650999997,3.19621278795,6.965000000000001,15.618750000000002,17.3075,9.138757804767499,-4.191447527854999,2.9483761871549996,11.882499999999999,3.4295625000000003,-1.3264999999999982,17.5,False,0
3.4335551261901855,7.472784979799998,-2.63031024305,2.9946174838999995,14.708750000000002,16.966250000000002,17.290000000000003,9.045706915909998,-4.1311184880525,2.9809783950799997,12.603937499999999,3.885875000000001,0.4856250000000009,17.5,False,0
3.443922996520996,7.3782684871,-2.53699016165,2.69491645325,17.42125,19.040000000000003,15.190000000000001,8.939944156989998,-4.056492333215,2.9924340332775,13.790437500000001,4.483062500000001,2.1363125000000016,17.5,False,0
3.4545669555664062,7.3064838090999995,-2.4562323989,2.3629123174999997,15.662500000000001,21.778750000000002,15.137500000000001,8.823443606652496,-3.968346730687501,2.976970417225,14.9349375,5.222,3.6015000000000015,16.5,False,0
3.465028762817383,7.2616183853499985,-2.4969103831,1.9776678788999997,6.597500000000001,24.045,13.615000000000002,8.692705761844998,-3.8745480847674996,2.9396722949475,15.68175,6.1355,5.001062500000001,16.5,False,0
3.47530198097229,7.2059852599,-2.4819552418499997,1.8813567692499997,-6.763750000000001,24.885,12.4075,8.548837303019997,-3.7758142422350005,2.8872096594424996,15.558374999999998,7.252875,6.2908125,17.5,False,0
3.4857029914855957,7.597211754999999,-2.4945175605,1.9190437251999999,-18.558750000000003,22.07625,10.920000000000002,8.404550100239998,-3.6707394198124987,2.8344180108299994,14.509249999999998,8.341375,7.4983125,17.5,False,0
3.496100902557373,7.3447689707,-2.4873390927,2.38145669265,-21.472500000000004,20.7725,7.008750000000001,8.2632838359925,-3.5590843352399992,2.798585492395,12.773687499999998,9.425500000000001,8.629249999999999,17.5,False,0
3.506596803665161,7.533203750449999,-2.3437697366999997,2.7589244577999996,-15.540000000000001,16.975,3.2025,8.1358062119775,-3.43920392298,2.7801607583749997,10.9563125,10.302249999999999,9.3708125,17.5,False,0
3.5170745849609375,7.5050880849,-2.5842484079999997,2.8582265956999997,-5.8100000000000005,19.372500000000002,-1.9425000000000001,8.024420319947499,-3.3185159330925,2.76634220786,9.156,11.177249999999999,9.7199375,17.5,False,0
3.527362823486328,7.221538606799999,-3.0125636533999995,2.9180471606999996,3.9287500000000004,22.321250000000003,-4.1475,7.908577795824999,-3.2189146923674996,2.7493531674,7.473812499999999,12.152875000000002,9.7890625,16.5,False,0
3.537670612335205,7.274180703999999,-3.3894332128999998,2.5872394362499995,1.7237500000000001,23.677500000000002,-3.5262500000000006,7.789026396672499,-3.1479675022774996,2.7334708073925,5.7001875,13.375687500000002,9.744437499999998,17.5,False,0
3.5480716228485107,7.406384152649999,-3.768695595,2.1672990699499994,-4.138750000000001,24.727500000000003,-4.777500000000001,7.6976803939175,-3.1019056672275,2.7011078817275,3.3932499999999997,14.690812499999998,9.571187499999999,17.5,False,0
3.558654546737671,7.470392157199999,-4.1814574935,2.0901305410999997,-8.338750000000001,23.957500000000003,-6.055000000000001,7.623921637272501,-3.072085115575,2.6653950044224994,1.1318125,16.105249999999998,9.236499999999996,17.5,False,0
3.569012403488159,7.3375905028999995,-4.380061769299999,2.14935290045,-10.228750000000002,17.990000000000002,-4.970000000000001,7.5689166277550015,-3.065504853425,2.6357240041824994,-0.59325,17.23575,8.728999999999997,17.5,False,0
3.5793774127960205,7.5314091335,-4.709673082449999,2.3425733254,-15.881250000000001,12.005,-5.232500000000001,7.525337346152502,-3.0744480278925,2.6090440321924993,-2.0094374999999998,17.938375,7.972124999999998,16.5,False,0
3.5896975994110107,7.40518774135,-4.767100824849999,2.7559334295499998,-22.6975,9.3975,-5.1537500000000005,7.490222674497501,-3.1138996905100003,2.5908884907149994,-3.1390625,18.275687500000004,6.967187499999996,17.5,False,0
3.6002213954925537,7.3220371559999995,-4.8430729424,3.1070801461,-29.715000000000003,9.31,-3.3075,7.454569617757501,-3.1720751899725,2.579253390822499,-4.437125,18.332124999999998,5.876937499999998,17.5,False,0
3.6107735633850098,7.3208407447,-4.80658239775,3.1854450862499997,-36.07625,9.59875,-1.3650000000000002,7.416792930960002,-3.2528927732875,2.604198566427499,-5.846312500000001,18.420062500000004,4.854500000000001,17.5,False,0
3.621241331100464,7.2035924373,-4.845465764999999,3.4157542615,-39.96125000000001,12.258750000000001,-0.5775,7.3854469549,-3.3517761672324995,2.614517613889999,-7.527625000000002,18.452000000000005,4.010125000000001,17.5,False,0
3.631765127182007,7.2083780824999995,-4.88434913225,3.3906296242,-44.003750000000004,10.2725,0.7962500000000001,7.3587968931925,-3.4566416176774992,2.6234308780749993,-9.691062500000001,18.348750000000006,3.2226250000000016,17.5,False,0
3.6423001289367676,7.4452675199,-4.6301117309999995,3.4719855925999994,-46.725,6.16875,1.60125,7.3497639878775,-3.5704502425899998,2.6367409537874993,-12.495000000000003,17.983875000000005,2.380874999999999,17.5,False,0
3.6528172492980957,7.853243773199999,-4.28973271615,3.6047872469,-47.6525,2.10875,1.9862500000000003,7.3616682803125,-3.6685260589075,2.6670400699599996,-15.627937500000002,17.31843750000001,1.6498124999999995,17.5,False,0
3.6631572246551514,8.431708636749999,-3.86500670465,3.67836654185,-44.16125,-1.0150000000000001,0.9975,7.399923531629999,-3.7471003710349997,2.7189942306624997,-18.791500000000003,16.363375000000005,1.0136875,17.5,False,0
3.6735451221466064,8.8642113217,-3.6514472876,3.7776686797499996,-36.96,-3.5525,-3.9550000000000005,7.46584579426,-3.808745463267499,2.7938895780425,-21.503125000000004,15.138375000000005,0.23625000000000007,16.5,False,0
3.6839590072631836,9.026325052849998,-3.9960137419999997,4.2281175342,-23.3625,-6.326250000000001,-6.4750000000000005,7.551419112492501,-3.865933923407499,2.8823641936775,-23.166937500000003,13.664000000000001,-0.6763750000000002,16.5,False,0
3.6945509910583496,9.43549771745,-3.9098721283999995,3.3846475676999996,-13.90375,-8.3475,-9.51125,7.65212703367,-3.9346079320274994,2.97224459259,-23.620187500000004,12.167750000000002,-1.668625,16.5,False,0
3.7050061225891113,9.61137017855,-4.151547211,3.1555348037499997,-9.607500000000002,-9.24,-13.055000000000001,7.7505617733775,-4.023351740204999,3.01280293566,-23.038750000000004,10.657937500000003,-2.7439999999999998,17.5,False,0
3.718040704727173,9.47617570165,-4.876572458799999,3.32781803095,-11.4625,-12.048750000000002,-17.841250000000002,7.860272689587501,-4.138177314722499,3.0437002574825,-22.544812500000006,9.220750000000004,-3.7646875,17.5,False,0
3.728653907775879,9.198010074399999,-5.4628139957999995,3.2979077484499997,-20.29125,-14.743750000000002,-20.04625,7.9488370360700005,-4.2800716949024995,3.05850584732,-22.71193750000001,7.668937500000004,-4.752562500000001,16.5,False,0
3.7398407459259033,8.97727218955,-5.992824201699999,3.5407792423499993,-26.608750000000004,-16.03875,-18.48,8.032645647635,-4.424239256552499,3.0784560057475,-23.849437500000004,5.8489375000000035,-5.5496875,17.5,False,0
3.7502548694610596,8.5483587385,-6.1567325498,3.7160534977999995,-31.325000000000003,-16.6075,-16.66,8.11561677129,-4.572414796057499,3.121496902265,-25.443250000000003,3.9147500000000024,-6.2216875,17.5,False,0
3.7607007026672363,8.3126657124,-6.2333028729999995,3.8153556357,-32.1475,-19.13625,-14.822500000000002,8.169754382614999,-4.705814656007499,3.1947770943899996,-26.974937500000003,1.8038125,-6.834625000000001,17.5,False,0
3.7712137699127197,7.93639435855,-6.00538652035,3.9050864831999994,-26.512500000000003,-23.79125,-12.836250000000001,8.205198067377498,-4.8197130117675,3.2847173138674997,-28.158812500000003,-0.5691875000000006,-7.2695000000000025,17.5,False,0
3.7815537452697754,7.7539416352999995,-5.84267458355,4.1455651545,-17.692500000000003,-29.277500000000003,-8.373750000000001,8.219465272129998,-4.89595432186,3.3849765808075,-28.874125,-3.0349375000000007,-7.541625000000002,17.5,False,0
3.7917966842651367,7.421339293899999,-5.5788658919,4.3752761241,-11.585,-31.167500000000004,-4.523750000000001,8.22736158671,-4.951647267875,3.4854751300074995,-28.951125,-5.279750000000002,-7.513187500000001,17.5,False,0
3.802457571029663,7.33220665205,-5.359922623999999,4.46560517725,-11.5675,-34.615,-0.49000000000000005,8.2206915937125,-4.98795835083,3.578167095474999,-28.573124999999997,-7.424812500000002,-7.371,17.5,False,0
3.8129096031188965,7.286144816999999,-4.9160540317,4.9674997176,-14.962500000000002,-35.0,-0.23625000000000002,8.2403127390325,-4.9931328297025,3.641098329855,-27.90462500000001,-9.678374999999999,-7.1168125,17.5,False,0
3.8231735229492188,6.960720943399999,-4.876572458799999,5.274977421699999,-19.45125,-32.06,-4.558750000000001,8.22999369157,-4.9925346240524995,3.7171003576874995,-27.124562500000007,-11.9468125,-7.0748125,16.5,False,0
3.8333845138549805,6.51266491155,-4.924428910799999,5.70628369535,-21.910000000000004,-28.97125,-4.01625,8.207321697435,-4.9893641341074995,3.818885049034999,-26.2268125,-14.0669375,-7.254625000000002,16.5,False,0
3.8437283039093018,6.147759465049999,-4.992624354899999,6.3110696074999995,-18.10375,-23.082500000000003,-1.4175000000000002,8.169754382615,-4.9857749002075,3.939961872594999,-25.166749999999997,-16.009000000000004,-7.424375,17.5,False,0
3.854105234146118,6.217151320449999,-4.39142767665,6.576672916100001,-8.277500000000002,-19.0925,0.28,8.114958745074999,-4.983262436477499,4.076621953337499,-23.588687500000002,-17.5520625,-7.523687500000001,17.5,False,0
3.8645944595336914,6.382256079849999,-4.06959303695,6.31525704705,6.195,-17.080000000000002,0.6300000000000001,8.046224915889997,-4.9654359081075,4.221088617812499,-21.3556875,-18.676437500000002,-7.546875000000003,17.5,False,0
3.875115156173706,6.436692794,-4.22751932855,5.75653296995,24.4125,-15.513750000000002,-2.8000000000000003,7.9657961662474985,-4.95529632234,4.3486260623924995,-18.289250000000003,-19.537,-7.650125000000001,17.5,False,0
3.8853604793548584,6.617949105949999,-3.7950166436,5.8390853496499995,41.081250000000004,-13.562500000000002,-7.603750000000001,7.868557837839998,-4.976293340654999,4.4652761641425,-14.620375000000001,-20.132875000000006,-7.861437500000003,17.5,False,0
3.895754337310791,6.860222394199999,-4.53380062135,5.28993256295,59.12375000000001,-12.976250000000002,-9.485000000000001,7.7582188056974974,-4.9994738095925,4.5638604552625,-10.545062500000004,-20.56425000000001,-8.054375000000002,17.5,False,0
3.9061901569366455,6.9176501366,-3.8727833781,4.923232499499999,70.525,-8.8375,-9.922500000000001,7.644320449937498,-5.0166722220299995,4.6534118410675,-6.233062500000002,-20.708625000000005,-8.100312500000003,17.5,False,0
3.9167861938476562,7.0049881615,-4.36510662805,4.756333123149999,81.71625,-6.352500000000001,-11.086250000000001,7.523782011462499,-5.001896542475,4.7503510666499995,-1.8996250000000003,-20.695937500000007,-8.1405625,17.5,False,0
3.9272260665893555,6.9523460642999995,-4.298107595249999,4.126422573699999,88.56750000000001,-2.2750000000000004,-11.795000000000002,7.398039183832502,-4.973392043252501,4.812684095379999,2.869124999999999,-20.4343125,-7.902562499999999,17.5,False,0
3.9376540184020996,7.194619352549999,-4.334598139899999,3.2566315585999996,85.48750000000001,1.11125,-10.937500000000002,7.289554589205002,-4.936572485495001,4.8428934807049995,8.042125000000002,-19.791625000000003,-7.546437499999999,17.5,False,0
3.948007822036743,7.867002503149999,-4.34835686985,2.2977079016499995,74.23500000000001,-2.0387500000000003,-13.475000000000001,7.210711084534999,-4.874269367047499,4.817679112557499,13.349875000000003,-18.980937500000003,-7.1785,17.5,False,0
3.9586968421936035,8.47238662095,-4.286741687899999,1.3812568458499999,52.167500000000004,-5.468750000000001,-17.535,7.165367096265001,-4.783192556835,4.7307598316125,18.0565,-18.38156250000001,-7.097125,16.5,False,0
3.9691619873046875,8.650053698999999,-4.308875296949999,0.8392825269499998,26.862500000000004,-10.40375,-21.13125,7.165606378525,-4.685326112495,4.594847507932499,21.7455,-17.815000000000005,-7.2204999999999995,16.5,False,0
3.9795048236846924,8.6153577713,-4.2544385828,0.5545366375499999,4.305000000000001,-17.246250000000003,-24.867500000000003,7.1886971166150015,-4.59122836375,4.4233718583599995,24.0961875,-17.38493750000001,-7.6418125,16.5,False,0
3.9900028705596924,8.489734584799999,-3.9942191250499994,1.0396814197,-16.2925,-26.635,-28.087500000000002,7.2304219607025,-4.51549552846,4.264488437719999,25.003125000000004,-17.05637500000001,-8.4415625,17.5,False,0
4.0004987716674805,8.7625163612,-4.1599220901,1.6372888640499998,-34.790000000000006,-28.726250000000004,-26.740000000000002,7.2794748240025005,-4.4118264893150005,4.09974260171,24.49125,-16.979375000000008,-9.552375000000001,17.5,False,0
4.01115083694458,8.4239319633,-3.1998020218499996,1.6821542877999998,-39.611250000000005,-32.515,-25.261250000000004,7.34644394652,-4.329842404982501,3.96981233453,23.201062500000003,-16.859937500000004,-10.8136875,17.5,False,0
4.021442890167236,8.19481919935,-4.1850467274,2.5112673186999994,-43.548750000000005,-33.486250000000005,-23.922500000000003,7.394719142475,-4.290929127450001,3.877060548497499,21.810250000000003,-16.700250000000004,-12.109125,16.5,False,0
4.042876720428467,8.42094093505,-4.0390845488,2.8259234905999997,-51.24,-34.580000000000005,-21.848750000000003,7.4497241519925,-4.2580278167,3.7531123378174995,20.33325,-16.7055,-13.168312500000003,16.5,False,0
4.066725730895996,8.333602910149999,-4.1886359613,3.5665020853,-57.86375,-32.2875,-31.823750000000004,7.530721197002499,-4.2116967891075,3.654737418675,18.470812500000008,-16.7978125,-14.354812500000003,16.5,False,0
4.081690311431885,7.456633427249999,-4.8155554825,4.0833517669,-57.14625,-31.955000000000002,-30.905000000000005,7.600202783249999,-4.189862282882499,3.5562129481199998,16.649937500000007,-17.084375,-15.827000000000004,17.5,False,0
4.096210479736328,6.844669047299999,-5.23250482055,4.9112683865,-48.588750000000005,-26.34625,-18.0775,7.656763127457499,-4.2010487285375,3.469562859717499,14.532000000000007,-17.539812500000004,-17.167062500000004,16.5,False,0
4.11324143409729,6.895516527549999,-5.45264449975,5.274977421699999,-30.196250000000003,-21.97125,-11.436250000000001,7.6870024230650005,-4.267658927665,3.4116864630799997,12.519500000000004,-17.819812500000005,-18.032437500000004,17.5,False,0
4.128183364868164,6.800401829199999,-5.6697931507,5.341378248849999,-17.438750000000002,-23.24875,-5.04875,7.701957564315,-4.3507796027325,3.3766615222725003,10.451875000000005,-18.227562500000005,-18.513250000000003,17.5,False,0
4.145319223403931,6.8721865072,-5.773880933799999,5.1044888114499996,-13.46625,-23.065,0.7612500000000001,7.7105418153925,-4.4303110439,3.3391241177349995,8.175562500000002,-18.711875000000003,-18.3045625,16.5,False,0
4.160275220870972,7.083951307299999,-5.1110690735999995,4.791029050849999,-21.86625,-18.62875,4.7250000000000005,7.721758171329999,-4.5056251352349985,3.3099915025799995,4.864125000000003,-19.144125000000003,-17.6833125,17.5,False,0
4.182064056396484,7.304090986499999,-4.845465764999999,5.5812587145,-37.415000000000006,-5.1275,4.43625,7.7410203932599995,-4.546452670847499,3.3044880106,0.103687499999997,-19.2600625,-16.988125,17.5,False,0
4.1924521923065186,7.2490560667,-4.2975093896,5.79362172025,-39.66375,2.19625,3.5787500000000003,7.7628249892025,-4.584528460469999,3.32853587773,-5.716812500000001,-18.9529375,-16.236062500000003,17.5,False,0
4.202878952026367,7.2047888486,-4.41655231395,5.6279187552000005,-32.375,5.652500000000001,2.1,7.766115120277497,-4.599663063414999,3.3856046967399998,-11.892125000000002,-18.505375,-15.5071875,17.5,False,0
4.213327884674072,7.183851650849999,-4.6546381626499995,5.696114199299999,-20.685000000000002,4.4975000000000005,2.7387500000000005,7.763692387394999,-4.599962166239999,3.4804202922649994,-17.691625000000002,-18.157125,-14.821187500000002,17.5,False,0
4.223712921142578,6.9655065886,-4.5379880609,5.569294601499998,-6.553750000000001,5.53875,6.65,7.738448108965,-4.60833704534,3.6217164667949993,-22.4546875,-17.852624999999996,-14.008750000000001,17.5,False,0
4.234198808670044,7.001398927599999,-4.429114632599999,5.266004336949999,4.803750000000001,4.296250000000001,9.94875,7.6926554664574995,-4.618147618,3.7993835448449986,-25.722375,-17.43525,-12.824875,17.5,False,0
4.244764804840088,6.7992054179,-4.56610372645,5.108078045349999,7.875000000000001,7.630000000000001,10.815000000000001,7.616144963822499,-4.62759926727,4.005465391269999,-27.4203125,-16.889249999999997,-11.3736875,17.5,False,0
4.25515079498291,6.6717876144499995,-4.593621186349999,5.02552566565,1.77625,13.658750000000001,12.346250000000001,7.520461970104999,-4.64662220694,4.236612054429999,-27.9505625,-15.690499999999995,-9.680125000000004,17.5,False,0
4.265405654907227,6.708278159099999,-4.3501514868,4.75992235705,-4.4275,20.098750000000003,13.93875,7.425975387687499,-4.6450369619675005,4.4382372687624985,-27.779500000000002,-13.829812499999997,-7.6610625000000026,17.5,False,0
4.2757768630981445,6.7453669093999995,-4.1802610821999995,4.7641097966,-10.027500000000002,24.12375,13.46625,7.335137859734999,-4.675336078140001,4.626881420489998,-26.894874999999995,-11.306749999999997,-5.635437500000003,17.5,False,0
4.286308526992798,6.829713906049999,-3.785445353199999,4.926821733400001,-11.838750000000001,30.187500000000004,13.265,7.240950380142499,-4.6876890248125,4.778197539657499,-25.586750000000002,-8.4643125,-3.5752500000000027,17.5,False,0
4.2970075607299805,7.125825702799999,-3.3266216196499996,4.70010179205,-11.558750000000002,35.682500000000005,10.99,7.1510400709474995,-4.6554158299949995,4.906153728192498,-24.164437500000002,-5.163375000000001,-1.6686250000000022,16.5,False,0
4.307367563247681,7.301099958249999,-2.93539512455,4.60558529935,-5.626250000000001,35.77875,5.416250000000001,7.099325192504997,-4.60295319449,5.010361152422498,-22.3195,-1.592062499999999,-0.04462499999999947,16.5,False,0
4.318107604980469,7.4919275606,-2.8995027855499993,4.0295132584,1.2950000000000002,29.863750000000003,-2.7212500000000004,7.046563454174998,-4.5506401103975,5.063601455272499,-19.572875000000003,1.7364374999999996,1.3943125000000007,16.5,False,0
4.328723430633545,7.633702299649999,-3.3523444625999996,3.7351960785999996,5.74,21.525000000000002,-9.16125,7.035018085129998,-4.483730808444999,5.062375133689999,-16.544062500000003,4.713624999999999,2.681437499999999,16.5,False,0
4.339344263076782,7.56550685555,-3.62452803335,3.5401810366999995,4.235,14.14,-10.885000000000002,7.047670134627498,-4.405276137447499,5.0273202826,-13.430375000000002,7.1868125,3.563000000000001,16.5,False,0
4.349776268005371,7.334599474649999,-4.1599220901,3.7938202322999994,-5.075,11.8825,-13.177500000000002,7.0791656620999985,-4.3273598515349985,4.946113865612499,-11.249875000000001,8.985812500000002,3.7533125000000007,16.5,False,0
4.360116481781006,6.925426810049999,-4.67976279995,4.3046878574,-19.040000000000003,15.093750000000002,-10.05375,7.097231472729999,-4.272624034559998,4.873252417442499,-10.458000000000002,10.852187500000001,3.626,17.5,False,0
4.370729207992554,6.787241304899999,-4.789234433899999,4.90349171305,-32.768750000000004,19.293750000000003,-2.5200000000000005,7.0947489192825,-4.221956016005,4.837808732679999,-11.095000000000002,12.862062500000002,3.3381250000000002,17.5,False,0
4.381324291229248,7.3028945752,-4.3094735025999995,5.3575298014,-34.448750000000004,24.858750000000004,2.5812500000000003,7.101000168325001,-4.1799918896575,4.841068953472499,-12.023375000000001,15.061375000000002,3.1810625000000003,17.5,False,0
4.391629219055176,7.635496916599999,-4.264608078849999,5.308476938099999,-25.856250000000003,28.035000000000004,0.74375,7.1044398508125,-4.140001841955,4.841368056297499,-11.986187500000003,16.9833125,3.0511250000000003,16.5,False,0
4.402109146118164,7.85743121275,-4.45962312075,5.00279385095,-16.555000000000003,28.122500000000002,-2.6862500000000002,7.134409953877499,-4.12199585189,4.831138739682499,-11.105062500000003,18.473,2.7838125000000002,16.5,False,0
4.412677049636841,7.886743289599999,-4.7808595548,4.506283161449999,-12.328750000000001,26.950000000000003,-6.4750000000000005,7.170392023725,-4.13144750116,4.792763847234999,-9.928625,19.654249999999998,2.391375,17.5,False,0
4.423233985900879,7.6672018160499995,-5.24925457875,4.3334017286,-14.227500000000001,25.200000000000003,-9.318750000000001,7.221119862845001,-4.1509789156325,4.7320160634775,-9.1634375,20.625062500000006,1.8939374999999998,17.5,False,0
4.433491945266724,7.58106020245,-5.79003248635,4.191028783899999,-20.212500000000002,24.185000000000002,-7.813750000000001,7.259076011337501,-4.184717714292499,4.664538466157499,-9.2640625,21.552125000000004,1.2228125000000003,17.5,False,0
4.44398307800293,7.53739119,-5.714658574449999,4.167698763549999,-26.958750000000002,22.505000000000003,-3.4475000000000002,7.281598454060001,-4.248695808559999,4.598436741832499,-10.44225,22.4665,0.5075000000000003,16.5,False,0
4.454460859298706,7.585845847649999,-5.508277625199999,4.253242171499999,-35.9275,22.898750000000003,0.5425000000000001,7.31545689385,-4.317908202265,4.5483968392100005,-12.400937500000001,23.38175,-0.08356249999999901,16.5,False,0
4.464972019195557,7.639684356149999,-5.4759745201,4.6348973762,-40.59125,22.30375,1.82875,7.3589763548875,-4.36127811189,4.51059024213,-14.6330625,23.989,-0.5639375000000002,17.5,False,0
4.475183963775635,7.5110701413999985,-5.279763066899999,4.98006203625,-35.93625,23.3625,0.83125,7.40602522926,-4.4185563028775,4.50305285094,-16.5510625,24.289562500000002,-1.1773125000000002,17.5,False,0
4.4853997230529785,7.741379316649999,-4.756333123149999,4.9878387097,-29.286250000000003,24.71,0.58625,7.447421060240001,-4.4570807467375,4.5178584407775,-17.8465,24.398062500000005,-1.7937500000000004,17.5,False,0
4.495585680007935,7.87298455965,-4.575675016849999,4.65942380785,-21.437500000000004,23.590000000000003,-2.2225,7.509215703885,-4.490281160312501,4.5203110839425,-18.592000000000006,24.2725,-2.5335625,17.5,False,0
4.506164789199829,7.856833007099999,-4.5032921331999995,4.1479579771,-15.23375,21.551250000000003,-4.9262500000000005,7.5566235016475005,-4.5395134853075,4.4964426785075,-18.894750000000002,23.739625000000004,-3.3276250000000003,17.5,False,0
4.516648769378662,7.340581531149999,-4.9854458871,4.528416770499999,-13.133750000000001,20.11625,-9.152500000000002,7.586264591605001,-4.610490585680001,4.477629110814999,-19.116125000000004,22.960875000000005,-4.219250000000001,17.5,False,0
4.527041673660278,7.064210520849999,-5.15593449735,4.740779776249999,-21.953750000000003,20.8425,-5.55625,7.564340354532502,-4.709792723580001,4.475864404147499,-19.745687500000003,22.247312500000003,-4.652375000000001,16.5,False,0
4.537413597106934,6.5383877545,-4.7090748768,5.252843812649999,-31.4825,27.352500000000003,-1.435,7.529315413725001,-4.80215567594,4.522973099084998,-21.202125000000002,22.037750000000006,-4.562250000000001,16.5,False,0
4.5477375984191895,6.323033720499999,-4.427320015649999,5.44307320935,-41.86000000000001,30.450000000000003,1.7237500000000001,7.476075110874999,-4.887399981065,4.603371938444999,-23.479312500000002,22.661625000000004,-4.092375000000001,17.5,False,0
4.558619737625122,6.5838513839,-3.79920408315,5.69073034845,-37.721250000000005,37.66875,6.098750000000001,7.4207111779675,-4.9089652947474995,4.6977987002975,-25.5605,23.738750000000007,-3.2685625000000007,16.5,False,0
4.569087505340576,6.6855463444,-3.47976226605,5.288137946,-22.758750000000003,37.3975,4.322500000000001,7.395646361232499,-4.877738959817499,4.773920369259999,-26.687937500000004,25.006625000000007,-2.342375,16.5,False,0
4.579521417617798,6.7334027964,-3.4887353508,4.5882373355,-6.4750000000000005,33.5825,-0.27125000000000005,7.393343269480001,-4.816602342387499,4.7936312454275,-26.152000000000005,25.983562500000005,-1.9009375000000002,17.5,False,0
4.5926244258880615,6.380461462899999,-3.6526436989,3.2039894614,4.313750000000001,25.383750000000003,-2.66875,7.374828804612501,-4.753850569702498,4.735754848789999,-24.2935,26.30162500000001,-1.9980625,16.5,False,0
4.6030213832855225,6.63230604155,-3.1609186545999997,2.5435704238,4.077500000000001,22.137500000000003,-3.3687500000000004,7.337201669227501,-4.698067892839999,4.628137652354999,-22.582875,26.13450000000001,-2.279375,16.5,False,0
4.613290309906006,6.485147451649999,-2.9629125844499997,2.333002035,-3.75375,21.16625,-4.38375,7.268886583997499,-4.631278232017499,4.494887343817499,-21.427,25.816437500000006,-2.4311875000000005,17.5,False,0
4.623575210571289,6.426523297949999,-3.12801734385,1.76650128445,-13.90375,23.703750000000003,-3.7362500000000005,7.19617468724,-4.5442991305075,4.364807525225,-21.1115625,25.530750000000005,-2.4596250000000004,16.5,False,0
4.6340110301971436,7.1395844327499995,-2.5579273594,1.8161523534,-19.06625,20.973750000000003,-2.07375,7.124449829805,-4.420261188979999,4.2315572166874995,-21.419125,25.374125000000006,-2.2290625,16.5,False,0
4.644520282745361,7.274180703999999,-1.75214434885,2.0105691896499995,-15.120000000000001,16.6075,-5.495,7.094808739847499,-4.263680860092499,4.113202228835,-21.6173125,25.12431250000001,-1.9188750000000003,17.5,False,0
4.654968976974487,7.3555366724,-2.0231315082999997,3.0197421211999997,2.5375,9.8175,-9.975000000000001,7.090711031145001,-4.067947971412499,4.025265998285,-20.8105625,24.615500000000004,-1.9888750000000002,17.5,False,0
4.665330171585083,7.4177500599999995,-2.47716959665,3.7220355542999997,24.132500000000004,5.433750000000001,-15.365000000000002,7.079913419162499,-3.8872001342649987,3.9857246048199997,-18.5955,23.839375000000004,-2.4889375,16.5,False,0
4.675634145736694,7.781459095199999,-4.073182270849999,4.3860438258,39.313750000000006,2.31,-16.458750000000002,7.071897463452499,-3.75780825217,3.9524045501149994,-15.015875,22.916687500000005,-3.3499375000000007,17.5,False,0
4.686161041259766,7.398009273549999,-3.8213376921999997,3.2159535744,50.67125000000001,-1.4787500000000002,-15.627500000000001,7.06768011362,-3.6695430085125005,3.8603407005799992,-10.768187500000005,21.88375000000001,-4.216625000000001,17.5,False,0
4.696710824966431,7.499704234049998,-4.51824727445,3.2219356309,54.005,-6.125000000000001,-11.182500000000001,7.064539533957499,-3.6381372118875,3.7628930001949996,-6.492937500000002,20.506062500000006,-4.946812500000002,16.5,False,0
4.70719313621521,7.52961451655,-4.58046066205,3.02632238335,51.66875,-7.883750000000001,-7.026250000000001,7.0395943583525,-3.632962733015,3.6682568663649997,-2.532687499999999,19.015937500000003,-5.3764375000000015,17.5,False,0
4.71753191947937,7.714460062399999,-4.81974292205,3.0149564759999996,41.895,-8.443750000000001,-3.42125,7.022156663654999,-3.6433116907599996,3.6070006078049994,0.8430625000000009,17.473750000000003,-5.457375000000001,17.5,False,0
4.7279088497161865,7.829913752849999,-4.808975220349999,2.7194428849,28.840000000000003,-9.065000000000001,-0.026250000000000002,7.020003123314998,-3.655694547715,3.5377882140999994,3.4216875000000018,16.003750000000004,-5.1174375,17.5,False,0
4.738569021224976,7.978268754049999,-4.90708094695,2.68654157415,9.852500000000001,-11.78625,3.0975,7.070880513847499,-3.655844099127499,3.4452757103275005,5.243875000000001,14.5140625,-4.6633125,17.5,False,0
4.749179840087891,8.1092757914,-4.7796631435,2.77627242165,0.11375000000000002,-18.36625,7.796250000000001,7.123941355002499,-3.6512977361874994,3.33810716813,6.8289375,12.693625,-4.1545000000000005,17.5,False,0
4.759483575820923,8.3090764785,-4.9854458871,3.5018958750999993,-1.9162500000000002,-24.325000000000003,11.707500000000001,7.214150767022501,-3.6467513732474997,3.22373024785,8.675187500000002,10.121562500000005,-3.6452500000000008,17.5,False,0
4.76996374130249,8.542376681999999,-4.8795634870499995,3.8057843452999998,-3.9375000000000004,-29.032500000000002,16.59,7.3086373494400005,-3.6720554722425,3.1294530374099994,10.5984375,7.208687500000002,-3.162250000000001,17.5,False,0
4.780332565307617,8.89471980985,-4.167698763549999,4.414757697,-6.0287500000000005,-29.321250000000003,19.110000000000003,7.408747064967502,-3.7281372519300007,3.0540791255099995,11.983125000000003,3.9016250000000015,-2.601375,17.5,False,0
4.79100775718689,9.017950173749998,-4.82811780115,4.6743789491,-5.1537500000000005,-26.250000000000004,23.5725,7.502515800604999,-3.80781824451,3.0457042464099997,12.472249999999999,0.7161875000000011,-1.6555,17.5,False,0
4.80130672454834,9.131011041599999,-4.5726839886,4.82811780115,-0.8750000000000001,-25.2175,23.695000000000004,7.6162945152349995,-3.8655450897349994,3.0877880138875,12.1979375,-1.9705000000000024,-0.3600624999999999,17.5,False,0
4.81155252456665,9.312267353549998,-4.3561335432999995,4.8107698373,4.90875,-24.08875,20.160000000000004,7.7464341543925,-3.9372101266049997,3.1673493653374996,12.031250000000002,-4.371937500000001,0.9782500000000003,17.5,False,0
4.821808338165283,9.33619557955,-4.2388852359,4.718646167199999,11.943750000000001,-26.206250000000004,17.92,7.88291477344,-3.998466385165,3.2761031525075004,12.341000000000001,-6.7099375000000006,2.19625,17.5,False,0
4.832411289215088,9.2626162846,-4.1336010414999995,4.601996065449999,19.31125,-29.207500000000003,13.693750000000001,8.0268131425475,-4.058496322142499,3.3998120809275,13.481562499999999,-9.163,3.2235,16.5,False,0
4.8429114818573,8.956933197449999,-3.9936209193999996,4.613960178449999,24.185000000000002,-30.651250000000005,8.855,8.148368530627499,-4.145295961957499,3.5408091526325003,15.507187499999997,-11.804625000000001,3.9418750000000005,17.5,False,0
4.8531653881073,8.556135411949999,-4.3034914461,4.6133619728,24.96375,-30.152500000000003,6.772500000000001,8.230681628067499,-4.251985939635,3.676631745465001,17.7323125,-14.322,4.5045,17.5,False,0
4.863440275192261,8.23549718355,-4.35912457155,4.5906301581,25.33125,-29.898750000000003,5.31125,8.28359291781,-4.37491720071,3.789662703032499,19.3379375,-16.4819375,5.163375,17.5,False,0
4.873623371124268,7.9226356286,-4.30767888565,4.5433719117499995,25.637500000000003,-28.97125,4.64625,8.3204124755675,-4.48091924189,3.8467315220425,19.953062499999998,-18.310687500000004,5.9959375,17.5,False,0
4.8840343952178955,7.65045205785,-4.302295034799999,4.408775640499999,26.031250000000004,-29.207500000000003,3.6225000000000005,8.338358645067498,-4.549443699097499,3.886542108049999,19.615750000000002,-19.949125000000002,6.977250000000001,17.5,False,0
4.894618034362793,7.4560352216,-4.326821466449999,4.334598139899999,24.325000000000003,-29.417500000000004,3.5175000000000005,8.337371605745,-4.576542415042499,3.9592240945249997,18.6396875,-21.499625,7.9799999999999995,17.5,False,0
4.905057191848755,7.3088766317,-3.9786657781499994,4.119244105899999,21.988750000000003,-30.5725,2.5025000000000004,8.3337524615625,-4.567479599444999,4.018895108112499,17.213,-22.854125000000003,8.7924375,17.5,False,0
4.915378093719482,7.353742055449999,-4.04087916575,4.021736584949999,15.9075,-30.651250000000005,0.22750000000000004,8.326603904045,-4.537928240334999,4.068605997627499,15.535187499999997,-24.100125000000006,9.3524375,17.5,False,0
4.925570011138916,7.1617180418,-3.8488551520999996,3.9194434187999994,15.96,-31.517500000000002,-0.23625000000000002,8.3106019029075,-4.494648061557498,4.110450482845001,13.942687500000002,-25.230625,9.594375000000001,17.5,False,0
4.936078071594238,7.031907415749999,-3.77168662325,3.9732819272999995,16.54625,-31.237500000000004,-1.6187500000000001,8.279525119389998,-4.445146544019999,4.160101551795,12.8830625,-26.377312500000006,9.6635,17.5,False,0
4.947214126586914,6.908078846199999,-3.8518461803499995,4.15932388445,20.69375,-29.207500000000003,-2.3975000000000004,8.231549026259998,-4.391846420605,4.231078652167499,12.736937500000003,-27.391875000000006,9.5160625,17.5,False,0
4.957502841949463,6.908078846199999,-3.912264951,4.27059013535,27.343750000000004,-24.937500000000004,-1.9425000000000001,8.1791163010375,-4.3458144958375,4.308067719322499,13.593125000000004,-28.091,9.161687500000001,17.5,False,0
4.967895030975342,6.947560419099998,-3.9948173306999997,4.17846646525,34.97375,-19.477500000000003,-2.33625,8.111160139197498,-4.292185359315,4.368307028277499,15.247312500000001,-28.198625000000003,8.584625,17.5,False,0
4.978439807891846,6.9637119716499996,-4.223331889,3.9954155363499995,41.41375000000001,-17.01,-3.2637500000000004,8.045088325154998,-4.25216540133,4.39023126535,17.223062500000005,-27.878375,7.758187500000001,17.5,False,0
4.989055633544922,6.947560419099998,-4.44048053995,3.8392838617,45.228750000000005,-16.555000000000003,-3.2287500000000002,7.958677519012499,-4.21950337284,4.38400992659,19.657312500000003,-27.292562500000003,6.7226250000000025,17.5,False,0
5.002185821533203,6.7417776755,-4.7216371954500005,4.0283168471,44.572500000000005,-14.367500000000001,-3.6575,7.870621647332499,-4.2014076519275,4.3421056208075,22.2683125,-26.7176875,5.46175,17.5,False,0
5.01272988319397,6.76630410715,-4.81974292205,3.99182630245,36.07625,-8.4,-3.9550000000000005,7.756454099029999,-4.2038602950924995,4.3026240479075,24.508312500000002,-26.051374999999997,4.082312500000001,17.5,False,0
5.023238658905029,6.787241304899999,-4.87836707575,3.8560336199,26.118750000000002,-1.3125000000000002,-5.7225,7.6309206433775,-4.218217230692499,4.2612581272100005,26.0719375,-25.084062499999998,2.6661250000000005,17.5,False,0
5.033467531204224,6.8165533817499995,-4.992026149249999,3.8123646074499993,16.528750000000002,2.3800000000000003,-6.4662500000000005,7.506344316765,-4.2512980031374985,4.2158244080925,26.81175,-23.816625000000002,1.3523124999999994,17.5,False,0
5.043977737426758,7.265207619249999,-7.108477738949999,4.29451836135,9.686250000000001,6.947500000000001,-6.308750000000001,7.380930502242501,-4.299782571069999,4.17511651361,26.720750000000002,-22.253000000000004,0.2362499999999998,16.5,False,0
5.054527521133423,6.9583281208,-5.263611514350001,3.7806597079999995,4.138750000000001,7.262500000000001,-3.3950000000000005,7.276214603209999,-4.3178782919825,4.13312247698,26.012437500000004,-20.605375000000006,-0.5569375000000003,16.5,False,0
5.0651116371154785,6.936194511749999,-5.0512485086,4.146761565799999,1.6887500000000002,7.866250000000001,-4.38375,7.196892534019999,-4.354309016067499,4.122055672455,24.912125000000007,-18.690000000000005,-1.1738125,17.5,False,0
5.075422525405884,7.152744957049999,-4.9172504429999995,4.7629133853,-0.9625000000000001,8.54875,-5.2675,7.128427897377499,-4.388975033484999,4.103989861825,23.692812500000006,-16.757562500000002,-1.6786874999999999,17.5,False,0
5.085840463638306,7.187440884749999,-5.045864657749999,4.59960324285,-0.385,12.048750000000002,-5.71375,7.073931362662501,-4.424897282767499,4.0963627397875,22.378562500000008,-14.814625000000003,-2.2098125000000004,17.5,False,0
5.0964133739471436,7.074380016899999,-5.27318280475,5.0668018555,2.4325,13.763750000000002,-7.455000000000001,7.038517588182499,-4.463631098605,4.1064125947075,21.118562500000007,-12.724687500000003,-2.7575625000000006,17.5,False,0
5.107036352157593,7.081558484699999,-5.4831529879,4.7168515502499995,7.210000000000001,17.806250000000002,-5.8187500000000005,7.0082184720099985,-4.516751760325,4.1119759072525,20.092625000000005,-10.449250000000003,-3.262875,17.5,False,0
5.117351293563843,7.2071816712,-5.5429735528999995,4.24546549805,8.592500000000001,19.923750000000002,-2.1787500000000004,6.9737319162875,-4.581597252785,4.1157446028475,19.350625000000004,-8.012812500000003,-3.644375,16.5,False,0
5.127535343170166,7.213761933349999,-5.4544391167,3.9750765442499993,5.3637500000000005,24.59625,2.3712500000000003,6.964908382949998,-4.657150626379999,4.122713698669999,18.764812500000005,-5.3869375,-3.7121875,16.5,False,0
5.137715101242065,7.3082784260499984,-5.42393062855,3.53360077455,0.4025,26.005000000000003,2.4675000000000002,6.967121743854999,-4.734229424382499,4.115983885107498,18.068312500000005,-2.5707500000000008,-3.5774375000000007,16.5,False,0
5.147992372512817,7.3220371559999995,-5.408975487299999,3.3092736557999998,-7.7787500000000005,24.587500000000002,1.33875,6.975586353802501,-4.8130729290525,4.0937605452099985,17.058562500000004,0.2926874999999994,-3.4475000000000007,17.5,False,0
5.1584789752960205,7.406384152649999,-5.37248494265,3.2841490184999995,-14.297500000000001,22.137500000000003,-1.33875,6.9947887551675,-4.8904209195975,4.055295921914999,15.588562500000004,2.989875,-3.323687500000001,17.5,False,0
5.168960094451904,7.285546611349999,-5.499304540450001,3.4169506728,-18.40125,21.02625,-1.1287500000000001,7.0145893621825,-4.966422947429999,4.012464397375,13.605375000000004,5.454749999999999,-3.3263125000000002,17.5,False,0
5.179411888122559,7.352545644149999,-5.50767941955,3.55274335535,-20.125000000000004,25.900000000000002,7.490000000000001,7.032326159704999,-5.0453860932299985,3.975794391029999,11.1155625,7.6339375,-3.2046875000000012,17.5,False,0
5.2012810707092285,8.20080125585,-4.89152760005,3.337987527,-18.856250000000003,28.892500000000002,10.5525,7.0759652618725,-5.100750026137499,3.9482769311299997,8.2595625,9.890125000000001,-2.6040000000000005,17.5,False,0
5.218187093734741,8.7852481759,-4.6863430621,2.9647072013999995,-23.240000000000002,26.958750000000002,4.89125,7.1613292081274995,-5.121956416429999,3.9062828944999994,5.051375,12.137562500000001,-2.064125,16.5,False,0
5.23352575302124,8.67816936455,-4.7324048971499995,3.1316065777499995,-30.35375,19.495,-1.09375,7.254679199810001,-5.11980287609,3.8592938406924993,1.3575625000000002,14.145250000000004,-1.775375,17.5,False,0
5.252217769622803,8.475975854849999,-4.758725945749999,3.6574293440999996,-30.598750000000003,18.06875,-2.6250000000000004,7.3521269001950005,-5.113820819589999,3.8220854492625,-2.272812499999999,15.669500000000005,-1.6782499999999996,17.5,False,0
5.275379657745361,8.2600236152,-2.6213371583000002,4.1383866867,-20.580000000000002,21.297500000000003,-2.5725000000000002,7.4344699079175,-5.117978348857499,3.81152711954,-5.217625,16.947000000000006,-1.5141874999999998,17.5,False,0
5.300785541534424,7.5960153436999995,-5.0237310487,3.98225501205,-5.022500000000001,20.212500000000002,-3.7362500000000005,7.4959953590199975,-5.104458901167499,3.8283067880224992,-7.243687500000002,18.114250000000006,-1.3811874999999998,17.5,False,0
5.322089433670044,7.5888368759,-4.89750965655,3.7591243046,-12.8275,15.802500000000002,-2.21375,7.53176805689,-5.086602462514998,3.8103007979575,-8.206187500000002,18.944625000000006,-1.21975,16.5,False,0
5.332578659057617,7.419544676949999,-4.788038022599999,4.0091742663,-17.876250000000002,14.463750000000001,-4.9437500000000005,7.562067173062499,-5.1032624898674985,3.8087454632675,-9.370812500000001,19.552750000000007,-1.1414375,17.5,False,0
5.343200445175171,7.3172515107999985,-5.066203649849999,4.267000901449999,-18.812500000000004,12.048750000000002,-10.255,7.5883882216625,-5.083731075394999,3.7954054772724994,-10.501312500000001,19.720312500000006,-1.3015625000000004,17.5,False,0
5.35387921333313,7.38604516055,-5.038087984299999,4.1826539047999995,-26.635,10.832500000000001,-11.191250000000002,7.591409160194999,-5.050291379559999,3.8191243312949994,-11.693500000000004,19.751812500000007,-1.5448125000000004,17.5,False,0
5.3643574714660645,6.920641164849998,-4.456033886849999,4.106681787249999,-29.557500000000005,10.2725,-14.5775,7.605227710709999,-5.029174720114999,3.817120342367499,-13.030937500000002,19.833625000000005,-1.9705000000000006,16.5,False,0
5.375000238418579,6.722036889049999,-4.6390848157499995,4.4255253987,-23.021250000000002,8.16375,-12.836250000000001,7.597451037259999,-5.008716086884999,3.783172171729999,-14.434875000000002,19.65775,-2.331875,17.5,False,0
5.385375261306763,6.485147451649999,-4.45005183035,4.876572458799999,-11.541250000000002,4.523750000000001,-10.92875,7.5639814311424995,-4.954279372734999,3.7805400668699995,-15.602125000000001,19.173,-2.5996250000000005,17.5,False,0
5.396461248397827,6.93858733435,-4.5080777784,4.59601400895,-3.5525,7.813750000000001,-12.66125,7.564729188205,-4.918895508537499,3.7894832413375,-16.2920625,18.5478125,-2.9373750000000003,16.5,False,0
5.407015085220337,6.993622254149999,-4.51944368575,4.1383866867,-2.87,8.68875,-11.9525,7.5487870076325,-4.87262430151,3.795255925859999,-16.7750625,17.87275,-3.5310625,16.5,False,0
5.417367935180664,7.00438995585,-4.51226521795,3.930211120499999,-11.305000000000001,8.25125,-14.770000000000001,7.536194778699999,-4.827429864652499,3.8043785620225004,-17.262,17.015249999999998,-4.314625000000001,17.5,False,0
5.42765212059021,6.5072810607,-4.965705100649999,3.98345142335,-23.913750000000004,10.062500000000002,-15.041250000000002,7.518876725132499,-4.796203529722499,3.8195430752500004,-17.875375000000002,16.1643125,-5.1699375000000005,17.5,False,0
5.4379799365997314,7.118647234999999,-5.591428210549999,4.1156548719999995,-30.441250000000004,8.863750000000001,-13.177500000000002,7.488308416417499,-4.7622254488025,3.8607893548175,-18.741187500000002,15.463874999999998,-5.90625,17.5,False,0
5.448431015014648,6.76391128455,-4.604987093699999,3.9655052538499995,-31.692500000000003,7.95375,-11.4625,7.46022266115,-4.7212483617775,3.9084962554049993,-19.561062500000002,14.802375000000001,-6.400187500000001,16.5,False,0
5.459161758422852,6.783652071,-4.424927193049999,4.066602008699999,-24.683750000000003,6.9037500000000005,-15.443750000000001,7.44419074973,-4.684668086279999,3.9484264825425,-20.073375000000002,14.1715,-7.090999999999999,17.5,False,0
5.469408988952637,6.8626152168,-4.467399794199999,3.9529429351999994,-10.797500000000001,2.8000000000000003,-18.427500000000002,7.40195743084,-4.656014035644999,3.9780974827824997,-20.007749999999998,13.076000000000002,-8.364125000000001,17.5,False,0
5.482470989227295,7.002595338899999,-4.730012074549999,3.5970105734499995,-0.7087500000000001,1.9862500000000003,-21.32375,7.318836755772499,-4.648027990217499,4.0155152461900006,-19.22025,11.775312500000002,-9.731750000000002,17.5,False,0
5.493000745773315,7.0348984439999995,-4.807180603399999,3.22014101395,3.6575,0.6737500000000001,-21.5075,7.2323063085,-4.649015029539999,4.0389948179525,-17.7690625,10.627750000000002,-10.904687500000001,17.5,False,0
5.5032947063446045,6.905686023599999,-5.0955157266999995,3.0000013347500003,2.9925,0.58625,-19.075000000000003,7.1488865306074985,-4.664598286722499,4.0340895316225005,-15.993687500000002,9.733500000000001,-11.889937500000002,17.5,False,0
5.513444662094116,7.435098023849999,-4.411168463099999,4.1557346505499995,-1.1812500000000001,1.32125,-13.492500000000001,7.0767728395,-4.675964194072498,3.9952360746550006,-14.686875000000004,8.754375,-12.67,17.5,False,0
5.523637771606445,7.0414787061499995,-4.97527639105,2.5782663514999995,-13.195000000000002,2.1700000000000004,-10.84125,7.0369921637749995,-4.719005090589999,3.9002410174350004,-14.11375,7.7813750000000015,-13.111875000000001,17.5,False,0
5.534037828445435,7.548158891699999,-4.8753760475,2.57407891195,-18.672500000000003,-2.31,-8.951250000000002,7.02783961733,-4.731746870934999,3.8545081954925005,-14.637875000000003,6.755,-13.433000000000002,17.5,False,0
5.544524431228638,7.61216689625,-4.6265224971,2.69372004195,-14.472500000000002,-9.231250000000001,-9.96625,7.021977201959999,-4.730580369917499,3.795674669815001,-14.772187500000001,5.747875000000001,-13.741,17.5,False,0
5.55507755279541,7.837092220649999,-4.8418765311,3.0376882907,-3.9112500000000003,-19.06625,-8.977500000000001,7.0228446001524985,-4.742065918397499,3.7271502126075,-14.311937500000003,4.465125000000001,-13.845125,17.5,False,0
5.565426349639893,7.9824561936,-4.91306300345,2.8498517165999995,7.262500000000001,-26.801250000000003,-8.5225,7.058587387739998,-4.766323157504998,3.6378680193450004,-13.0851875,2.835437500000001,-13.8236875,16.5,False,0
5.575737476348877,8.082954742799998,-5.1158547188,2.61954254135,12.398750000000001,-29.84625,-6.8775,7.0956462277574985,-4.785465738304999,3.5579178342225006,-11.197375,0.840000000000001,-13.5270625,16.5,False,0
5.586279392242432,8.21515819145,-5.129613448749999,2.64466717865,9.590000000000002,-29.583750000000002,-4.296250000000001,7.155377061909998,-4.807001141704999,3.4905299677499997,-9.229499999999998,-1.1453749999999991,-13.1035625,16.5,False,0
5.596833229064941,8.258228998249999,-4.9172504429999995,2.5860430249499995,4.786250000000001,-26.85375,-1.93375,7.251777902407499,-4.841338146015,3.40175624929,-7.976499999999999,-2.92425,-12.674375000000001,17.5,False,0
5.607278347015381,8.279166196,-4.8897329831,2.6476582069,1.8637500000000002,-25.97875,-0.41125000000000006,7.3313392538574975,-4.852524591669999,3.3098419511675,-7.552124999999999,-4.481750000000001,-12.189625000000001,17.5,False,0
5.6177003383636475,9.992427177599998,-5.234299437499999,3.4193434953999997,-0.5775,-27.396250000000002,-3.0450000000000004,7.404051150614997,-4.867360091789999,3.2356345402849995,-7.447125,-6.257562500000001,-11.604250000000002,17.5,False,0
5.628053188323975,8.667999868499999,-4.738985159299999,3.5084761372499997,-4.62875,-28.883750000000003,-0.8925000000000001,7.392984346089998,-4.9231427686525,3.2094630430974993,-7.167999999999999,-8.016312500000002,-10.875374999999998,16.5,False,0
5.638635158538818,8.136793251299999,-4.8550370553999995,3.34217496655,-9.248750000000001,-28.7525,-0.8487500000000001,7.452864731655,-4.930111864474999,3.1947471841074995,-6.642125,-9.876562500000002,-10.160499999999999,16.5,False,0
5.649333238601685,8.1104722027,-5.04466824645,3.7106696469499996,-13.781250000000002,-29.338750000000005,-1.12,7.5283881949675,-4.9415076821075,3.1688149691799996,-5.8165625,-11.784062500000001,-9.499437499999999,17.5,False,0
5.659671068191528,8.0051880083,-5.01475796395,4.0366917262,-14.175,-29.487500000000004,0.9012500000000001,7.5948488426825005,-4.96199622562,3.1444081786599996,-4.905687500000001,-13.659187500000002,-8.928500000000001,17.5,False,0
5.670156955718994,8.088338593649999,-4.87597425315,4.049852250499999,-8.09375,-31.01,0.7262500000000001,7.651289545760001,-4.970341194437499,3.1312476543599996,-4.0302500000000006,-15.577625000000001,-8.182125000000001,17.5,False,0
5.680634021759033,8.181060469399998,-4.8550370553999995,4.175475436999999,2.0475000000000003,-32.36625,0.0,7.711708316410001,-4.981707101787499,3.1305597178625,-3.3232500000000003,-17.428687500000002,-7.337312500000001,17.5,False,0
5.691241979598999,7.99501851225,-5.01834719785,4.232903179399999,4.43625,-31.561250000000005,-2.44125,7.767461082990001,-4.9988756039424995,3.1527232371950005,-2.9413125000000004,-19.172562500000005,-6.394937500000002,17.5,False,0
5.701624155044556,7.781459095199999,-5.3455656884,4.25025114325,1.9512500000000002,-28.796250000000004,-3.3512500000000003,7.812356417022501,-5.022534637399999,3.1909485782300004,-2.8494375,-20.762437499999997,-5.4656875,17.5,False,0
5.71210503578186,7.702495949399999,-5.3814580274,4.213162392949999,-5.1275,-25.348750000000003,-2.9662500000000005,7.848069294327502,-5.043471835149999,3.2424540846950003,-3.1149999999999998,-22.169000000000004,-4.557875,16.5,False,0
5.72269082069397,7.636095122249999,-5.3491549222999994,4.3010986235,-17.211250000000003,-20.7025,-4.2875000000000005,7.882525939767501,-5.056034153799998,3.304188907775,-3.6216249999999994,-23.372125,-3.8758125,16.5,False,0
5.733249664306641,7.56072121035,-5.3874400839,5.780461195949999,-28.813750000000002,-16.695,-7.09625,7.896374400565,-5.045655285772499,3.411148077995,-4.3894375000000005,-24.545499999999997,-3.49825,17.5,False,0
5.743586778640747,7.13599519885,-5.2594240748,4.7904308451999995,-37.0125,-11.33125,-5.258750000000001,7.88399154361,-5.050560572102499,3.489961672382499,-5.176937500000001,-25.342625,-3.3236875000000006,17.5,False,0
5.754089593887329,6.976274290299999,-4.779064937849999,5.3970113743,-41.011250000000004,-9.2575,-3.87625,7.8590164577224995,-5.0783472245449985,3.6090644172974997,-6.227375,-25.542125000000006,-3.10275,17.5,False,0
5.764633655548096,6.923033987449999,-4.69053050165,5.425725245499999,-40.74,-5.3375,-2.5200000000000005,7.812416237587501,-5.087918514944998,3.7329827176949992,-7.756,-25.217500000000005,-2.7628125000000003,17.5,False,0
5.775513648986816,6.82253543825,-4.14137771495,5.694917788,-37.1525,-2.0125,-4.375,7.761269654512501,-5.061747017757499,3.8621353175299986,-9.765437499999999,-24.245375000000003,-2.4902500000000005,17.5,False,0
5.7857465744018555,6.796214389649999,-3.6209387994499997,5.693123171050001,-32.900000000000006,1.1025,-5.442500000000001,7.6959455975325,-5.004528647334999,3.9996927067475,-12.04525,-22.817812500000006,-2.3323125000000005,17.5,False,0
5.796062469482422,7.051049996549999,-3.4049865597999993,5.6219366987,-29.767500000000002,3.0362500000000003,-11.121250000000002,7.603612555454999,-4.9284667989374995,4.1523248783449995,-14.1929375,-21.206937500000006,-2.482375,17.5,False,0
5.806554555892944,6.711867392999999,-3.5318061576,5.759523998199999,-30.6075,11.55,-15.531250000000002,7.533323391580001,-4.8514777317824995,4.303431625535,-16.026062500000002,-19.484937500000004,-2.9518125000000004,17.5,False,0
5.817041397094727,6.3690955555499995,-3.4151560558499994,5.609374380049999,-32.13,18.173750000000002,-22.820000000000004,7.4465536620474975,-4.768476697844999,4.4487058676375,-17.7629375,-17.516625000000005,-3.8110625000000007,16.5,False,0
5.827412366867065,6.138188174649999,-3.9349967657,5.562116133699999,-35.962500000000006,26.538750000000004,-27.965000000000003,7.3452475352199995,-4.712813662112499,4.5934417246549994,-19.4805625,-15.102062500000006,-5.11,17.5,False,0
5.8375563621521,5.8546386965499995,-4.202394691249999,5.52562558905,-37.940000000000005,35.1225,-29.706250000000004,7.3051976669525,-4.635675043544998,4.6958246216525,-21.296625,-12.244312500000001,-6.640375000000001,17.5,False,0
5.847936153411865,5.877370511249999,-4.2963129783,5.2019963324,-35.542500000000004,39.37500000000001,-27.903750000000002,7.186573486557499,-4.6022652579924985,4.7942294510775,-22.9026875,-8.967875000000001,-8.049125,16.5,False,0
5.858374357223511,5.904887971149999,-4.1401813036499995,4.914857620399999,-28.848750000000003,39.78625,-29.216250000000002,7.0678595753149995,-4.568017984529999,4.870799774277499,-23.942625000000003,-5.533062499999998,-9.3848125,16.5,False,0
5.868921279907227,6.0753765814,-4.28973271615,4.4231325760999995,-23.3975,39.112500000000004,-32.025000000000006,6.9595245321000005,-4.523930228125,4.909443859267499,-24.493000000000002,-2.102624999999999,-10.8416875,17.5,False,0
5.8793182373046875,6.036493214149999,-4.7724846757,3.8410784786499996,-29.37375,44.353750000000005,-38.77125,6.857709930469999,-4.498117654327499,4.919703086164999,-25.1068125,1.4131250000000033,-12.615312500000002,17.5,False,0
5.892609357833862,5.9659049474499986,-5.297111030749999,3.5557343836,-41.510000000000005,50.08500000000001,-43.251250000000006,6.749434707819999,-4.5042193519575005,4.902355122314999,-26.6013125,5.353687500000002,-14.679875000000001,17.5,False,0
5.903112173080444,5.754738352999999,-5.94556595535,3.4701909756499996,-51.6075,54.96750000000001,-45.24625,6.637151507314999,-4.534578288695,4.864967269189999,-29.098562500000003,9.576875000000003,-16.858187500000003,17.5,False,0
5.9134321212768555,5.6763734128499985,-6.552744690099999,3.5240294841499997,-57.575,57.49625,-41.580000000000005,6.525885256414999,-4.58404989595,4.825575427137499,-32.018,13.9055,-18.924937500000002,17.5,False,0
5.9237282276153564,5.74696167955,-6.606583198599999,3.385843979,-56.892500000000005,57.61000000000001,-34.518750000000004,6.424579129587499,-4.642434767389999,4.793092860342499,-34.858687499999995,18.195625,-20.6985625,17.5,False,0
