time,aX,aY,aZ,gX,gY,gZ,faX,faY,faZ,fgX,fgY,fgZ
0.13477541899999324,7.819744256799999,-3.9481572899999993,2.8283163131999998,8.75,-1.8200000000000003,-5.180000000000001,8.116454259200001,-3.4657642538399998,3.4388449995899997,27.181,0.784000000000001,-4.158000000000001
0.14182138799992572,7.992027483999999,-3.8955151927999996,2.8115665549999997,8.610000000000001,-5.460000000000001,-6.090000000000001,8.21001362286,-3.52905441161,3.15840619087,28.350000000000005,0.38150000000000117,-4.266500000000001
0.14895735799996146,7.9704920806,-4.1898323726,2.7948167968,6.930000000000001,-8.05,-4.340000000000001,8.13595576339,-3.5671002909499996,3.0777680692500002,14.721000000000004,6.464499999999998,-2.807000000000001
0.15597432699996716,7.987241838799999,-4.18743955,2.7589244577999996,3.08,-9.24,-2.5900000000000003,8.12650411412,-3.615196025209999,3.05120773839,16.212000000000003,5.407499999999999,-2.9715000000000007
0.16303329699996993,8.0111700648,-4.1347974528,2.739781877,-1.54,-8.96,-1.2600000000000002,8.111788255130001,-3.656472215059999,3.01699037521,12.834500000000002,3.6365000000000007,-3.083500000000001
0.17013226599999598,7.987241838799999,-3.9481572899999993,2.6703900216,-6.790000000000001,-8.120000000000001,-2.87,8.10939543253,-3.683511110439999,2.9657839715699996,9.436000000000003,2.002,-3.0275000000000003
0.17718823600000633,8.0662049846,-3.8476587407999996,2.5603201819999994,-8.82,-7.420000000000001,-4.83,8.110831126090002,-3.6947573766599993,2.9036902250999996,7.196000000000002,0.7630000000000005,-2.982
0.18438420500001484,8.1044901462,-3.7064822074,2.5579273594,-9.170000000000002,-6.580000000000001,-6.510000000000001,8.114540001120002,-3.70827682435,2.8387250915099993,5.586000000000002,-0.2939999999999997,-2.933
0.191392174999919,8.0685978072,-3.7591243046,2.6392833278,-7.630000000000001,-7.280000000000001,-7.280000000000001,8.11585605355,-3.726940840629999,2.7828526837999994,4.430999999999999,-1.3125,-2.8945
0.19832314500001758,8.003991596999999,-3.8763726119999995,2.6751756667999995,-5.53,-9.520000000000001,-7.5600000000000005,8.1056865575,-3.748954808549999,2.7385854656999995,3.6399999999999997,-2.3660000000000005,-2.919
0.20528311499992924,7.850850950599999,-3.9625142255999997,2.6991038927999997,-1.05,-12.88,-7.07,8.08403151297,-3.783052530599999,2.705803796079999,3.2969999999999997,-3.4509999999999996,-2.9855000000000005
0.2122510849999344,7.6881390138,-3.9577285803999995,2.8139593776000003,0.77,-16.380000000000003,-7.5600000000000005,8.04909630301,-3.8155949179599995,2.6946771709899995,3.1850000000000005,-4.613000000000001,-3.1990000000000007
0.21929005399999824,7.671389255599999,-3.9649070481999997,2.8378876036,2.5900000000000003,-20.090000000000003,-8.75,8.008418318810001,-3.8400017084800004,2.6998217395799995,3.1465,-5.8695,-3.6645000000000003
0.22621602399999574,7.728816998,-4.048655839199999,2.8689942973999996,1.8900000000000001,-21.98,-9.170000000000002,7.969774233820002,-3.8742190716599993,2.7128626227499995,2.9540000000000006,-7.199499999999999,-4.2035
0.2332719940000061,7.802994498599999,-4.1347974528,2.8977081685999995,-0.8400000000000001,-22.820000000000004,-8.89,7.93424081821,-3.9144184913399998,2.7373890543999995,2.4814999999999996,-8.564499999999999,-4.753
0.24036796299992602,7.8676007087999995,-4.0630127748,2.8043880872,-5.040000000000001,-22.96,-8.610000000000001,7.911748285770001,-3.94408949158,2.75437809486,1.6695,-9.936499999999999,-5.2780000000000005
0.24740593299998181,7.8699935314,-3.9242290639999995,2.6847469571999993,-10.920000000000002,-22.89,-8.540000000000001,7.902176995370001,-3.95461791102,2.7574887642399997,0.4794999999999995,-11.2875,-5.7575
0.2545279019999498,7.8819576444,-3.9003008379999993,2.620140747,-15.400000000000002,-22.400000000000002,-8.47,7.900023455030002,-3.9605999675199994,2.7503102964399995,-0.9450000000000003,-12.5545,-6.149500000000001
0.26153587199996764,7.9130643382,-3.912264951,2.51246373,-20.090000000000003,-21.910000000000004,-7.7700000000000005,7.903373406670001,-3.9638302780299997,2.73248376807,-2.527,-13.727,-6.384
0.26862184200001593,7.984849016199999,-3.8069807566,2.3138594542,-22.19,-22.26,-7.3500000000000005,7.913542902719999,-3.9584464271799993,2.70448774365,-4.1195,-13.950999999999999,-6.534500000000001
0.2757008109999788,8.149953775599998,-3.6179477711999994,2.0745771942,-23.17,-22.750000000000004,-7.5600000000000005,7.93005337866,-3.941935951239999,2.6668007877,-5.7155000000000005,-14.997499999999999,-6.653499999999999
0.28273578099992847,8.2480595022,-3.6299118841999998,1.8233308212,-21.21,-23.240000000000002,-7.210000000000001,7.942854979570001,-3.9286557858099997,2.6173890010100003,-7.206500000000001,-15.886500000000002,-6.7095
0.2897637500000201,8.398807326,-3.6083764807999996,1.7108681589999999,-18.340000000000003,-22.89,-6.65,7.964270741839999,-3.89958299122,2.5631915691200002,-8.470000000000002,-16.6285,-6.825000000000001
0.29681571999992684,8.4059857938,-3.6323047068,1.7012968685999998,-14.840000000000002,-22.26,-6.930000000000001,7.9852079395899995,-3.8718262490599997,2.51031018966,-9.366000000000001,-17.279500000000002,-7.042
0.3038516899999877,8.3007015994,-3.7351960785999996,1.8400805794,-10.780000000000001,-21.000000000000004,-7.490000000000001,7.999684516319999,-3.8518461803500004,2.4653251247800005,-9.828,-17.8815,-7.353500000000001
0.3110756589999255,8.267202082999999,-3.7543386593999997,1.9621145319999997,-7.910000000000001,-17.92,-8.190000000000001,8.01368252853,-3.84215524882,2.4299113503,-9.884,-18.3715,-7.6195
0.31804662799993366,8.231309743999999,-3.9266218865999996,2.0123638066,-3.22,-16.310000000000002,-10.080000000000002,8.021937766499999,-3.84610340611,2.40251353153,-9.604000000000001,-18.816000000000003,-7.882000000000002
0.32508059799999955,8.3557365192,-3.8045879339999993,2.0650059038,0.77,-15.400000000000002,-10.920000000000002,8.03450008515,-3.8510086924399998,2.3778674587500004,-9.107000000000001,-19.256999999999998,-8.102500000000003
0.3321615679999468,8.525626923799999,-3.7399817237999997,2.1870398563999998,3.5700000000000003,-14.490000000000002,-11.9,8.057351540979997,-3.8500515633999997,2.3552552851799997,-8.547,-19.6175,-8.333500000000003
0.33917553699996006,8.7529450708,-3.792623821,2.2660030021999997,5.880000000000001,-14.560000000000002,-11.9,8.094799214669997,-3.8458641238499993,2.3347966519499996,-7.9765,-19.8695,-8.5505
0.3462075069999173,8.992227330799999,-3.8237305147999994,2.3976082452,5.11,-14.14,-10.99,8.15186803368,-3.83892493831,2.31972186957,-7.6685,-19.932499999999997,-8.746500000000001
0.3532144769999377,8.9898345082,-4.2807596314,2.572284295,4.62,-12.88,-9.73,8.216952808399999,-3.85507649086,2.3076381154399996,-7.476000000000001,-19.7575,-8.855
0.36018644699993274,9.334400962599998,-3.9314075317999997,2.9264220397999994,3.0100000000000002,-14.21,-6.86,8.30010339375,-3.8534015150400003,2.31206483725,-7.455,-19.4635,-8.7605
0.3672134159999132,8.822336926199998,-3.2350961551999995,2.644068973,3.2900000000000005,-8.47,-13.650000000000002,8.354779390160001,-3.8127235308399996,2.30081857103,-7.385000000000001,-18.788,-8.9845
0.3743513859999439,8.7050886188,-3.8069807566,2.1726829208,5.670000000000001,-9.590000000000002,-20.160000000000004,8.39988409617,-3.7963326960299995,2.26456730864,-7.059500000000002,-18.1265,-9.548000000000002
0.3813723549999395,8.578269020999999,-4.570291166,2.7780670385999997,12.250000000000002,-10.290000000000001,-18.340000000000003,8.435417511779999,-3.8216966155899996,2.2632512562100002,-6.195000000000002,-17.493000000000002,-10.034500000000001
0.38842032499997003,8.669196279799998,-4.206582130799999,2.8067809097999996,34.650000000000006,-10.15,-18.340000000000003,8.4753776492,-3.8358142689299997,2.26935295384,-3.9165,-16.855999999999998,-10.524500000000002
0.3954872949999526,7.855636595799999,-3.4671999473999997,3.2446674455999998,32.2,-11.06,-27.300000000000004,8.474061596770001,-3.8141592244,2.30057928877,-1.5364999999999989,-16.289,-11.466000000000003
0.40256626399991546,7.8077801438,-3.9912280968,3.0221349437999994,40.74,-12.180000000000001,-30.660000000000004,8.46879738705,-3.8181073816899995,2.3260628494599995,1.5050000000000014,-15.8025,-12.610500000000002
0.4103212310000117,7.3890361888,-3.5150563993999997,3.5341989802,33.46,-14.21,-35.7,8.43900674568,-3.8035111638299997,2.38707982576,4.287500000000001,-15.4,-14.028
0.4173041999999896,7.855636595799999,-3.2350961551999995,3.3667013982,31.220000000000002,-13.72,-36.540000000000006,8.424290886689999,-3.784368583029999,2.45168603596,7.007,-14.948500000000001,-15.477000000000004
0.4244331699999293,8.0183485326,-2.6177479243999993,3.397808092,53.690000000000005,-10.99,-38.85,8.41280533821,-3.7337603850399987,2.5304098994999995,10.751999999999999,-14.336000000000004,-17.059000000000005
0.4314861389999578,7.9585279675999985,-2.4741785683999997,3.2518459134,42.7,-9.450000000000001,-36.75,8.39079137029,-3.6770504894199996,2.6074587872199997,13.804000000000002,-13.664000000000001,-18.564000000000004
0.43856210899991765,8.070990629799999,-2.3593230835999996,3.0173492985999992,48.440000000000005,-8.680000000000001,-32.13,8.374041612089998,-3.6134014082599997,2.6732614087199997,16.968,-12.985,-19.824000000000005
0.44563407800001187,8.626125472999998,-1.9740786449999996,3.2063822839999996,51.24,-7.910000000000001,-26.880000000000003,8.390312805769998,-3.52534553658,2.7415764939499994,20.069000000000003,-12.3305,-20.7935
0.4526550479999969,8.195417404999999,-1.423729447,3.457628657,49.910000000000004,-5.040000000000001,-21.42,8.386723571869998,-3.4088150759599998,2.8163522002,22.96,-11.6865,-21.455000000000005
0.4597320179999542,8.190631759799999,-1.9549360641999998,3.3332018817999995,47.25000000000001,-1.9600000000000002,-15.120000000000001,8.38468967266,-3.3102307848399994,2.88239410396,25.483500000000003,-10.969000000000001,-21.707000000000004
0.46676498699991953,7.9034930478,-1.9645073545999996,3.4791640604,40.95,-1.61,-8.680000000000001,8.36207749909,-3.218226755869999,2.95310201179,27.4925,-10.279500000000002,-21.595000000000006
0.4736179579999771,7.5828548194,-2.1056838879999997,3.3236305913999997,36.68000000000001,-3.9200000000000004,-6.510000000000001,8.314938893869998,-3.1365118640799996,3.0099315485399996,29.148000000000003,-9.751000000000001,-21.325500000000005
0.48111292499993397,7.453642399,-2.3545374384,3.242274623,35.28,-6.580000000000001,-5.6000000000000005,8.249973760279998,-3.06460754495,3.0587451295799997,30.618000000000006,-9.352000000000002,-21.010500000000004
0.4881488949999948,7.044469734399999,-2.5028924396,3.1824540579999994,35.63,-9.8,-6.300000000000001,8.152585880459998,-2.9985656411899995,3.0979874202199995,32.144,-9.135000000000002,-20.776000000000003
0.4951388649999444,6.9391855399999995,-2.548356069,3.1776684127999997,36.96,-12.180000000000001,-8.120000000000001,8.05005343205,-2.9119454630699995,3.12825662611,33.76100000000001,-9.100000000000001,-20.695500000000003
0.5021498349999547,6.893721910599999,-2.5890340531999994,3.0604201053999995,39.06,-14.350000000000001,-10.920000000000002,7.928019479449999,-2.84482678914,3.13495652939,35.56350000000001,-9.107000000000003,-20.898500000000006
0.5091838039999175,6.893721910599999,-2.4215364712,3.0604201053999995,39.760000000000005,-16.380000000000003,-12.110000000000001,7.831588728669997,-2.80414880494,3.1557740860099996,37.387000000000015,-9.502500000000001,-20.821500000000004
0.5162347739999404,7.0540410248,-2.0578274359999997,2.9240292171999998,40.53,-16.450000000000003,-13.020000000000001,7.749036348969999,-2.71669113891,3.1933414008299996,39.13000000000001,-9.845500000000001,-20.464500000000008
0.5231797440000037,7.140182638399999,-1.8496518698,2.7134608283999992,41.720000000000006,-16.8,-13.370000000000001,7.677132029839998,-2.5806591741,3.19011109032,40.60350000000001,-10.171000000000001,-20.216000000000005
0.5302507129999867,7.549355302999999,-1.7036896912000001,2.5459632463999995,41.160000000000004,-16.310000000000002,-11.620000000000001,7.621139980999999,-2.4555145521199995,3.17707020715,40.929,-10.479,-19.880000000000003
0.5373636829999668,7.9226356286,-1.5649059803999998,2.3856441322,39.410000000000004,-15.540000000000001,-5.11,7.624489932639999,-2.3603998537699993,3.13411904148,41.2895,-10.703000000000001,-18.770500000000006
0.5444416519999322,8.4442709554,-1.3974083984,2.2181465501999997,35.84,-14.070000000000002,0.56,7.656314473219998,-2.2307088688499994,3.0939196218,41.0445,-10.797500000000001,-17.209500000000002
0.5514396219999753,8.6644106346,-1.2203395259999998,2.0267207422,32.690000000000005,-10.500000000000002,4.9,7.720083195509998,-2.1159730251799993,3.0185457098999997,41.006,-10.612000000000002,-15.1795
0.5585075919999554,8.7984087002,-1.3160524299999998,1.9980068709999999,28.000000000000004,-6.930000000000001,11.48,7.767221800729999,-2.02002083892,2.9501109835399997,40.845,-10.2725,-12.778500000000001
0.5655105609999964,8.7888374098,-1.495514125,2.1559331626,25.340000000000003,-2.31,15.750000000000002,7.805746244589997,-1.9639091489499996,2.8880172370699997,39.4275,-9.8385,-10.048500000000002
0.5725365309999688,8.805587167999999,-1.6701901747999999,2.0745771942,23.310000000000002,-1.33,19.810000000000002,7.8480992046099995,-1.9237097292699996,2.8291538011100004,38.458000000000006,-9.432500000000001,-7.220500000000003
0.5795905009999842,8.6787675702,-2.0051853388,2.0985054202,20.23,-1.4000000000000001,22.820000000000004,7.878488051629999,-1.9060028420299997,2.78321160719,37.0475,-9.068500000000002,-4.473000000000001
0.5866004700000076,8.3437724062,-2.1343977592,2.3258235672,22.470000000000002,-1.9600000000000002,23.1,7.864370398289999,-1.9140187977399996,2.7391836713499993,35.609000000000016,-8.771000000000003,-1.9740000000000006
0.5936724399999775,7.9992059518,-2.3952154225999998,2.464607278,27.860000000000003,-2.9400000000000004,18.62,7.85455982563,-1.9625930965199998,2.6895326023999995,34.50650000000001,-8.666,0.028000000000000292
0.6007964089999405,7.7694949822,-2.6895326023999995,2.6009981662,33.6,-5.11,14.350000000000001,7.833502986750001,-1.9993229234299998,2.65292241662,33.82400000000001,-8.823500000000003,1.5015000000000005
0.6077813790000164,7.6785677234,-2.763710103,2.7517459899999994,39.480000000000004,-11.830000000000002,9.870000000000001,7.8222567205299995,-2.03928306085,2.6165515130999997,33.75050000000001,-9.334500000000002,2.4290000000000007
0.6148193489999585,7.764709336999998,-2.8642086522,2.8522445392,48.300000000000004,-16.450000000000003,5.180000000000001,7.831349446409999,-2.0772092990599997,2.5929822104899998,34.3315,-9.961000000000004,3.0135
0.621668318999923,8.092526033199999,-2.847458894,2.9455646205999995,54.32000000000001,-19.46,3.2900000000000005,7.863293628119997,-2.1018553718399997,2.57814671037,35.283500000000004,-10.605000000000006,3.458000000000001
0.6287842890000093,8.4442709554,-2.739781877,3.0125636533999995,58.03000000000001,-21.14,1.9600000000000002,7.93328368917,-2.113699843709999,2.5696521901400002,36.4035,-11.172000000000006,3.871000000000001
0.6358622579999746,8.8343010392,-2.7230321187999995,3.1274191382,56.35000000000001,-21.630000000000003,2.66,8.028039464129998,-2.1224336461999997,2.5671397264099998,37.373000000000005,-11.644500000000004,4.410000000000001
0.6435212249999722,9.355936366,-2.5292134882,3.2590243811999993,50.96000000000001,-20.3,4.550000000000001,8.151150186899999,-2.1194426179499994,2.5770699402,37.96800000000001,-11.942000000000004,5.1835
0.650754194000001,9.521041125399998,-2.4789642136,3.2374889777999996,41.650000000000006,-19.46,9.030000000000001,8.282516147639999,-2.12231400507,2.58592338382,38.062500000000014,-12.096000000000002,6.240500000000001
0.6578071629999158,9.7244310464,-2.3976082452,3.1058837348,33.32,-19.67,14.14,8.416035648720001,-2.1393030455299997,2.5950161097,37.70200000000001,-12.257,7.598500000000001
0.6649761319999925,9.748359272399998,-2.3401805028,3.0197421211999997,23.240000000000002,-21.910000000000004,21.000000000000004,8.54644448042,-2.1638294771799997,2.6103301743399996,36.778000000000006,-12.5125,9.317000000000002
0.6719741019999219,9.6406822554,-2.4311077616,2.9527430884,16.73,-24.220000000000002,25.55,8.651010828039999,-2.2002003806999992,2.6306691664399997,35.55650000000001,-12.908000000000001,11.175500000000003
0.6789670719999776,9.437292334399999,-2.5363919559999997,2.9479574431999995,12.250000000000002,-25.340000000000003,28.35,8.726743663329998,-2.2487746794799994,2.65878483199,34.19850000000001,-13.398000000000001,12.848500000000005
0.6867450390000158,9.200402896999998,-2.7780670385999997,2.9288148624000003,6.790000000000001,-28.210000000000004,28.840000000000003,8.76455026041,-2.31780761149,2.6943182475999996,32.746,-14.105,14.262500000000006
0.6937760079999862,9.068797653999999,-3.1298119607999997,2.8067809097999996,4.2,-30.730000000000004,27.51,8.784769611380002,-2.4132812332299998,2.7333212559799995,31.321500000000007,-15.116500000000002,15.393
0.7009309769999845,8.977870395199998,-3.4073793824000003,2.5938196983999995,5.460000000000001,-33.6,25.060000000000002,8.79374269613,-2.51784758085,2.76311189735,30.194500000000012,-16.450000000000003,16.072000000000003
0.7079669469999317,8.879764668599998,-3.3643085755999995,2.572284295,9.100000000000001,-35.77,22.750000000000004,8.79828905907,-2.61128730338,2.78392945397,29.382500000000004,-18.123,16.422
0.7148599170000125,8.7912302324,-3.4313076084,2.5292134882,12.250000000000002,-36.470000000000006,19.6,8.79757121229,-2.69934317506,2.806661268669999,28.829500000000003,-19.880000000000003,16.411500000000004
0.7217498879999766,8.721838377,-3.445664544,1.8544375149999999,14.490000000000002,-37.52,16.87,8.79972475263,-2.77136713532,2.7944578734099994,28.54250000000001,-21.686,16.114
0.7287228579999692,8.6596249894,-3.385843979,2.4861426813999996,15.610000000000001,-37.660000000000004,15.120000000000001,8.815517381789999,-2.83393944631,2.8024738291199993,28.199500000000008,-23.471000000000004,15.715000000000003
0.7357858269999724,8.573483375799999,-3.373879866,2.5076780847999998,16.310000000000002,-35.7,12.740000000000002,8.84423125299,-2.88287266848,2.8046273694599995,27.622000000000003,-25.109,15.421000000000001
0.7428437969999777,8.614161359999999,-3.194418171,2.5555345367999998,15.96,-32.620000000000005,10.360000000000001,8.88646457188,-2.90811694691,2.8023541879899994,26.74000000000001,-26.484500000000004,15.2215
0.7498847659999228,8.6093757148,-3.1776684127999997,2.5220350203999993,15.820000000000002,-29.330000000000002,8.33,8.93300497145,-2.9288148624000003,2.7908686395099993,25.557000000000002,-27.359500000000008,15.144499999999999
0.7570007360000091,8.681160392799999,-3.3116664784,2.548356069,15.47,-27.720000000000002,7.5600000000000005,8.97882752424,-2.95118775371,2.775674215999999,23.915500000000005,-27.92300000000001,15.263499999999999
0.764145704999919,8.769694828999999,-3.3212377687999997,2.5268206656,16.380000000000003,-27.720000000000002,8.120000000000001,9.012685964029998,-2.97487669745,2.75473701825,22.018500000000003,-28.336000000000002,15.505
0.7711796739999954,8.6883388606,-3.3284162366,2.4813570361999995,19.250000000000004,-29.400000000000002,9.24,9.024889359289999,-3.00430841543,2.7281766873899995,20.079500000000003,-28.749000000000002,15.869
0.778323644000011,8.4681991814,-3.2542387359999996,2.691925425,22.26,-29.610000000000003,9.100000000000001,9.006584266399999,-3.0308687462900004,2.70640200173,18.375,-29.148000000000003,16.191000000000003
0.785366612999951,8.429914019799998,-3.2327033326,2.5555345367999998,23.94,-29.050000000000004,9.030000000000001,8.96028314909,-3.0660432385100003,2.6712275095099995,17.024,-29.585500000000003,16.415000000000003
0.7923775829999613,8.2241312762,-3.1489545415999998,2.6656043763999993,22.26,-28.560000000000002,9.590000000000002,8.89543765663,-3.09954275491,2.6426332794400005,16.0545,-30.04050000000001,16.442999999999998
0.799440552999954,8.398807326,-2.8402804261999997,2.4789642136,20.790000000000003,-23.240000000000002,7.280000000000001,8.829156470609998,-3.1216763639600003,2.61128730338,15.428,-30.219000000000005,16.100000000000005
0.806560521999927,8.2241312762,-3.146561719,2.2803599377999997,18.830000000000002,-24.360000000000003,7.280000000000001,8.7529450708,-3.1619954247699997,2.57431819421,15.2075,-30.341500000000003,15.414000000000005
0.8136104919999525,8.1738820016,-2.9623143788,2.5292134882,18.55,-24.290000000000003,6.930000000000001,8.67960505811,-3.1885557556299995,2.5531417141999997,15.298499999999999,-30.345000000000006,14.483
0.8206314609999481,8.0566336942,-2.9288148624000003,2.5770699402,21.07,-19.39,5.74,8.6105721261,-3.2081769009499994,2.53459733905,15.739500000000001,-30.047500000000003,13.352500000000003
0.8276904309999509,8.233702566599998,-3.1920253484,2.7038895379999994,23.8,-15.330000000000002,5.74,8.562237109579998,-3.22887481644,2.5233510728299997,16.59,-29.4035,12.197500000000005
0.8347453999999743,8.350950873999999,-3.3355947043999996,2.8426732488,21.630000000000003,-12.39,7.5600000000000005,8.52634477058,-3.2391639536199994,2.5251456897799995,17.4615,-28.486500000000007,11.200000000000003
0.8417513699999972,8.676374747599999,-3.385843979,2.8618158296000002,0.0,-9.170000000000002,9.520000000000001,8.511269988199999,-3.23808718345,2.5385454963399994,17.188499999999998,-27.265000000000004,10.423000000000004
0.8487923399999318,8.5615192628,-3.6251262389999996,2.9024938137999996,14.980000000000002,-7.7700000000000005,12.250000000000002,8.49535771791,-3.25112806662,2.555055972279999,17.4825,-25.865000000000002,9.898000000000003
0.8560043090000136,8.4059857938,-3.7064822074,2.9886354273999993,11.48,-7.280000000000001,13.790000000000001,8.47609549598,-3.26488679657,2.5780270692399996,17.444000000000003,-24.4055,9.607500000000002
0.8630472779999536,8.2815590186,-3.9098721283999995,2.9192435719999996,7.140000000000001,-8.260000000000002,15.750000000000002,8.454081528059998,-3.288097175790001,2.6312673720899995,17.076500000000003,-22.942500000000003,9.5515
0.8702012469999545,8.070990629799999,-4.0007993872,2.8594230069999997,4.130000000000001,-11.06,16.520000000000003,8.42464981008,-3.3188449461999996,2.649931388369999,16.5025,-21.612500000000004,9.621500000000001
0.8772712169999295,7.8221370794,-4.0941194686,2.9144579268,2.7300000000000004,-13.930000000000001,17.430000000000003,8.38708249526,-3.3548569263299997,2.6702703804699994,15.823500000000005,-20.524,9.856000000000002
0.884399185999996,8.195417404999999,-3.8285161599999995,2.8666014748,-0.9100000000000001,-15.820000000000002,15.750000000000002,8.366145297509998,-3.3865618257799994,2.6858237273699994,14.98,-19.684,10.1255
0.8914891559999205,7.936992564199999,-4.0247276132,2.9072794589999997,-2.5200000000000005,-19.950000000000003,15.120000000000001,8.33252613998,-3.428914785799999,2.7050859492999995,14.063000000000002,-19.214999999999996,10.465000000000002
0.8985651250000046,7.956135144999998,-4.2017964856,2.9192435719999996,-1.4000000000000001,-21.28,14.000000000000002,8.29627487759,-3.4734212861599993,2.7236303244499998,13.219500000000002,-18.893,10.787000000000003
0.9055940949999695,8.5615192628,-3.5413774479999995,3.0029923629999997,7.98,-21.000000000000004,11.200000000000001,8.28586609928,-3.4844282701199996,2.7474389093199996,12.799499999999998,-18.557000000000006,10.941
0.9126050649999797,8.1092757914,-2.998206717799999,2.7565316351999996,16.450000000000003,-16.8,6.720000000000001,8.256912945819998,-3.46791779418,2.7611976392699993,12.6595,-17.927,10.815000000000001
0.9195290349999823,8.3485580514,-2.9814569596,2.7445675222,25.200000000000003,-13.790000000000001,6.930000000000001,8.25093088932,-3.4542787053599993,2.7638297441299993,12.806499999999996,-17.136000000000003,10.706500000000002
0.926670004000016,8.6237326504,-3.0101708308,2.5004996169999996,31.990000000000002,-10.71,8.75,8.26062182085,-3.443152080269999,2.7610779981399998,13.208999999999998,-16.219,10.6925
0.9336619739999605,8.721838377,-2.9671000239999996,3.409772205,41.650000000000006,-3.5000000000000004,7.630000000000001,8.28550717589,-3.43405935439,2.79828638957,14.178499999999996,-14.966,10.5945
0.9407799429999386,8.5950187792,-3.4719855925999994,3.4025937371999997,40.18000000000001,0.6300000000000001,15.96,8.295317748550001,-3.46564461271,2.8444678657500004,15.148,-13.772499999999999,11.028500000000001
0.9478939119999268,8.6069828922,-3.3116664784,3.6562329327999996,33.74,2.1,19.250000000000004,8.314460329349998,-3.4738998506799996,2.9132615155,15.8935,-12.4495,11.627
0.9549528819999296,8.2121671632,-2.8809584104000003,4.127618985,30.800000000000004,2.66,20.37,8.31637458743,-3.46983205226,2.99318179034,16.506000000000004,-11.102000000000002,12.299000000000001
0.961934852000013,8.0231341778,-3.2135607518,4.378865358,21.490000000000002,1.7500000000000002,20.650000000000002,8.31469961161,-3.48406934673,3.08327156123,16.527000000000005,-10.045000000000002,13.0445
0.9696588189999602,7.8963145799999985,-3.7423745464,4.474578262,10.99,-1.7500000000000002,22.540000000000003,8.29783021228,-3.5115868066299996,3.1718059974300004,15.886500000000003,-9.366000000000003,13.884500000000003
0.9767547879999938,7.891528934799999,-3.8548372086,4.5152562462,2.3800000000000003,-7.420000000000001,24.71,8.27485911532,-3.53754893184,3.2554351472999996,14.924000000000003,-9.117500000000001,14.742
0.9838757569999643,8.0374911134,-3.9170505961999997,4.455435681199999,-7.280000000000001,-15.120000000000001,25.130000000000003,8.242914933609999,-3.5641092626999997,3.33511613988,14.560000000000002,-9.415000000000001,15.522499999999999
0.9910307259999627,8.236095389199999,-4.091726646,4.2161534212,-20.44,-35.84,26.040000000000003,8.226643739929997,-3.58743928305,3.4007991202500003,12.789000000000001,-10.818500000000002,16.212
0.9980446959999654,8.626125472999998,-4.235296001999999,3.6753755135999997,-28.910000000000004,-16.520000000000003,27.930000000000003,8.237650723889999,-3.61387997278,3.4351361245600005,10.7695,-11.280500000000002,16.919000000000004
1.0051046659999656,8.6333039408,-3.218346397,3.2566315585999996,-34.720000000000006,-12.32,28.770000000000003,8.25523797,-3.5793036862099994,3.45200552389,8.6765,-11.483500000000001,17.57
1.012036635999948,8.5974116018,-4.4697926167999995,3.0317062341999996,-35.49,-6.86,32.27,8.281559018599998,-3.60275334769,3.4606196852499997,6.695500000000003,-11.273500000000002,18.357499999999998
1.0191536049999286,8.717052731799999,-4.737788748,2.5100709073999994,-38.150000000000006,0.77,36.120000000000005,8.32630480122,-3.63493681166,3.4404003342799996,4.651500000000001,-10.538500000000003,19.291999999999998
1.0261345750000146,8.604590069599999,-4.522434713999999,2.3545374384,-35.21,6.300000000000001,35.84,8.346763434449999,-3.66963273936,3.4147971324599995,2.9365000000000028,-9.432500000000001,20.296499999999998
1.0331445449999137,8.3533436966,-4.3836510032,2.9838497821999996,-28.28,10.780000000000001,32.690000000000005,8.36758099107,-3.68757890886,3.4186256486199995,1.6485000000000016,-7.896000000000003,21.174999999999997
1.040188513999965,8.1427753078,-4.7760739096,2.3521446158,-4.130000000000001,14.840000000000002,29.26,8.37691299921,-3.7162927800599994,3.3902707008100004,1.5120000000000005,-6.090000000000001,21.938000000000002
1.0472444839999753,8.207381518,-4.833501652,3.0699913958,-8.680000000000001,17.5,21.840000000000003,8.35920611197,-3.780898990259999,3.393620652449999,0.6790000000000023,-4.165,22.47
1.0543544529999735,8.1212399044,-4.8622155232,3.4408788988,-3.2900000000000005,19.250000000000004,15.540000000000001,8.35980431762,-3.8740994305299994,3.4278380156299995,-0.3079999999999985,-2.3625000000000007,22.910999999999998
1.0613894229999232,8.061419339399999,-4.8670011684,3.8356946277999997,2.24,20.860000000000003,7.700000000000001,8.34544738202,-3.968376640969999,3.4823943709099994,-1.4559999999999977,-0.6299999999999996,22.9495
1.0684243929999866,8.140382485199998,-5.2594240748,3.9816568063999997,5.250000000000001,22.680000000000003,2.1700000000000004,8.321279873760002,-4.0808393031699985,3.5564522303799997,-2.792999999999998,1.0394999999999999,22.6205
1.0755503619999445,8.2719877282,-5.388636495199999,4.2759739861999995,6.510000000000001,22.820000000000004,0.9100000000000001,8.298787341319999,-4.20191612673,3.59976231944,-4.549999999999999,2.3555,22.2845
1.08259633199998,8.3054872446,-4.9866422984,4.4434715682,9.590000000000002,22.89,-4.48,8.28431076459,-4.27764896202,3.6518062109900002,-6.079500000000001,3.4685,21.2625
1.0895883009999352,8.3581293418,-4.9100719752,4.7665026192,10.850000000000001,23.450000000000003,-8.680000000000001,8.27186808707,-4.35756923686,3.7073196953099994,-7.224000000000001,4.5360000000000005,19.866
1.0967082710000113,8.5591264402,-4.857429878,4.8981078622,9.170000000000002,25.970000000000002,-11.97,8.28921605092,-4.456392810240001,3.745844139169999,-8.3055,5.701500000000001,18.249
1.1036862409999912,8.910871362399998,-4.7042892316,4.941178668999999,4.9,28.000000000000004,-13.860000000000001,8.333602910149999,-4.53092923423,3.7739598047199996,-9.135000000000002,7.014000000000001,16.5235
1.1108412099999896,9.0759761218,-4.5966122145999995,4.8717868136,1.8200000000000003,29.400000000000002,-13.23,8.39258598724,-4.57364111764,3.7938202323,-9.593500000000002,8.571500000000002,14.735
1.117866178999975,9.126225396399999,-4.4817567298,4.8861437491999995,-2.1,30.240000000000002,-13.3,8.45432081032,-4.6049870937,3.8123646074499993,-9.8175,10.454500000000001,12.834499999999997
1.124726150000015,8.975477572600001,-4.522434713999999,4.938785846399999,-4.41,30.660000000000004,-14.560000000000002,8.50122013328,-4.63525629959,3.83653211571,-9.674000000000003,12.743500000000001,10.849999999999998
1.1318701189999274,8.860622087799998,-4.5439701174,4.9076791526,-4.9,29.820000000000004,-17.080000000000002,8.53244646821,-4.65786847316,3.8711084022799995,-8.897,16.026500000000002,8.693999999999999
1.1388340889999427,8.5399838594,-4.8670011684,4.9076791526,-3.43,27.020000000000003,-22.400000000000002,8.52813938753,-4.689453731479999,3.9327235842299992,-7.623000000000002,18.203500000000002,6.177499999999997
1.1458380589999706,8.4012001486,-4.996213588799999,4.9316073786,1.61,23.8,-28.560000000000002,8.516534197919999,-4.778347091069999,4.016472375229999,-5.806500000000001,20.009500000000003,3.3109999999999977
1.1529300280000143,8.3964145034,-4.9746781854,4.8957150396,9.73,19.040000000000003,-53.480000000000004,8.506484343,-4.8035913694999985,4.109672815500001,-3.5454999999999997,21.3045,-0.9765000000000021
1.1599269979999463,8.4777704718,-4.979463830599999,4.8981078622,22.05,16.59,-43.120000000000005,8.49452023,-4.815675123629999,4.2290746632400005,-0.5355000000000002,22.0955,-4.938500000000001
1.1670529670000178,8.618947005199999,-4.7353959254,4.9459643142,31.570000000000004,14.560000000000002,-47.74,8.49523807678,-4.826323184199998,4.35864600703,2.8035000000000005,22.5085,-9.117500000000001
1.1741509369999221,8.532805391599998,-4.5798624564,5.1254260092,40.6,14.21,-51.940000000000005,8.504211161529998,-4.836133756859999,4.46572481838,6.2475000000000005,22.68,-13.349
1.1811579069999425,8.4251283746,-4.3118663252,5.364708269199999,48.650000000000006,13.72,-57.75000000000001,8.51832881487,-4.812923377639999,4.616353001049999,8.886500000000002,22.624000000000002,-17.6995
1.1882648759999483,8.3677006322,-4.0821553556,5.570491012800001,51.59,10.64,-60.550000000000004,8.52634477058,-4.775356062819999,4.7413779818999995,11.900000000000002,22.281,-21.819000000000003
1.1952308459999585,8.3533436966,-3.7543386593999997,5.6231331099999995,52.150000000000006,7.5600000000000005,-61.81000000000001,8.53794996019,-4.719962219629999,4.850490692459999,14.672000000000002,21.6965,-25.686500000000002
1.2023198150000098,7.9657064354,-2.87138712,6.474977955599999,46.480000000000004,6.86,-62.720000000000006,8.53316431499,-4.620181517209999,4.98245485885,16.884000000000004,20.996500000000005,-29.207500000000003
1.2093337850000125,8.4442709554,-3.1034909122000003,5.642275690799999,34.580000000000005,2.3800000000000003,-58.59,8.5483587385,-4.512384859079999,5.06548580307,18.350500000000004,19.9815,-32.24550000000001
1.2163247549999596,8.532805391599998,-2.3617159062,5.5944192388,17.220000000000002,-4.760000000000001,-53.900000000000006,8.56139962167,-4.361038829629999,5.1314080657,18.886000000000003,18.6025,-34.986000000000004
1.2232137249999369,8.4418781328,-2.3497517932,5.1254260092,6.790000000000001,-9.73,-50.61000000000001,8.568219166079999,-4.229194304369999,5.16550578775,18.746000000000002,16.9715,-37.292500000000004
1.2302836949999119,8.520841278599999,-2.4502503424,4.7521456836,-3.7100000000000004,-15.820000000000002,-44.660000000000004,8.576354762919998,-4.10620322273,5.164787940969999,18.018000000000004,15.008000000000001,-39.0915
1.237355664000006,8.3940216808,-2.1559331626,4.2975093896,-19.46,-19.53,-36.470000000000006,8.568099524949998,-3.9711283869599994,5.134758017339999,16.586500000000004,12.733000000000002,-40.316500000000005
1.2445186329999842,8.3198441802,-2.2253250179999995,3.5796626096,-25.76,-22.05,-32.900000000000006,8.538548165839996,-3.8471801762799998,5.06668221437,15.053500000000005,10.230500000000003,-41.2685
1.252171599999997,8.1308111948,-2.1990039693999996,2.9647072013999995,-24.290000000000003,-22.680000000000003,-30.870000000000005,8.491289919489999,-3.7272997640199987,4.9713282337599995,13.748000000000005,7.626500000000002,-42.1505
1.2592855699999745,8.0494552264,-2.2157537275999997,2.3353948576,-18.76,-22.26,-30.730000000000004,8.437451410989997,-3.613999613909999,4.84379078918,12.915000000000003,5.001500000000001,-43.022000000000006
1.266338539000003,8.092526033199999,-2.428714939,1.9645073545999996,-5.74,-20.650000000000002,-30.590000000000003,8.39330383402,-3.50931362516,4.69507686459,12.848500000000005,2.4360000000000026,-43.82350000000001
1.273335508999935,8.0805619202,-2.5028924396,1.256231865,6.0200000000000005,-19.040000000000003,-32.13,8.35430082564,-3.40725974127,4.51250450021,13.394500000000003,-0.006999999999997541,-44.57600000000001
1.2804454779999332,8.231309743999999,-2.3784656643999997,1.6510475939999998,34.790000000000006,-16.380000000000003,-33.18,8.338867119869999,-3.28283296607,4.349672922280001,15.305500000000006,-2.177000000000001,-45.115
1.287602447999916,8.3772719226,-2.4311077616,1.5864413838,29.820000000000004,-14.350000000000001,-35.07,8.337670708569998,-3.15457767471,4.18241462254,16.716000000000005,-4.084500000000001,-45.4405
1.2946304170000076,8.8199441036,-2.321037922,1.7060825138,36.96,-11.9,-35.0,8.358847188579997,-3.0218956615400003,4.02293299625,18.077500000000004,-5.631500000000001,-44.5165
1.3016823869999143,9.080761767,-2.237289131,1.7778671918,40.040000000000006,-8.260000000000002,-31.990000000000002,8.388996753339999,-2.8847869265600004,3.866920962729999,18.977000000000004,-6.8740000000000006,-43.96
1.3087203559999807,9.198010074399999,-2.2827527603999997,1.8281164663999998,39.690000000000005,-4.2700000000000005,-28.28,8.4179499068,-2.7621547683100003,3.7110285703400003,19.383000000000006,-7.8155,-42.987
1.3158313259999659,9.3415794304,-2.0889341298,1.9549360641999998,37.03,0.77,-23.450000000000003,8.45838860874,-2.63760835198,3.5525040730899997,19.204500000000003,-8.4875,-41.562500000000014
1.3226692959999582,9.339186607799999,-2.2109680824,2.0673987264,29.750000000000004,6.300000000000001,-17.430000000000003,8.5040915204,-2.53256343984,3.38763859595,18.259500000000003,-8.8585,-39.54650000000001
1.3297632659999863,9.133403864199998,-2.4478575198,2.1200408235999997,22.610000000000003,11.690000000000001,-12.740000000000002,8.542376682,-2.4508485480499997,3.2151160864899992,16.8105,-8.806000000000001,-37.156000000000006
1.3368422349999491,8.6237326504,-2.620140747,2.2396819535999994,15.820000000000002,15.47,-9.31,8.555896129690002,-2.39413865243,3.045943528669999,14.994000000000003,-8.410499999999999,-34.531
1.343820204999929,8.1619178886,-2.99102825,2.3114666315999997,10.780000000000001,16.240000000000002,-8.260000000000002,8.565706702349999,-2.40012070893,2.837767962469999,13.209000000000003,-7.9415,-31.808
1.3509561739999754,7.8006016759999985,-3.2207392195999995,2.333002035,10.080000000000002,14.21,-10.290000000000001,8.533523238379999,-2.4059831243,2.6723042796799996,11.984000000000002,-7.349999999999999,-29.392999999999994
1.3580551439999908,7.625925626199998,-3.3212377687999997,2.2995025185999998,12.32,12.040000000000001,-16.1,8.488179250109997,-2.4539592174299996,2.50755844367,11.739,-6.51,-27.502999999999997
1.3650691139999935,7.7072815945999995,-3.2279176873999997,2.2707886474,13.72,10.15,-19.950000000000003,8.4514494232,-2.49786751214,2.3648265755799995,12.0855,-5.515999999999999,-25.970000000000006
1.3720900829999891,8.070990629799999,-2.4741785683999997,2.1846470337999997,14.000000000000002,9.030000000000001,-22.400000000000002,8.42895689076,-2.49906392344,2.236451643089999,12.971,-4.273499999999999,-24.857000000000003
1.3791280529999312,8.429914019799998,-2.763710103,2.1104695332,13.090000000000002,10.57,-22.470000000000002,8.43075150771,-2.52945277046,2.1270996502699995,14.598500000000001,-2.768499999999999,-24.157000000000004
1.3861750219999749,8.781658942,-2.5100709073999994,2.0673987264,12.600000000000001,12.88,-21.42,8.4538422458,-2.54369006493,2.0514864561099992,16.5165,-1.0219999999999991,-23.583000000000006
1.3932229920000054,9.0305124924,-2.4047867129999996,2.0841484845999996,13.23,16.73,-0.7000000000000001,8.498827310680001,-2.5539792021100003,2.0074585202699997,18.392500000000005,0.9484999999999992,-22.074500000000004
1.400287961999993,9.090333057399999,-2.2923240507999996,2.1320049365999996,14.490000000000002,19.46,-15.260000000000002,8.55087120223,-2.55780771827,1.9972890242199999,20.055000000000003,3.0344999999999986,-21.301000000000002
1.4073259309999457,8.956334991799999,-2.3401805028,2.4502503424,15.96,23.520000000000003,-14.350000000000001,8.594061650159999,-2.55338099646,2.0215761736099997,21.139999999999997,5.243,-20.489000000000004
1.4144898999999214,8.8558364426,-2.6105694566,2.7469603447999997,15.820000000000002,25.69,-13.370000000000001,8.63282537628,-2.5587648473099995,2.0961125976,21.63,7.4795,-19.551000000000002
1.4214028709999411,8.6548393442,-2.8019952645999995,2.9599215562,14.700000000000001,26.390000000000004,-13.020000000000001,8.654001856289998,-2.57994132732,2.1615562957099996,20.6255,9.618,-18.543
1.4284278399999266,8.4729848266,-2.9551359109999997,3.1752755902,12.81,24.78,-14.070000000000002,8.65878750149,-2.6061427347899997,2.24099800603,19.775,11.5745,-17.493000000000002
1.4355128099999774,8.4035929712,-3.0675985731999997,3.2853454297999996,10.850000000000001,23.03,-15.820000000000002,8.63796994487,-2.64347076735,2.3199611518300003,18.469500000000004,13.321000000000003,-16.534
1.442531778999978,8.3174513576,-3.1106693799999996,3.409772205,8.82,21.490000000000002,-17.360000000000003,8.599804424399998,-2.6871397798,2.4015564024900007,16.908499999999997,14.808500000000004,-15.8025
1.4496917489999532,8.2767733734,-3.0508488149999997,3.4815568829999997,6.44,18.900000000000002,-18.76,8.55374258935,-2.72554458253,2.4842284233200003,15.246,15.967000000000002,-15.3265
1.4567117179999514,8.291130309,-2.7852455064000003,3.4002009145999996,4.0600000000000005,16.59,-21.98,8.501220133279999,-2.76036015136,2.5564916658400003,13.5975,16.758000000000003,-15.253
1.4637836879999213,8.458627890999999,-2.5507488916,3.266202849,4.69,14.63,-23.87,8.45719219744,-2.77734919182,2.6164318719699997,12.3445,17.1745,-15.575
1.4708696569999802,8.6668034572,-2.1750757434,3.1010980895999998,5.95,13.790000000000001,-24.78,8.433862177089999,-2.763710103,2.66548473527,11.5115,17.279500000000002,-16.177
1.4778696270000182,8.889335959,-1.8137595307999999,3.086741154,8.33,13.23,-24.64,8.44714234252,-2.7233910421900003,2.7078376952900003,11.136999999999999,17.1675,-16.9435
1.484876596999925,9.327222494799999,-1.5696916255999998,2.9575287336,10.64,12.180000000000001,-24.290000000000003,8.505407572829998,-2.6523242109700003,2.7401408003900007,11.129999999999999,16.9645,-17.745
1.4918635669999958,9.5904329808,-1.2490533971999997,2.9359933301999996,13.580000000000002,10.71,-21.700000000000003,8.594899138069998,-2.55373991985,2.77029036515,11.305000000000003,16.789500000000004,-18.315499999999997
1.4989165359999106,9.738787982,-1.064806057,3.6586257553999992,16.03,9.24,-18.970000000000002,8.700542255859997,-2.44091833426,2.8382465269900004,11.4905,16.649500000000003,-18.459000000000003
1.505947505999984,9.812965482600001,-0.9930213789999999,3.2446674455999998,17.290000000000003,7.140000000000001,-16.1,8.805826450259996,-2.3291735188400002,2.8869404668999996,11.669,16.499000000000002,-18.2665
1.5128174760000093,9.7555377402,-1.3471591237999998,3.4169506728,19.110000000000003,5.180000000000001,-11.410000000000002,8.89005380578,-2.2728225466099996,2.94855564885,11.924500000000002,16.306500000000003,-17.717000000000006
1.5199094459999287,9.4085784632,-1.5170495283999998,3.6586257553999992,19.46,3.43,-10.080000000000002,8.938987027949999,-2.2104895178799997,3.02596345996,12.243,15.9495,-17.097500000000004
1.5268664159999616,9.121439751199999,-1.9788642901999998,3.9433716447999996,20.3,0.07,-10.080000000000002,8.95597606841,-2.1839291870199995,3.11976210588,12.628000000000004,15.309000000000001,-16.530500000000004
1.5338763859999744,8.8247297488,-2.2540388892,4.1730826144,17.150000000000002,-2.9400000000000004,-11.55,8.94568693123,-2.1763917958299994,3.2242088123699992,12.824000000000002,14.3255,-17.073000000000004
1.541653351999912,8.5591264402,-2.3593230835999996,4.3142591478,14.21,-6.86,-14.280000000000001,8.91912660037,-2.1797417474699996,3.3333215229299995,12.810000000000002,13.0095,-17.024000000000008
1.5486933219999628,8.4969130526,-2.3641087288,4.271188340999999,10.22,-9.870000000000001,-18.900000000000002,8.896155503410002,-2.180938158769999,3.4243684228599998,12.523000000000003,11.34,-17.2515
1.5556382919999123,8.5591264402,-2.2277178405999996,4.113262049399999,6.720000000000001,-13.580000000000002,-21.28,8.88132000329,-2.1617955779699995,3.4926835080900007,12.068000000000001,9.3765,-17.647
1.5626232619999882,8.650053698999999,-1.9884355805999996,3.929014709199999,4.2,-15.820000000000002,-21.630000000000003,8.881080721030001,-2.1211175937699998,3.54113816574,11.543000000000003,7.266000000000001,-18.077499999999997
1.5696522309999636,8.721838377,-1.7204394494,3.7950166436,3.6400000000000006,-17.360000000000003,-20.720000000000002,8.893523398550002,-2.0593827706899996,3.5721252184099996,11.0845,5.158999999999999,-18.410000000000004
1.5766922010000144,8.774480474199999,-1.4620146085999999,3.6586257553999992,3.2900000000000005,-18.62,-18.76,8.912067773700002,-1.9791035724599997,3.590789234689999,10.706500000000002,3.0765000000000007,-18.557
1.5837301709999565,8.8343010392,-1.1150553316,3.5246276897999995,2.8000000000000003,-19.32,-14.700000000000001,8.93791025778,-1.8793228700399998,3.5965320089299992,10.405500000000002,1.0359999999999996,-18.424
1.5908441399999447,8.8271225714,-0.8829515394,3.4169506728,0.7000000000000001,-19.250000000000004,-11.340000000000002,8.96542771768,-1.7709280062599997,3.5933016984199995,10.118500000000001,-0.8715000000000007,-18.053
1.5979571089999354,8.781658942,-0.0263210486,3.3403803495999997,-0.8400000000000001,-18.200000000000003,-7.280000000000001,8.989954149330002,-1.6329817833700002,3.5903106701699996,9.873500000000002,-2.6109999999999998,-17.318
1.6050060789999634,8.6931245058,-0.6317051664,3.2398818003999996,-3.22,-17.990000000000002,-2.45,9.00167898007,-1.5370295971099999,3.588994617739999,9.478000000000002,-4.242,-16.247
1.6119290489999685,8.446663778,-0.6125625856,3.038884702,-5.32,-18.270000000000003,0.6300000000000001,8.990671996109999,-1.4589039392200003,3.5858839483599994,8.9145,-5.8450000000000015,-14.976500000000001
1.6189180189999206,8.262416437799999,-0.6987041992,2.9599215562,-6.86,-18.55,2.1700000000000004,8.95932602005,-1.4031511726399999,3.5795429684699998,8.155,-7.434000000000002,-13.635999999999996
1.6258359889999383,7.432106995599999,-0.7728816997999999,2.8091737324,-8.260000000000002,-20.650000000000002,4.340000000000001,8.86457024509,-1.36331067635,3.5721252184099996,7.209999999999998,-9.075500000000002,-12.2045
1.6328809589999764,7.7862447404,-0.9188438783999999,2.7804598611999998,-8.96,-23.310000000000002,5.670000000000001,8.774360833070002,-1.3468002004100001,3.5643485449599988,6.082999999999998,-10.776500000000002,-10.836000000000002
1.640396925999994,7.7407811109999995,-1.0552347666,2.7493531674,-8.82,-25.130000000000003,6.580000000000001,8.67446048952,-1.3463216358900003,3.5188849155599997,4.8405000000000005,-12.495000000000001,-9.558499999999999
1.6475508949999949,7.5924261098,-0.8662017812,2.8642086522,-9.170000000000002,-27.300000000000004,7.490000000000001,8.563433520879999,-1.339980656,3.499861975889999,3.5175000000000005,-14.217000000000002,-8.379
1.654631864999942,7.719245707599999,-1.2538390423999999,2.7972096194,-9.450000000000001,-28.140000000000004,8.33,8.461618919249998,-1.3353146519299997,3.4688749232199987,2.0894999999999992,-15.883000000000001,-7.391999999999999
1.6616178350000155,7.8652078862,-1.1174481541999999,2.8259234905999997,-12.250000000000002,-29.400000000000002,8.89,8.3844503904,-1.3153345832199999,3.427239809979999,0.5040000000000006,-17.5245,-6.443499999999998
1.6686808040000187,8.035098290799999,-0.9714859755999999,2.8546373617999996,-15.96,-29.890000000000004,8.680000000000001,8.33013331738,-1.2649656674899998,3.3728030958299997,-1.309,-19.0225,-5.5055000000000005
1.6757157739999684,8.4203427294,-0.8015955709999999,2.7804598611999998,-20.720000000000002,-29.820000000000004,8.4,8.309913966409999,-1.1923435015800001,3.3031719581699996,-3.2025000000000006,-20.3665,-4.508000000000001
1.6827797429999691,8.685946038,-0.8638089586000001,1.8903298539999998,-23.520000000000003,-30.660000000000004,9.450000000000001,8.316254946299999,-1.1175677953299998,3.1819754934799995,-5.089,-21.556500000000003,-3.3215000000000003
1.6898477129999492,9.150153622399998,-0.5958128274,2.2492532439999997,-25.060000000000002,-32.550000000000004,11.06,8.34891697479,-1.02915300026,3.08087873863,-6.853,-22.6905,-1.823500000000001
1.6968756829999165,9.2626162846,-0.45463629399999994,2.0578274359999997,-25.970000000000002,-34.580000000000005,13.440000000000001,8.384091467009998,-0.9404989229299998,2.97810700796,-8.4875,-23.7405,-0.08750000000000133
1.703905652000003,9.2339024134,-0.5455635528,1.9908284031999999,-25.200000000000003,-37.31,16.1,8.413283902729997,-0.8683553215400002,2.88119769266,-9.957500000000001,-24.815,1.7989999999999995
1.7110936209999181,9.104689993,-0.6364908115999999,2.0626130812,-25.76,-38.36000000000001,19.46,8.432426483529998,-0.81415788965,2.79457751454,-11.4275,-25.865000000000002,3.8080000000000007
1.7181565909999108,8.805587167999999,-0.9020941201999999,2.129612114,-27.650000000000002,-38.43000000000001,22.540000000000003,8.433981818219998,-0.7861618652299999,2.7181268324699994,-12.9745,-26.855500000000006,5.873000000000001
1.7251515609999615,8.4777704718,-1.8185451759999998,2.2325034857999997,-30.450000000000003,-38.57,24.430000000000003,8.416155289849998,-0.8213363574500001,2.65352062227,-14.637,-27.818000000000005,7.8295
1.7320535310000196,8.2480595022,-1.4261222696,2.2564317118,-33.67,-38.220000000000006,25.55,8.387202136389998,-0.8484948939599999,2.59549467422,-16.3555,-28.766500000000008,9.674000000000001
1.739096500999949,8.0901332106,-1.567298803,2.2492532439999997,-34.160000000000004,-38.010000000000005,25.480000000000004,8.352625849819997,-0.9255437816799998,2.5409383189399994,-18.0215,-29.757000000000005,11.312000000000001
1.7462374699999827,7.920242806,-1.6366906583999998,2.2277178405999996,-53.620000000000005,-38.50000000000001,24.64,8.313981764829999,-0.9757930562799999,2.4903301209499995,-20.541500000000003,-30.782500000000006,12.666500000000003
1.7532854389999102,7.3531438497999995,-1.6749758199999998,2.1439690496,-37.52,-39.620000000000005,24.080000000000002,8.259305768419999,-1.0289137179999999,2.4455843383299998,-22.151500000000006,-31.850000000000005,13.838999999999999
1.760398409000004,7.994420306599999,-1.7539389658,2.0769700168,-38.64,-41.790000000000006,23.730000000000004,8.24590596186,-1.08167545633,2.40143676136,-23.740500000000004,-33.012,14.917000000000002
1.7674303779999718,8.0374911134,-1.8113667082,2.0482561456,-41.720000000000006,-43.75000000000001,23.380000000000003,8.27617516775,-1.13359970675,2.36339088202,-25.413500000000006,-34.167,15.869
1.7744533479999518,8.092526033199999,-1.8400805794,1.8927226765999996,-46.970000000000006,-45.57000000000001,23.17,8.29148923239,-1.1796615418,2.3190040227899997,-27.314000000000004,-35.28000000000001,16.744000000000003
1.7815243179999243,8.197810227599998,-1.7922241274,1.6845471104,-50.68000000000001,-47.6,23.03,8.31434068822,-1.21651100984,2.26576371994,-29.407000000000004,-36.40350000000001,17.5665
1.7885892869999225,8.4562350684,-1.6247265453999997,1.4787643668,-56.07000000000001,-48.86000000000001,23.520000000000003,8.357531136149998,-1.25443724805,2.1964915056699996,-31.752000000000002,-37.481500000000004,18.368000000000002
1.7956112570000187,8.836693861799999,-1.5840485612,0.5383850849999999,-57.540000000000006,-49.21000000000001,24.78,8.413403543859998,-1.27094772399,2.08355027895,-34.1565,-38.53500000000001,19.190499999999997
1.8026842259999967,9.1238325738,-1.5792629159999998,1.7515461432000001,-71.33000000000001,-49.35,27.44,8.476334778239998,-1.2940384620799998,2.02983141158,-37.11050000000001,-39.53250000000001,20.118
1.8096901960000196,9.0137627342,-1.6247265453999997,1.064806057,-55.370000000000005,-49.42,29.680000000000003,8.52526800041,-1.32670049057,1.94033984634,-39.08100000000001,-40.50900000000001,21.168
1.8174391630000173,9.260223461999999,-2.1152551784,0.44027935839999993,-51.730000000000004,-48.230000000000004,29.400000000000002,8.56726203704,-1.3923834709399998,1.8233308211999997,-40.63150000000001,-41.429500000000004,22.218
1.824545131999912,9.317651204399999,-2.4550359876,0.31824540579999994,-39.480000000000004,-46.550000000000004,27.230000000000004,8.59884729536,-1.4719448223899996,1.7447265987899996,-41.429500000000004,-42.224000000000004,23.107
1.8316161019999981,8.9898345082,-2.6249263922,0.5096712138,-29.960000000000004,-43.96,23.730000000000004,8.59083133965,-1.5734005006299996,1.6577474972799997,-41.67450000000001,-42.794500000000006,23.740499999999997
1.8386470709999685,8.934799588399999,-3.0556344601999994,0.5479563754,-17.990000000000002,-41.720000000000006,16.03,8.57444050484,-1.7034504089399995,1.5822539442499999,-41.27550000000001,-43.151500000000006,23.869999999999997
1.8456470410000065,8.9826560404,-3.2829526071999995,0.7537391189999999,-9.100000000000001,-39.970000000000006,8.4,8.56187818619,-1.8403198616599998,1.5203994800399996,-40.47050000000001,-43.28450000000001,23.484999999999996
1.852675010999974,9.183653138799999,-3.5844482548,0.9906285563999999,16.520000000000003,-35.910000000000004,1.54,8.565826343480001,-1.9877177338199998,1.4668002537999998,-38.35650000000001,-43.162000000000006,22.589000000000002
1.859743979999962,9.427721044,-3.4767712377999995,1.2131610581999999,6.930000000000001,-32.2,-5.95,8.59693303728,-2.1164515896999996,1.4209777010099998,-36.62750000000001,-42.850500000000004,21.164500000000004
1.8667819500000178,9.927820967399999,-3.3236305913999997,1.3591232368,8.96,-27.51,-10.360000000000001,8.66943556206,-2.19170586047,1.3773086885599999,-34.65700000000001,-42.29750000000001,19.425000000000004
1.873764919999985,10.181460162999999,-3.2470602682,1.399801221,10.850000000000001,-23.590000000000003,-12.670000000000002,8.7661055951,-2.2827527604,1.3344771640199997,-32.431000000000004,-41.56600000000001,17.514000000000003
1.8809708889999683,10.509276859199998,-3.1178478478,1.4165509792000002,11.97,-1.33,-12.46,8.88706277753,-2.3602802126399998,1.29284205078,-30.124500000000005,-39.73200000000001,15.617
1.8880738579999843,10.868200249200001,-2.8378876036,1.4668002538,12.81,-13.790000000000001,-11.97,9.034460649689999,-2.4203400599,1.25479617144,-26.803000000000008,-38.49650000000001,13.7865
1.8950978279999617,10.892128475199998,-2.799602442,1.5481562222,11.760000000000002,-10.71,-11.48,9.211409880959998,-2.476571391,1.22500553007,-24.339000000000006,-37.05100000000001,12.008500000000002
1.9020867979999139,10.928020814199998,-2.8331019584000003,1.7156538042,10.430000000000001,-7.5600000000000005,-10.71,9.35808990634,-2.53052954063,1.2069397194399998,-21.8855,-35.3395,10.286500000000004
1.9090927679999368,10.896914120399998,-2.9359933301999996,1.7371892076,8.33,-2.24,-10.500000000000002,9.50106105669,-2.58676087173,1.19138637254,-19.383000000000003,-33.26400000000001,8.592500000000001
1.9161337369999956,10.813165329399999,-3.0149564759999996,1.7659030788,5.32,-0.35000000000000003,-12.040000000000001,9.6370930215,-2.64550466656,1.18504539265,-16.768500000000003,-31.003000000000007,6.832000000000003
1.9230397069999299,10.758130409599998,-3.0939196217999996,1.7515461432000001,4.41,1.7500000000000002,-14.700000000000001,9.765109030599998,-2.7105894412800002,1.18839534429,-14.014000000000001,-28.535500000000006,4.945500000000001
1.9303356759999133,10.480562988,-3.6442688197999993,1.7898313048,6.720000000000001,2.8000000000000003,-16.73,9.86632542658,-2.8115665549999997,1.20394869119,-10.874500000000001,-25.952500000000008,2.933000000000002
1.9373946449999266,10.317851051199998,-3.833301805199999,1.8759729183999998,11.620000000000001,2.66,-18.060000000000002,9.940383286049999,-2.9240292172,1.27082808286,-7.416500000000002,-23.359,0.7910000000000004
1.9444676150000078,10.198209921199998,-3.7543386593999997,2.0985054202,15.400000000000002,0.9100000000000001,-20.930000000000003,9.994102153419998,-3.03278300437,1.2881760467099999,-3.0799999999999996,-20.846,-1.6275000000000008
1.9515845839999884,10.121639597999998,-3.7112678526,2.1870398563999998,19.6,0.35000000000000003,-25.76,10.049495996609998,-3.1371100697300003,1.3442877366799997,0.6685000000000002,-18.357499999999995,-4.399500000000001
1.9586345540000138,10.157531936999998,-3.5772697869999996,2.3114666315999997,22.610000000000003,0.14,-28.560000000000002,10.094361420359999,-3.2102108001599996,1.4378471003399997,4.385500000000002,-15.938999999999997,-7.297499999999999
1.965771522999944,10.3226366964,-3.3643085755999995,2.3641087288,23.94,0.7000000000000001,-30.310000000000002,10.144610694959997,-3.25567442956,1.5401402664899997,7.5565000000000015,-13.5765,-10.1745
1.9727494929999239,10.3274223416,-3.1322047833999997,2.2731814699999995,25.69,1.54,-31.780000000000005,10.211490086629997,-3.28103834912,1.6283157792999994,10.339000000000002,-11.301500000000003,-12.95
1.97977146300002,10.191031453399999,-3.0293134116,2.2492532439999997,27.790000000000003,2.5200000000000005,-31.150000000000002,10.274301679879999,-3.2797222966899993,1.7133806227299995,12.628,-9.089500000000003,-15.309000000000001
1.9868764319999173,10.164710404799997,-2.7804598611999998,2.2181465501999997,29.19,3.7100000000000004,-28.770000000000003,10.333404398099997,-3.2545976593899995,1.7866009942899992,14.5425,-6.905500000000002,-17.167499999999997
1.9937604020000208,10.0474620974,-2.691925425,2.2492532439999997,31.150000000000002,5.250000000000001,-26.67,10.376594846029999,-3.2099715178999992,1.8495322286699998,15.274000000000001,-4.847500000000002,-18.578
2.001259369999957,9.7651090306,-2.5507488916,2.4550359876,31.150000000000002,7.490000000000001,-25.62,10.393464245359997,-3.1636704005899996,1.9116259751399998,16.485,-2.8630000000000004,-19.561500000000002
2.0082943400000204,9.4923272542,-2.5579273594,2.644068973,29.26,9.100000000000001,-25.76,10.371689559699998,-3.12538523899,1.97587326195,17.499999999999996,-1.0325000000000002,-20.3315
2.015301309999927,9.193224429199999,-2.5052852621999997,2.7373890543999995,26.180000000000003,11.620000000000001,-26.110000000000003,10.322277773009999,-3.0882964886899993,2.04275265362,18.2665,0.7280000000000001,-21.0035
2.0221862799999144,9.0161555568,-2.2755742925999995,2.739781877,22.330000000000002,11.48,-25.62,10.24762170789,-3.0461828109299995,2.10891419851,18.784499999999998,1.3685,-21.6615
2.029202249999912,8.915657007599998,-2.177468566,2.7326034091999993,20.3,10.64,-25.970000000000002,10.14999454581,-3.01316185905,2.1722043562799995,19.159,2.59,-22.361500000000003
2.0361992189999683,8.7888374098,-2.1224336461999997,2.6751756667999995,20.51,7.98,-25.480000000000004,10.04482999254,-2.97930341926,2.22855532851,19.5965,3.5245000000000006,-23.061500000000002
2.043226188999938,8.6787675702,-1.9836499353999997,2.5986053435999996,22.750000000000004,6.16,-24.360000000000003,9.93236733034,-2.93683081811,2.27270290548,20.2125,4.210500000000001,-23.744000000000007
2.050247158999923,8.6309111182,-1.9836499353999997,2.5938196983999995,25.060000000000002,4.130000000000001,-22.680000000000003,9.819067180229998,-2.8892136483699997,2.31553443002,21.049,4.529000000000001,-24.353000000000005
2.057257128999936,8.5375910368,-1.7970097725999998,2.6057838114,26.040000000000003,2.8000000000000003,-21.000000000000004,9.705288465599999,-2.8283163131999998,2.35752846665,22.085,4.6865000000000006,-24.801000000000005
2.0644240980000177,8.429914019799998,-1.6486547713999997,2.5746771176,27.37,1.8900000000000001,-19.180000000000003,9.58887764611,-2.7560530706799997,2.3986850153699995,23.233,4.6935,-25.025000000000006
2.071424067999942,8.4993058752,-1.5529418674,2.4789642136,28.770000000000003,1.1900000000000002,-18.200000000000003,9.489814790470001,-2.6514867230599997,2.433141660809999,24.335500000000003,4.613,-25.09850000000001
2.078480036999963,8.568697730599999,-1.4045868662,2.4861426813999996,28.210000000000004,0.9100000000000001,-16.03,9.40235712444,-2.53005097611,2.4636501489599993,25.165,4.525499999999999,-24.997000000000003
2.085565007000014,8.669196279799998,-1.3663017045999997,2.4358934068,26.46,0.42000000000000004,-12.670000000000002,9.325906442370002,-2.4106491283700002,2.4805195482899993,25.718,4.5009999999999994,-24.584000000000007
2.0932419729999765,8.7768732968,-1.4524433182,2.3042881638,23.520000000000003,-0.7000000000000001,-9.24,9.258668127309999,-2.29770790165,2.4863819636599995,25.913999999999998,4.4485,-23.758000000000006
2.1004209419999142,8.769694828999999,-1.4811571894,2.3258235672,19.39,-1.12,-5.180000000000001,9.18927627191,-2.1929022717699995,2.4870998104399993,25.752999999999997,4.3854999999999995,-22.589000000000006
2.1075049119999676,8.6668034572,-1.5170495283999998,2.2061824372,15.610000000000001,-2.24,-3.9200000000000004,9.10648460995,-2.1005393194099993,2.4792034958599993,25.336499999999997,4.2385,-21.2695
2.11452688199995,8.583054666199999,-1.6414763035999997,2.1583259852,13.160000000000002,-2.87,-2.9400000000000004,9.01926622618,-2.02600289542,2.4734607216199995,24.71,4.017999999999999,-19.827500000000004
2.1214888519999704,8.554340795,-1.6630117069999997,1.9836499353999997,12.39,-3.5700000000000003,-2.1,8.937431693259999,-1.95768781019,2.4601805561899996,23.939999999999998,3.713499999999999,-18.375000000000007
2.1284588219999705,8.520841278599999,-1.7180466268,1.9357934833999997,12.740000000000002,-3.7800000000000002,-2.1,8.855238236949997,-1.9045671484700002,2.4460629028499996,23.1175,3.339,-17.041500000000006
2.135599791000004,8.5399838594,-1.8257236438,1.8281164663999998,14.490000000000002,-3.7800000000000002,-1.7500000000000002,8.779864325049997,-1.86125705941,2.4250060639699997,22.284499999999998,2.8874999999999984,-15.795500000000004
2.1426287599999796,8.5591264402,-1.8496518698,1.6845471104,15.47,-3.5000000000000004,-1.05,8.719565195529999,-1.8262022083200002,2.3864816201099996,21.500500000000002,2.3379999999999996,-14.567000000000004
2.1496557299999495,8.583054666199999,-1.7012968685999998,1.7682959014,16.66,-1.8900000000000001,-0.56,8.67410156613,-1.7833706837799999,2.3426929665299996,20.870500000000003,1.7884999999999998,-13.307000000000006
2.156763699999942,8.6668034572,-1.6917255782,1.7587246109999999,17.71,0.28,0.14,8.647780517529998,-1.7426926995799996,2.29375974436,20.447000000000006,1.2215000000000003,-11.9945
2.1637496689999125,8.602197247,-1.7706887239999998,1.7347963849999999,17.430000000000003,1.6800000000000002,1.05,8.62708260204,-1.71744842115,2.2435104697599995,20.202000000000005,0.7314999999999998,-10.661
2.170908639000004,8.554340795,-1.7395820302,1.8089738855999997,16.59,2.31,1.2600000000000002,8.609016791410001,-1.6955540943599998,2.19732899358,20.016500000000004,0.3150000000000003,-9.299500000000002
2.177926608000007,8.5088771656,-1.6654045295999997,1.8089738855999997,16.450000000000003,2.24,1.2600000000000002,8.5950187792,-1.6727026385299997,2.1540189045199996,19.813500000000005,0.028000000000000157,-7.962500000000001
2.185019577999924,8.583054666199999,-1.6558332392,1.7419748528,15.120000000000001,1.8200000000000003,1.2600000000000002,8.590233133999998,-1.65631180372,2.1111873799799996,19.432000000000006,-0.18899999999999997,-6.681500000000002
2.19211854699995,8.6907316832,-1.471585899,1.7084753364,13.580000000000002,1.4700000000000002,1.12,8.59322416225,-1.6307086018999997,2.0669201618799997,18.858000000000004,-0.32200000000000006,-5.491499999999999
2.1991575170000033,8.774480474199999,-1.3543375915999998,1.6271193679999998,12.110000000000001,1.7500000000000002,1.05,8.605068634120002,-1.6085749928499997,2.01798693971,18.1615,-0.3745,-4.388999999999999
2.206169485999908,8.9419780562,-1.2299108163999999,1.5457633995999998,10.850000000000001,2.87,0.42000000000000004,8.630671835940001,-1.5876377951,1.9665412538099996,17.3355,-0.3255000000000001,-3.408999999999999
2.2132704559999183,8.9802632178,-1.0504491214,1.4859428345999999,10.99,3.99,0.35000000000000003,8.654719703070002,-1.5625131578,1.9168901848600002,16.446500000000004,-0.18550000000000016,-2.481500000000001
2.220280425999931,9.080761767,-1.016949605,1.3974083984,11.9,6.090000000000001,0.49000000000000005,8.680322904890001,-1.54313129474,1.86245347071,15.631000000000004,0.0734999999999999,-1.6555000000000006
2.227235395999969,9.224331122999999,-0.8925228297999999,1.3950155758,14.490000000000002,7.7700000000000005,1.8900000000000001,8.708079647049999,-1.5194423510000001,1.81040957916,15.032500000000002,0.44099999999999984,-0.9274999999999999
2.2343803649999927,9.3152583818,-0.7992027483999999,1.4093725114,16.17,10.57,3.99,8.7349989013,-1.48678032251,1.7656637965399997,14.665000000000003,1.0045,-0.26599999999999985
2.2412273349999623,9.107082815599998,-0.48095734259999995,1.3256237203999999,18.41,12.040000000000001,5.390000000000001,8.751868300629999,-1.43677033017,1.7156538041999998,14.616000000000005,1.6625,0.2624999999999999
2.2482533049999347,9.387043059799998,-1.4859428345999999,1.5840485612,17.150000000000002,16.450000000000003,9.66,8.78788028076,-1.43521499548,1.6845471103999998,14.693000000000003,2.5970000000000004,0.9414999999999999
2.255264274999945,8.9539421692,-0.7609175867999999,1.7563317884,15.400000000000002,18.55,10.360000000000001,8.806424655909996,-1.39118705964,1.6644474005599996,14.805000000000001,3.6680000000000006,1.6065
2.262215244999993,8.8821574912,-0.9284151687999999,1.7898313048,13.160000000000002,20.650000000000002,9.520000000000001,8.822815490719998,-1.3544572327300002,1.6547564690299996,14.843500000000002,4.8790000000000004,2.1875000000000004
2.269284213999981,8.822336926199998,-1.3615160593999998,1.7659030788,13.440000000000001,21.700000000000003,8.47,8.837890273099998,-1.33663070436,1.6462619487999999,14.878500000000003,6.1530000000000005,2.716
2.276288184000009,8.803194345399998,-1.1964112999999998,1.8687944505999998,13.3,21.98,8.610000000000001,8.851050797399997,-1.3051650871700002,1.6482958480099998,14.819000000000003,7.441,3.2340000000000004
2.2833311539999386,8.846265152199999,-1.2681959779999998,1.9405791285999996,13.930000000000001,22.19,8.33,8.865407732999998,-1.27609229258,1.66109744892,14.742000000000004,8.7255,3.7030000000000003
2.290328123999984,9.001798621199999,-1.2179467034,1.9836499353999997,16.450000000000003,23.03,6.930000000000001,8.886344930749997,-1.2519247843200003,1.67186515062,14.731500000000002,9.9715,4.077500000000001
2.29734909299998,9.140582332,-1.4596217859999998,2.0410776778,19.32,24.430000000000003,7.700000000000001,8.91003387449,-1.24031959471,1.68598280396,14.812000000000001,11.179,4.455500000000001
2.304441063000013,9.152546444999999,-1.6366906583999998,2.1870398563999998,21.700000000000003,25.970000000000002,9.520000000000001,8.93755133439,-1.23361969143,1.7085949775299998,15.0255,12.3935,4.8790000000000004
2.311295032999965,9.090333057399999,-1.8400805794,2.3856441322,22.400000000000002,27.37,9.870000000000001,8.964350947509997,-1.2386446188899998,1.7374284898599999,15.315999999999999,13.6465,5.309500000000001
2.3184160019999354,8.985048863,-2.1726829208,2.5100709073999994,22.540000000000003,30.310000000000002,9.66,8.98815953238,-1.2640085384499995,1.77248334095,15.620500000000002,15.05,5.729500000000001
2.3253399729999273,8.894121604199999,-2.333002035,2.6703900216,23.03,31.430000000000003,8.47,9.003712879279998,-1.2978669782399996,1.8189040993899996,16.016000000000002,16.5305,6.090000000000001
2.332333941999991,8.8343010392,-2.4095723582,2.7421746995999996,21.770000000000003,32.27,7.630000000000001,9.01089134708,-1.3447663011999995,1.8705890675499997,16.4255,18.0705,6.4155
2.339392911999994,8.6883388606,-2.5627130046,2.8809584104000003,20.3,33.67,5.74,9.006584266399999,-1.4051850718499996,1.9332810196699999,16.835,19.666500000000003,6.65
2.3463848819999384,8.6787675702,-2.691925425,2.9886354273999993,18.55,34.02,2.7300000000000004,8.9934237421,-1.4782858022799998,2.0054246210599995,17.22,21.224,6.7655
2.353347851999956,8.542376681999999,-2.6967110702,3.2279176873999997,17.430000000000003,33.74,1.2600000000000002,8.971529415309998,-1.56059889972,2.0925233636999994,17.541999999999998,22.7115,6.811
2.3603848209999114,8.602197247,-2.6943182475999996,3.3475588174,17.150000000000002,33.040000000000006,-0.14,8.947601189309998,-1.6444673318499998,2.1900308846499996,17.804499999999997,24.059,6.7795000000000005
2.3675237909999396,8.681160392799999,-2.6727828442,3.4217363179999998,15.330000000000002,31.640000000000004,-1.61,8.920442652799997,-1.7334803325699997,2.2913669217599995,17.8465,25.2525,6.604499999999999
2.375296757000001,8.7888374098,-2.6081766339999994,3.4025937371999997,14.840000000000002,29.050000000000004,-2.3800000000000003,8.894121604199999,-1.82392902685,2.39102798305,17.779999999999998,26.176500000000004,6.286
2.3823657269999785,8.889335959,-2.6129622791999996,3.3403803495999997,14.700000000000001,25.970000000000002,-2.1700000000000004,8.88323426137,-1.9305292736799995,2.49176581451,17.5945,26.873,5.9079999999999995
2.3894286959999818,9.059226363599999,-2.51246373,3.2757741393999997,15.680000000000001,23.17,-2.3800000000000003,8.86684342656,-1.9818553184499996,2.5763520934199997,17.520999999999997,27.208999999999996,5.306
2.396553664999942,9.169296203199998,-2.3760728418,3.2350961551999995,16.73,22.12,-2.1,8.877611128259998,-2.0626130811999994,2.6502903117599996,17.5875,27.387500000000006,4.683000000000001
2.4035416350000105,9.2697947524,-2.333002035,3.1968109935999998,16.450000000000003,23.03,-1.4000000000000001,8.89699299132,-2.1328424245099997,2.7206392961999994,17.752000000000002,27.5065,4.1370000000000005
2.4106226049999577,9.272187575,-2.2755742925999995,3.2255248647999997,16.73,24.71,-0.35000000000000003,8.919485523759999,-2.17854533617,2.7936203854999997,17.916500000000003,27.657000000000004,3.6960000000000006
2.4176865739999585,8.621339827799998,-2.309073809,3.3236305913999997,16.380000000000003,26.6,0.6300000000000001,8.910392797879998,-2.23417846162,2.8663621925399996,18.070500000000003,27.888000000000005,3.2970000000000006
2.4245975449999833,8.951549346599998,-2.380858487,3.5940195451999997,16.1,27.930000000000003,0.07,8.915657007599998,-2.2898115870699995,2.949034213369999,18.179000000000006,28.175,2.8840000000000012
2.431702513999994,8.7673020064,-2.4071795355999996,3.7710884175999997,14.280000000000001,27.230000000000004,-1.8200000000000003,8.90393217686,-2.3492732286799995,3.038406137479999,18.070500000000003,28.385,2.4465
2.4387094840000145,7.994420306599999,-2.4335005842,3.888336725,12.250000000000002,25.480000000000004,-3.9200000000000004,8.84662407559,-2.3979671685899993,3.130769089839999,17.717000000000006,28.437500000000007,1.8654999999999997
2.445705453999949,8.4538422458,-2.4095723582,3.9194434187999994,9.24,22.330000000000002,-5.6000000000000005,8.81168886563,-2.4366112535799997,3.2173892679599994,17.094000000000005,28.255500000000005,1.1095
2.4527684229999522,8.513662810799998,-2.2995025185999998,3.9050864831999994,6.720000000000001,19.53,-6.86,8.782855353299997,-2.45958235054,3.293361385509999,16.310000000000002,27.863500000000005,0.2729999999999998
2.4597893929999373,8.5591264402,-2.1990039693999996,3.8093735791999994,6.65,16.59,-7.5600000000000005,8.76155923216,-2.46089840297,3.3583265191000002,15.515500000000003,27.17750000000001,-0.5879999999999997
2.4668203619999076,8.583054666199999,-2.069791549,3.7160534977999995,6.370000000000001,14.770000000000001,-7.910000000000001,8.746005885259999,-2.44773787867,3.4106096929100005,14.682500000000001,26.344500000000004,-1.4069999999999998
2.473904331999961,8.583054666199999,-1.8472590472,3.5868410773999995,6.930000000000001,14.280000000000001,-7.700000000000001,8.733443566609997,-2.4196222131199994,3.4528430117999998,13.9405,25.445000000000004,-2.1735
2.4810383010000123,8.6668034572,-1.698904046,3.5629128513999997,7.840000000000001,14.14,-7.140000000000001,8.732366796439996,-2.3764317651899995,3.4869407338499996,13.317499999999999,24.468500000000006,-2.8175000000000003
2.48814427100001,8.6524465216,-1.5960126742,3.5174492219999998,8.47,14.000000000000002,-5.8100000000000005,8.731050744009998,-2.3216361276499997,3.5133814235799994,12.813500000000001,23.4675,-3.244500000000001
2.495152239999925,8.520841278599999,-1.5050854154,3.5724841417999995,9.38,13.930000000000001,-4.83,8.729973973839998,-2.2620548449099998,3.5306097463,12.411000000000003,22.477,-3.5490000000000004
2.502142209999988,8.4059857938,-1.5074782379999998,3.6849468039999995,8.96,13.370000000000001,-3.9200000000000004,8.720163401179999,-2.20271284443,3.5474791456300006,12.001500000000002,21.493500000000004,-3.7380000000000004
2.5092081799999733,8.3700934548,-1.5074782379999998,3.7184463204,8.120000000000001,13.510000000000002,-3.08,8.70461005428,-2.1444476141199997,3.56231464575,11.641000000000002,20.586999999999996,-3.8115
2.516250148999916,8.324629825399999,-1.4739787215999998,3.7974094662,7.140000000000001,13.160000000000002,-2.24,8.681399675059998,-2.0877377184999997,3.5820554321999993,11.256000000000004,19.7925,-3.8045
2.5231571199999507,8.216952808399999,-1.4500504955999998,3.8668013215999997,6.090000000000001,11.97,-2.5200000000000005,8.647780517529998,-2.0295921293199997,3.608376480799999,10.825500000000002,19.0925,-3.822
2.530318088999934,8.1044901462,-1.5792629159999998,3.8285161599999995,5.74,11.06,-3.5000000000000004,8.60004370666,-1.9829320886199997,3.6360135818299995,10.328500000000002,18.487000000000002,-3.878
2.5373610579999877,8.111668614,-1.7347963849999999,3.7878381757999997,7.420000000000001,9.100000000000001,-4.970000000000001,8.547162327199999,-1.95086826578,3.6636506828599993,9.863000000000003,17.836000000000006,-4.0215
2.5445130269999936,8.140382485199998,-1.7515461432000001,3.7519458367999996,11.340000000000002,8.89,-6.370000000000001,8.490691713839999,-1.9217954711900003,3.6914074250200004,9.607500000000003,17.129000000000005,-4.2700000000000005
2.55141399799993,8.25523797,-1.8376877567999998,3.7998022887999996,15.05,8.120000000000001,-6.790000000000001,8.43984423359,-1.8999011444000005,3.7201212962199994,9.523500000000002,16.299500000000005,-4.5920000000000005
2.5584269669999458,8.528019746399998,-1.9429719511999999,3.9481572899999993,16.17,8.89,-6.0200000000000005,8.43517822952,-1.8815960515100003,3.7513476311499985,9.513000000000002,15.414000000000001,-4.9245
2.5655459369999107,8.6237326504,-2.2301106632,3.9960137419999997,17.430000000000003,9.38,-4.550000000000001,8.418787394709998,-1.87405866032,3.7714473409899996,9.579500000000001,14.486500000000001,-5.1555
2.5725049069999386,8.676374747599999,-2.3904297774,4.031906081,17.150000000000002,9.450000000000001,-3.43,8.414241031769999,-1.87322117241,3.7844882241599995,9.723,13.5975,-5.236000000000001
2.5796118759999445,8.662017811999998,-2.4717857457999997,4.1300118076,16.73,10.010000000000002,-3.5000000000000004,8.447620907039997,-1.87513543049,3.7965719782899994,9.947,12.823999999999998,-5.215000000000001
2.586680845999922,8.621339827799998,-2.6416761503999995,4.170689791799999,16.8,10.64,-3.6400000000000006,8.455995786139997,-1.8867406200999999,3.8091342969399995,10.325000000000001,12.239499999999998,-5.117000000000001
2.5936828149999656,8.525626923799999,-2.7086751831999996,4.3860438258,17.360000000000003,10.290000000000001,-4.41,8.456593991789997,-1.9071992533300002,3.83318216407,10.857000000000003,11.7775,-4.9945
2.6008927839999387,8.484948939599999,-2.6177479243999993,4.3716868902,17.220000000000002,9.100000000000001,-7.3500000000000005,8.452885116759997,-1.9281364510799999,3.86129782962,11.385500000000002,11.402999999999997,-4.984
2.607931753999992,8.283951841199999,-2.6129622791999996,4.5200418914,17.990000000000002,7.840000000000001,-9.8,8.437929975509999,-1.9552949875899999,3.9014972492999993,11.966500000000002,11.056499999999998,-5.0785
2.6149767239999164,8.097311678399999,-2.5866412305999997,4.677968183,16.94,5.32,-11.06,8.413642826119998,-1.99226409676,3.95605360458,12.467000000000002,10.608499999999996,-5.2465
2.6218956939999316,7.992027483999999,-2.3617159062,4.7066820542,15.540000000000001,3.3600000000000003,-13.790000000000001,8.379904027459999,-2.0254046897699998,4.013242064720001,12.852,10.069499999999998,-5.579000000000001
2.628859663999947,8.039883935999999,-2.1607188078,4.6325045536,13.370000000000001,1.2600000000000002,-15.820000000000002,8.34927589818,-2.05363999645,4.068994831300001,13.097,9.432500000000001,-6.079500000000001
2.6358976330000132,8.111668614,-1.3328021881999996,4.462614149,12.46,-0.35000000000000003,-16.450000000000003,8.32881726495,-2.0450258350899997,4.113501331660001,13.251000000000001,8.7185,-6.660500000000002
2.64351560099999,8.257630792599999,-1.6079767872,4.3214376156,11.760000000000002,-2.31,-16.380000000000003,8.32139951489,-2.0500507625499997,4.145325872240001,13.391000000000002,7.9345,-7.283500000000001
2.6513095669999984,8.5040915204,-1.4620146085999999,4.2305103568,11.410000000000002,-4.0600000000000005,-14.070000000000002,8.32809941817,-2.0477775810799996,4.17092907406,13.555500000000004,7.056000000000002,-7.833000000000001
2.6583915359999537,8.604590069599999,-1.3064811395999998,4.2161534212,9.520000000000001,-5.32,-12.32,8.34209743038,-2.03940270198,4.19186627181,13.6745,6.132000000000001,-8.337
2.665473506000012,8.6069828922,-1.256231865,4.1826539047999995,7.140000000000001,-5.74,-10.500000000000002,8.36159893457,-2.02971177045,4.20765890097,13.727,5.246500000000001,-8.736
2.6723924759999136,8.551947972399999,-1.208375413,4.1922251952,3.3600000000000003,-6.370000000000001,-10.57,8.38397182588,-2.0111673953,4.22584435273,13.608,4.375000000000001,-9.089500000000001
2.6794184459999997,8.5112699882,-1.3184452525999997,4.0271204358,0.6300000000000001,-7.700000000000001,-11.13,8.40395189459,-1.9903498386799998,4.23780846573,13.268500000000003,3.535000000000001,-9.3975
2.6865684150000106,8.5016986978,-1.399801221,3.8955151927999996,0.07,-8.82,-11.760000000000002,8.42201770522,-1.9727625925699992,4.244986933530001,12.705000000000002,2.6495000000000015,-9.667
2.6936553839999533,8.4418781328,-1.4093725114,3.8859439023999998,2.7300000000000004,-10.290000000000001,-12.950000000000001,8.431349713360001,-1.9513468302999997,4.24929401421,12.089,1.7290000000000014,-9.974999999999998
2.700813352999944,8.391628858199999,-1.4548361408000001,3.9314075317999997,4.760000000000001,-11.9,-14.980000000000002,8.424530168949998,-1.9269400397799998,4.2484565263,11.5185,0.6895000000000006,-10.422999999999998
2.707860322999977,8.410771439,-1.4739787215999998,3.9457644673999996,8.47,-13.23,-17.85,8.41388210838,-1.8891334426999993,4.24594406257,11.0705,-0.44099999999999995,-11.088
2.714887292999947,8.4969130526,-1.3375878333999998,4.0007993872,10.71,-13.930000000000001,-18.62,8.404909023629997,-1.8364913454999994,4.2443887278800005,10.7485,-1.61,-11.8475
2.7218172629999344,8.6428752312,-0.6197410534,4.0773697104,11.48,-13.790000000000001,-18.55,8.403951894589998,-1.7438891108799996,4.241756623020001,10.485999999999999,-2.8000000000000003,-12.6
2.7287602330000027,8.7720876516,-0.9930213789999999,4.0725840652,12.110000000000001,-14.000000000000002,-19.110000000000003,8.411489285779998,-1.6614563723099998,4.236851336690001,10.251500000000002,-4.032000000000001,-13.373499999999998
2.735838201999968,8.853443619999998,-0.8853443619999999,4.137190275399999,12.250000000000002,-14.070000000000002,-18.41,8.427880120589998,-1.5702898312499998,4.224408659170001,9.996,-5.25,-14.073500000000001
2.742824171999928,8.908478539799999,-0.6580262149999999,4.1970108404,10.500000000000002,-15.190000000000001,-17.150000000000002,8.449056600599999,-1.4723037457800001,4.215674856680001,9.66,-6.464500000000001,-14.5635
2.749792141999933,9.0735832992,-0.46420758439999993,4.1826539047999995,8.190000000000001,-15.96,-16.310000000000002,8.4885381735,-1.36486601104,4.19880545735,9.17,-7.654500000000001,-14.889
2.756732112000009,9.142975154599998,-0.40677984199999995,4.1060835816,7.000000000000001,-18.41,-14.63,8.54082134731,-1.2558729416099998,4.17021122728,8.673,-8.841000000000001,-15.067499999999999
2.7637010820000114,9.2386880586,-0.37088750299999995,4.0151563228,4.970000000000001,-19.110000000000003,-13.020000000000001,8.603154376039999,-1.1563315214499998,4.135634940709999,8.1445,-9.964500000000001,-15.029
2.7708240519999663,9.2171526552,-0.23928225999999997,3.984049629,2.5200000000000005,-20.160000000000004,-11.690000000000001,8.662017812,-1.0602596940599998,4.103212194479999,7.602000000000001,-11.035500000000003,-14.8225
2.777847020999957,9.2219383004,-0.2679961312,3.8596228537999995,1.33,-21.14,-12.600000000000001,8.71753129632,-1.0070193912099998,4.07306262972,7.045500000000001,-12.075,-14.630000000000004
2.784880990999909,9.2745803976,-0.2679961312,3.7830525305999996,1.2600000000000002,-21.700000000000003,-13.020000000000001,8.768378776570001,-0.9400203584099998,4.04614337547,6.5205,-13.044500000000003,-14.462000000000003
2.791892960999917,9.3487578982,-0.2943171798,3.5557343836,2.5200000000000005,-21.910000000000004,-13.23,8.81061209546,-0.8816354869699999,4.012404576809999,6.076,-13.937000000000003,-14.420000000000002
2.7988949299999604,9.415756930999999,-0.23928225999999997,3.5006994637999993,4.48,-21.42,-13.370000000000001,8.851170438530001,-0.82827554299,3.97663187894,5.824,-14.742000000000004,-14.472500000000002
2.8061578989999134,9.4564349152,-0.45224347139999993,3.5198420445999994,7.840000000000001,-19.67,-13.160000000000002,8.89364303968,-0.78807612331,3.94349128593,5.859,-15.438500000000005,-14.605500000000003
2.8131918689999793,9.4348995118,-0.5072783912,3.5653056739999998,9.030000000000001,-15.610000000000001,-12.530000000000001,8.937790616650002,-0.75302127222,3.9121453098699996,6.1425,-15.900500000000005,-14.703500000000002
2.8202668379999523,9.346365075599998,-0.48335016519999996,3.5772697869999996,9.8,-13.160000000000002,-13.510000000000002,8.97954537102,-0.71126651785,3.88965277743,6.601000000000001,-16.1735,-14.822500000000002
2.82723380799996,9.3009014462,-0.5024927459999999,3.6035908356,9.31,-10.780000000000001,-14.14,9.01950550844,-0.6664010941,3.8750565595700004,7.063000000000001,-16.271500000000003,-14.941500000000001
2.834361778000016,9.308079914,-0.49292145559999995,3.4983066411999997,9.24,-8.33,-13.72,9.0628155975,-0.6205785413099998,3.8556746965099995,7.3885000000000005,-16.173500000000004,-14.98
2.841376746999913,9.353543543399999,-0.3397808092,3.4073793824000003,10.360000000000001,-7.490000000000001,-13.510000000000002,9.11091133176,-0.5648257747299998,3.82947328904,7.668500000000002,-15.953,-14.9065
2.8484267169999384,9.236295236,-0.31106693799999996,3.4887353508,12.88,-6.510000000000001,-13.370000000000001,9.15218752161,-0.5066801855499998,3.8066218332099995,7.889000000000001,-15.616999999999999,-14.682500000000001
2.8554916859999366,9.1740818484,-0.26321048599999997,3.5270205124,13.930000000000001,-6.300000000000001,-13.650000000000002,9.1860459614,-0.45296131817999996,3.782932889469999,8.05,-15.235500000000002,-14.434000000000001
2.8625126559999217,9.049655073199999,-0.16749758199999998,4.237688824599999,15.190000000000001,-7.07,-15.260000000000002,9.206384953499997,-0.43034914460999996,3.7909488451799995,8.2355,-14.8995,-14.269499999999997
2.869635625000001,8.8558364426,-0.11006983959999998,3.7567314819999997,15.47,-8.4,-16.59,9.210572393049999,-0.38620156763999997,3.77515621602,8.4035,-14.619499999999999,-14.143499999999998
2.8767355950000137,8.9419780562,-0.08853443620000001,3.8069807566,14.14,-10.15,-18.48,9.214999114860001,-0.34636107135,3.75864574008,8.498000000000001,-14.4235,-14.147
2.8837115649999987,9.731609514199999,-0.11246266220000001,3.7782668854,13.790000000000001,-11.06,-18.41,9.256155663579998,-0.31908289371,3.73770854233,8.662500000000001,-14.217000000000002,-14.209999999999999
2.890864534000002,9.4301138666,-0.023928225999999997,3.6849468039999995,12.88,-10.57,-16.520000000000003,9.27398219195,-0.29706892579,3.71282318729,8.896999999999998,-13.947500000000002,-14.220500000000001
2.8979235030000154,9.623932497199998,-0.0047856452,3.6514472876,8.82,-8.75,-12.740000000000002,9.29803005908,-0.27696921594999996,3.6900913725899995,8.988000000000001,-13.464500000000005,-14.126
2.9049634729999525,9.930213789999998,-0.14356935599999998,3.4791640604,4.130000000000001,-2.3800000000000003,-8.540000000000001,9.33260634565,-0.2656033086,3.6632917594700003,8.946,-12.628000000000002,-13.902000000000001
2.9120014430000083,9.9972128228,-0.4139583098,3.4265219632,1.7500000000000002,2.45,-3.22,9.371609354030001,-0.27433711109000003,3.635415376179999,8.9075,-11.497500000000002,-13.478500000000002
2.919101411999918,9.9038927414,-0.7585247641999999,3.5174492219999998,-1.05,9.24,1.1900000000000002,9.40570707608,-0.29886354274,3.6183066945899993,8.788499999999999,-9.9785,-12.789000000000001
2.9261123819999284,9.523433948,-1.0336993632,3.5844482548,-3.1500000000000004,15.330000000000002,2.1,9.4181497536,-0.33714870434,3.608376480799999,8.567999999999998,-8.126999999999999,-12.033000000000001
2.933191351000005,9.21236701,-1.3567304141999996,3.6418759971999997,-3.22,16.240000000000002,1.2600000000000002,9.41133020919,-0.39026936605999996,3.6126835614799995,8.280999999999999,-6.219499999999999,-11.308500000000002
2.9410043179999548,8.894121604199999,-1.5409777543999998,3.6083764807999996,17.360000000000003,15.47,-17.92,9.385248442850001,-0.45535414078,3.6180674123300003,8.925,-4.375000000000002,-11.536000000000001
2.9480832869999176,8.719445554399998,-1.8424734019999998,3.5509487384000002,4.130000000000001,13.650000000000002,-3.5700000000000003,9.34839897481,-0.5248656373099999,3.61962274702,8.7395,-2.7090000000000005,-11.056500000000003
2.955150257000014,8.5974116018,-1.9214365477999997,3.4289147857999995,9.8,10.500000000000002,-7.630000000000001,9.306524579309999,-0.5955735451399999,3.6128032026100003,8.778,-1.403500000000001,-10.8115
2.9620992269999533,8.5040915204,-1.9860427579999997,3.3260234139999993,34.650000000000006,8.47,-12.250000000000002,9.264410901549999,-0.6707081747799999,3.60024088396,10.020500000000002,-0.3219999999999995,-10.748500000000002
2.969178195999916,8.382057567799999,-2.0027925162,3.3930224468,25.480000000000004,7.7700000000000005,-16.310000000000002,9.218468707629999,-0.7457231632899999,3.5897124645200007,10.829000000000002,0.6055000000000005,-10.857000000000003
2.9762261659999467,8.324629825399999,-1.9764714675999997,3.4504501891999997,31.080000000000002,8.33,-18.900000000000002,9.1692962032,-0.8199006638899998,3.5873196419199997,11.921000000000003,1.4385,-11.116000000000001
2.9832541349999246,8.288737486399999,-1.7659030788,3.5174492219999998,35.910000000000004,9.31,-22.12,9.11605590035,-0.8912067773699999,3.592823133899999,13.198500000000001,2.278500000000001,-11.546500000000002
2.990323105000016,8.382057567799999,-1.7754743692000001,3.5844482548,39.410000000000004,10.57,-22.89,9.073344016939998,-0.9644271489299999,3.597608779099999,14.525000000000002,3.1325000000000007,-12.022500000000003
2.9973820750000186,8.336593938399998,-1.8065810629999999,3.8739797894,41.440000000000005,12.180000000000001,-22.400000000000002,9.03146962144,-1.04159567778,3.6149567429499987,15.900500000000003,4.0565000000000015,-12.46
3.0044970440000043,8.350950873999999,-1.698904046,4.0534414844,40.6,13.23,-21.000000000000004,8.996534411479999,-1.1181660009799999,3.6057443759399987,17.171000000000003,5.071500000000001,-12.747000000000002
3.01155501300002,8.4323068424,-1.5864413838,4.151547211,37.38,12.950000000000001,-19.6,8.97535793147,-1.19198457819,3.6254851623899995,18.2665,6.139000000000001,-12.897500000000003
3.018643982999947,8.583054666199999,-1.6271193679999998,4.1778682596,32.690000000000005,11.690000000000001,-17.01,8.957411761969999,-1.2689138247799998,3.64402953754,19.194000000000003,7.231,-12.824000000000002
3.0256529529999625,8.551947972399999,-1.6462619487999999,4.850251410199999,29.610000000000003,10.15,-15.260000000000002,8.898428684879999,-1.3456037891099997,3.69762876378,19.985000000000003,8.2915,-12.6665
3.032677921999948,8.4394853102,-1.5960126742,4.4195433422,27.020000000000003,6.580000000000001,-14.490000000000002,8.84889725706,-1.4242080115199998,3.7343585906899994,20.692,9.149,-12.565000000000001
3.039668892000009,8.2217384536,-1.6677973521999998,4.551148585199999,24.01,4.2,-14.770000000000001,8.778787554880001,-1.50735859687,3.77934365557,21.4515,9.796499999999998,-12.666500000000001
3.0467528619999484,7.3890361888,-1.7587246109999999,4.740181570599999,21.000000000000004,1.05,-15.820000000000002,8.651728674820001,-1.58811635962,3.84239453108,22.294999999999998,9.968,-13.0305
3.0537478310000097,7.7838519178,-1.7324035624,4.761716974,17.64,-3.22,-16.87,8.541060629570001,-1.65403862225,3.90915428162,23.089499999999997,9.6845,-13.713
3.060828800999957,7.764709336999998,-1.6438691261999998,4.7066820542,13.580000000000002,-8.120000000000001,-17.220000000000002,8.43410145935,-1.69830584035,3.9686159232299993,23.820999999999998,8.816500000000001,-14.633500000000003
3.067893769999955,7.8699935314,-1.4859428345999999,4.5152562462,11.97,-13.23,-17.92,8.351429438519999,-1.72091801392,4.015156322799999,24.577,7.388500000000002,-15.634500000000003
3.0749667399999225,7.944171031999999,-1.2466605746,4.285545276599999,11.200000000000001,-16.59,-17.01,8.28801963962,-1.71541452194,4.047339786769999,25.298,5.7470000000000026,-16.548000000000002
3.0820337089999157,8.070990629799999,-1.1198409767999997,4.0845481781999995,9.38,-19.250000000000004,-15.120000000000001,8.246863090899998,-1.6943576830599998,4.07114837164,24.898999999999997,4.011000000000001,-16.408
3.0890496789999133,8.207381518,-0.9786644433999999,3.8596228537999995,7.7700000000000005,-19.6,-13.23,8.221259889079999,-1.65116723513,4.08658207741,25.080999999999996,2.3485000000000005,-16.891000000000002
3.096113649000017,8.171489179,-0.8422735552,3.6825539814,4.9,-18.970000000000002,-11.410000000000002,8.19996376794,-1.5972090854999998,4.099264037190001,24.835999999999995,0.8749999999999994,-17.080000000000005
3.1031996179999624,8.1547394208,-0.6819544409999999,3.5820554322,2.7300000000000004,-18.900000000000002,-10.71,8.182496162960001,-1.5320046696499996,4.112065638100001,23.24,-0.4935000000000006,-17.003000000000004
3.1102425880000055,8.0662049846,-0.6484549245999999,3.5318061576,1.12,-19.67,-11.760000000000002,8.1667035338,-1.4642877900699998,4.11900482364,22.022,-1.8655000000000004,-16.7755
3.1173285569999507,8.070990629799999,-0.6460621019999999,3.3882368016,0.42000000000000004,-21.28,-13.370000000000001,8.15402157402,-1.3977673217899995,4.11589415426,20.488999999999997,-3.346000000000001,-16.499000000000002
3.1245015260000173,8.1044901462,-0.6293123437999999,3.2733813167999997,1.9600000000000002,-24.360000000000003,-13.510000000000002,8.14480920701,-1.3409377850399993,4.103690759000001,18.7915,-5.0295000000000005,-16.068500000000004
3.131551495999929,8.1164542592,-0.3493520996,3.3116664784,3.9200000000000004,-25.200000000000003,-14.070000000000002,8.13152904158,-1.2696316715599996,4.090051670179999,17.017000000000003,-6.8180000000000005,-15.627499999999998
3.1385994659999596,8.1667035338,0.0167497582,3.493520996,3.7800000000000002,-26.180000000000003,-13.510000000000002,8.123034521349998,-1.1784651304999998,4.071028730509999,15.134,-8.736,-15.182999999999998
3.145575434999955,8.243273856999998,0.5838487144,3.2685956715999995,1.8900000000000001,-26.810000000000002,-11.97,8.117650670499998,-1.0643274924799997,4.0317864398699985,13.1985,-10.738000000000003,-14.731500000000002
3.152589404999958,8.25523797,0.0047856452,3.170489945,-1.61,-27.720000000000002,-8.610000000000001,8.108797226879998,-0.9847661410299999,3.98273357657,11.248999999999999,-12.771500000000001,-14.182000000000002
3.1596253750000187,8.042276758599998,0.05503491979999999,3.0412775245999994,-3.9200000000000004,-30.03,-6.510000000000001,8.0817583315,-0.90065842664,3.92590403982,9.418499999999998,-14.857500000000005,-13.657
3.1666743439999436,8.070990629799999,0.20578274359999998,2.9647072013999995,-6.0200000000000005,-31.500000000000004,-5.95,8.05771046437,-0.8080561920199999,3.83162682938,7.636999999999999,-16.940000000000005,-13.1915
3.173677313999974,8.2002030502,0.2105683888,2.7852455064000003,-6.23,-32.2,-6.090000000000001,8.045746351370001,-0.7177271388699998,3.7499119375900003,5.974499999999999,-18.879000000000005,-12.7715
3.1808412829999497,8.3174513576,0.15074782379999999,2.5674986497999996,-5.8100000000000005,-32.690000000000005,-5.040000000000001,8.05053199657,-0.6267998800699999,3.65072944082,4.4835,-20.7235,-12.285
3.187919253000018,8.360522164399999,0.39242290639999994,2.4071795355999996,-3.9200000000000004,-31.85,-4.2,8.099106295350001,-0.5192425042,3.5340793390699994,3.2375000000000007,-22.368500000000004,-11.703999999999997
3.195041221999986,8.3677006322,0.42592242280000003,2.3712871966,-0.77,-30.870000000000005,-4.9,8.12829873107,-0.41132620494000005,3.414557850199999,2.3170000000000006,-23.751000000000005,-11.1055
3.2020281919999434,8.2983087768,0.40438701939999994,2.3784656643999997,1.7500000000000002,-28.840000000000003,-5.040000000000001,8.15497870306,-0.3089133976600001,3.2981470307099996,1.7254999999999998,-24.787000000000006,-10.4965
3.209064162000004,8.2695949056,0.3780659708,2.4119651807999998,5.180000000000001,-27.300000000000004,-5.880000000000001,8.174958771770001,-0.21571295739000002,3.19298247744,1.3860000000000001,-25.490500000000004,-9.894499999999999
3.216825127999982,8.197810227599998,0.23688943739999999,2.3473589705999998,8.680000000000001,-25.62,-5.880000000000001,8.187640731550001,-0.14153545678999996,3.0960731621399997,1.2600000000000005,-25.942,-9.338
3.223782098000015,8.190631759799999,0.38285161599999995,2.3928225999999997,13.650000000000002,-25.060000000000002,-6.16,8.19362278805,-0.06640082714999997,3.01148688323,1.4735000000000007,-26.232500000000005,-8.889999999999999
3.2310880669999733,8.1260255496,0.37088750299999995,2.51246373,17.360000000000003,-23.310000000000002,-6.44,8.18955498963,0.0010767701700000187,2.9441289270400004,1.9530000000000005,-26.418000000000006,-8.550500000000001
3.2381590359999564,8.1786676468,0.346959277,2.5890340531999994,20.720000000000002,-22.19,-7.420000000000001,8.189913913019998,0.06053841178000002,2.8894529306300005,2.7440000000000007,-26.579,-8.350999999999999
3.2451660059999767,8.1786676468,0.37088750299999995,2.6847469571999993,23.450000000000003,-21.14,-8.33,8.191110324319997,0.11318050897999998,2.84458750688,3.7800000000000002,-26.691000000000003,-8.232000000000001
3.2522209759999896,8.3102728898,0.42592242280000003,2.763710103,24.360000000000003,-20.3,-8.190000000000001,8.203313719579999,0.16689937635000002,2.80618270415,4.942000000000001,-26.722500000000004,-8.053500000000001
3.2591689459999316,8.4562350684,0.30149564759999997,2.8785655877999994,24.64,-19.110000000000003,-6.370000000000001,8.222575941509998,0.21427726383000004,2.7806991434599997,6.1530000000000005,-26.613999999999997,-7.703500000000001
3.2661319159999493,8.525626923799999,0.3565305674,3.0771698636,24.150000000000002,-17.71,-4.62,8.243632780389998,0.26356940939,2.7708885708,7.2625,-26.2815,-7.259000000000002
3.2731398849999778,8.4562350684,0.38045879339999994,3.1585258319999996,22.19,-16.520000000000003,-3.5000000000000004,8.260621820849998,0.30005995404,2.7632315384800004,8.176,-25.847500000000004,-6.730500000000001
3.2801818549999098,8.4562350684,0.1459621786,3.2231320422,20.020000000000003,-15.750000000000002,-1.05,8.275098397579997,0.30652057506,2.74971209079,8.988000000000001,-25.326,-6.1075
3.2872558249999884,8.5375910368,0.12442677519999999,3.0652057506,18.970000000000002,-16.03,1.05,8.289814256569999,0.2835494781,2.7395425947399996,9.842,-24.787,-5.4565
3.2942927939999436,8.3844503904,0.47856451999999994,3.1441688964,17.71,-15.400000000000002,1.12,8.296274877589997,0.30723842184,2.7382265423099996,10.808000000000002,-24.171,-4.970000000000001
3.301280764000012,8.243273856999998,0.23688943739999999,3.1680971224,16.66,-14.63,1.12,8.306324732509998,0.31633114772,2.744567522199999,11.837,-23.401,-4.5885
3.3082987340000045,8.2289169214,0.1268195978,3.1250263156,15.47,-14.280000000000001,1.1900000000000002,8.314221047089998,0.31238299043,2.75258347791,12.9115,-22.54,-4.2315000000000005
3.3153087040000173,8.044669581199999,-0.0167497582,3.0891339766,15.260000000000002,-14.280000000000001,2.7300000000000004,8.306444373640002,0.30101708308,2.7677779014200006,13.986,-21.643999999999995,-3.7905
3.3222316739999087,8.25523797,0.2105683888,3.0484559924,11.13,-13.790000000000001,4.0600000000000005,8.30333370426,0.30400811133,2.7918257685500008,14.833000000000002,-20.698999999999998,-3.3354999999999997
3.329227643999957,8.329415470599999,0.3493520996,2.7206392962,13.510000000000002,-11.200000000000001,4.83,8.30177836957,0.3018545709899999,2.8074987565800003,15.704500000000001,-19.666499999999996,-2.8840000000000003
3.3362786129999904,8.4514494232,0.11724830739999999,2.7038895379999994,15.260000000000002,-9.940000000000001,7.700000000000001,8.30596580912,0.28642086522,2.8241288736500003,16.506000000000004,-18.619999999999997,-2.254
3.3433715829999073,8.6237326504,0.035892338999999995,2.8498517165999995,16.450000000000003,-7.7700000000000005,10.780000000000001,8.3222370028,0.2679961312,2.8476981762599998,17.241000000000003,-17.566499999999998,-1.463000000000001
3.350442552000004,8.532805391599998,0.12442677519999999,3.0556344601999994,16.8,-5.53,12.110000000000001,8.3353975271,0.25531417141999996,2.87988164023,17.822,-16.478,-0.5635000000000004
3.357518521999964,8.3964145034,-0.08614161359999999,3.2709884942,15.05,-4.0600000000000005,14.14,8.34532774089,0.23916261887,2.92606311641,18.1405,-15.4,0.4374999999999994
3.364536490999967,8.226524098799999,-0.107677017,3.493520996,11.9,-2.9400000000000004,16.94,8.347122357839998,0.21463618721999994,2.9810980362099997,18.053,-14.293999999999997,1.5925
3.371538461,8.1092757914,-0.23688943739999999,3.5916267225999996,8.05,-3.8500000000000005,21.35,8.346284869929999,0.1842473402,3.0350561858399994,17.5875,-13.321000000000002,2.9819999999999998
3.3786594299999706,7.3531438497999995,-0.2009970984,3.6107693033999997,3.3600000000000003,-6.090000000000001,27.51,8.305008680079997,0.15684952143,3.086142948349999,16.7195,-12.516,4.7285
3.3856843999999455,7.755138046599999,-0.28235306679999994,3.6969109170000003,-2.1,-10.010000000000002,32.690000000000005,8.283832200069998,0.12418749294,3.136751146339999,15.441999999999998,-11.9595,6.779500000000001
3.392700369999943,7.5565337708,-0.48335016519999996,3.4959138185999996,-8.4,-13.580000000000002,39.900000000000006,8.24614524412,0.07872386354000001,3.17336133212,13.803999999999998,-11.6235,9.184000000000001
3.399827339000012,7.4177500599999995,-0.5216353268,3.2398818003999996,-12.530000000000001,-17.990000000000002,44.45,8.1942209937,0.03756731482000001,3.19142714275,11.9455,-11.5675,11.725000000000003
3.4068293089999315,7.384250543599999,-0.6604190375999999,3.0005995404,-16.310000000000002,-21.700000000000003,49.56,8.137152174689998,-0.013280165430000008,3.18759862659,9.922500000000003,-11.767000000000001,14.434000000000001
3.4138702789999797,7.2933232848,-0.7896314579999999,2.7804598611999998,-23.310000000000002,-25.55,55.02,8.07900658551,-0.07178467799999999,3.16869532805,7.647500000000003,-12.218500000000002,17.36
3.4210202479999907,7.334001268999999,-0.7609175867999999,2.4239292938,-28.35,-29.330000000000002,56.49,8.022894895539999,-0.11712866626999999,3.1287351906300005,5.229000000000004,-12.897500000000003,20.237000000000002
3.4281912169999487,7.4129644148,-1.0289137179999999,2.3880369548,-36.68000000000001,-30.380000000000003,56.7,7.966663564439999,-0.17479569093,3.09487675084,2.446500000000003,-13.615000000000004,23.0195
3.4353131859999166,7.654639497399999,-1.1653046061999999,2.1559331626,-40.81,-30.17,55.230000000000004,7.93017301979,-0.25698914723999994,3.0454649641500002,-0.47949999999999876,-14.353500000000006,25.725
3.4423191559999395,7.944171031999999,-1.2370892841999999,1.7180466268,-42.980000000000004,-30.17,54.25000000000001,7.91521787854,-0.33068808331999994,2.9729624393700003,-3.4614999999999996,-15.130500000000001,28.3815
3.4493971250000186,8.2289169214,-1.208375413,1.5816557385999996,-40.040000000000006,-29.120000000000005,52.78000000000001,7.91521787854,-0.39744783385999993,2.8957939105200006,-6.237000000000001,-15.872500000000002,30.961000000000002
3.4565120949999937,8.578269020999999,-1.1916256548,1.399801221,-35.35,-26.6,50.68000000000001,7.941897850529999,-0.4561916286899999,2.8113272727400007,-8.7675,-16.488500000000005,33.35850000000001
3.463509063999936,8.8558364426,-1.6175480775999997,1.4811571894,-28.560000000000002,-24.430000000000003,47.95,7.971927774159999,-0.54759745201,2.73296233259,-10.752,-17.020500000000006,35.55300000000001
3.4706310340000073,9.7555377402,-1.5122638832,1.5337992865999999,-19.6,-22.680000000000003,46.2,8.043233887640001,-0.64067825115,2.6736203321100005,-12.4075,-17.594500000000004,37.621500000000005
3.4776550029999953,9.353543543399999,-1.722832272,1.686939933,-12.530000000000001,-19.810000000000002,44.24,8.08833859365,-0.7326822801199999,2.6227728518599998,-13.797000000000002,-18.088,39.4485
3.4846909729999425,9.647860723199999,-1.9405791285999996,1.9453647737999997,-3.5000000000000004,-18.270000000000003,42.28,8.13954499729,-0.8315058534999998,2.5775485047199997,-14.7945,-18.613000000000003,41.0235
3.4917459429999553,9.789037256599999,-2.0626130812,2.3545374384,1.12,-16.8,40.67,8.202356590540003,-0.9408578463199998,2.54249365363,-15.578500000000002,-19.1765,42.4515
3.4987739119999333,9.803394192199999,-2.8977081685999995,2.4837498588,4.48,-16.94,38.92,8.27270557498,-1.0814361740699998,2.50313172186,-16.107000000000006,-19.820500000000003,43.6905
3.5064948790000017,9.858429112,-2.847458894,2.9072794589999997,1.12,-18.060000000000002,38.85,8.35430082564,-1.2184252679199996,2.4738196450100003,-16.646000000000004,-20.576500000000003,44.78600000000001
3.513619847999962,9.9110712092,-2.6009981662,2.9671000239999996,-3.5700000000000003,-17.01,37.59,8.444390596529999,-1.3366307043599996,2.4425933100800004,-17.227,-21.234500000000004,45.598
3.520744817999912,9.8010013696,-2.5052852621999997,3.1154550251999997,-11.06,-16.03,35.14,8.566783472519997,-1.4518451125499998,2.4178275961700004,-17.948,-21.731500000000004,45.9795
3.5277597869999227,9.9014999188,-2.7206392962,2.9455646205999995,-16.1,-16.1,33.67,8.674101566129998,-1.57375942402,2.38026028135,-18.648000000000003,-22.036,46.02850000000001
3.534760756999958,9.887142983199999,-2.285145583,2.8809584104000003,-19.180000000000003,-15.96,30.730000000000004,8.790632026749998,-1.66384919491,2.3495125109400004,-19.187000000000005,-22.154999999999998,45.57000000000001
3.541798727000014,9.9708917742,-2.2037896146,2.8043880872,-19.740000000000002,-14.280000000000001,27.790000000000003,8.918289112459998,-1.7479569092999998,2.3277378252800003,-19.547500000000007,-21.9695,44.737
3.548912696000002,10.028319516599998,-2.2612173569999996,2.8091737324,-19.180000000000003,-12.32,25.69,9.050492561109998,-1.8279968252699998,2.3181665348800005,-19.691000000000003,-21.500500000000002,43.543499999999995
3.556007665999914,10.078568791199999,-2.3856441322,2.7852455064000003,-17.85,-10.99,25.130000000000003,9.189754836429998,-1.90779745898,2.3184058171400004,-19.418,-20.772500000000004,42.049
3.5630116349999525,10.260423308799998,-2.5244278430000002,2.7541388125999995,-16.380000000000003,-8.75,25.76,9.336075938419999,-1.9959729717899997,2.33491629308,-18.819500000000005,-19.743500000000004,40.5125
3.5702026039999737,10.2245309698,-2.7613172804,2.87138712,-13.510000000000002,-6.44,28.840000000000003,9.476654266169998,-2.0825931499099997,2.3590838013399997,-17.661,-18.5465,39.1195
3.577243573999908,10.1312108884,-2.7924239741999997,3.6610185779999997,-13.440000000000001,-4.550000000000001,29.610000000000003,9.600482835720001,-2.1639491183099997,2.4343380721099996,-16.2925,-17.2655,37.8385
3.584421542999962,9.7842516114,-2.7038895379999994,3.2350961551999995,-15.400000000000002,-3.6400000000000006,28.000000000000004,9.69248686469,-2.237289131,2.5101905485299993,-14.913499999999999,-15.939000000000002,36.526
3.5913165129999243,9.5330052384,-2.8067809097999996,3.3355947043999996,-19.250000000000004,-3.8500000000000005,23.730000000000004,9.757691280540001,-2.3172094058399995,2.5978874968199994,-13.873999999999999,-14.675500000000003,35.07350000000001
3.5983984829999827,9.3511507208,-2.9336005076,3.3547372851999993,-22.26,-5.250000000000001,20.3,9.79633536553,-2.4043081484799993,2.69563430003,-13.219500000000002,-13.608,33.554500000000004
3.6054754519999506,9.3152583818,-2.4550359876,3.2757741393999997,-25.130000000000003,-6.65,17.080000000000002,9.819306462489998,-2.4461825439799996,2.78536514753,-13.047999999999998,-12.719000000000003,32.011
3.6124494219999406,9.3296153174,-3.0173492985999992,3.6705898684,-29.330000000000002,-7.07,14.910000000000002,9.798010341349997,-2.5214368147499995,2.8922046766199996,-13.5345,-11.938500000000001,30.446500000000004
3.6194723919999205,9.480363141199998,-3.098705267,2.7134608283999992,-30.520000000000003,-6.930000000000001,14.070000000000002,9.80435132124,-2.5902304644999994,2.94353072139,-14.433999999999997,-11.294500000000003,28.938000000000006
3.6266633609999417,9.473184673399999,-2.3784656643999997,2.8426732488,-30.450000000000003,-4.62,9.030000000000001,9.79561751875,-2.6121247912899994,2.98839614514,-15.7815,-10.612,27.275500000000005
3.6336393309999266,9.535398060999999,-2.5268206656,2.596212521,-29.050000000000004,17.5,4.48,9.78293555897,-2.6353351705099994,3.00047989927,-17.29,-8.897000000000002,25.466
3.6407332999999653,9.607182738999999,-2.4454646972,2.6608187311999996,-25.900000000000002,3.5000000000000004,1.12,9.773124986309998,-2.6127229969399997,3.0093333428899998,-18.808999999999997,-7.875,23.576000000000004
3.648206267999967,9.676574594399998,-2.3353948576,2.5986053435999996,-20.930000000000003,6.930000000000001,-1.12,9.764032260429998,-2.5871197951199996,2.99389963712,-19.911499999999997,-6.625500000000001,21.577500000000004
3.655222237999965,9.810572659999998,-2.069791549,2.6871397797999994,-15.330000000000002,9.8,-3.6400000000000006,9.759007332969997,-2.56055946426,2.97990162491,-20.499499999999998,-5.285,19.516000000000002
3.6621762080000053,9.961320483799998,-1.746760498,2.6895326023999995,-7.420000000000001,9.38,-6.510000000000001,9.767023288679997,-2.52263322605,2.95860550377,-20.317500000000003,-4.0145,17.433500000000002
3.669193177000011,10.1359965336,-1.7826528369999999,2.8642086522,-3.2900000000000005,8.260000000000002,-7.07,9.778748119419998,-2.47573390309,2.95453770535,-19.677,-2.7965000000000004,15.396500000000007
3.6762001469999177,10.2245309698,-1.9118652573999997,3.0029923629999997,0.14,6.86,-6.16,9.795617518749998,-2.4570698868100003,2.960639402979999,-18.711000000000006,-1.6555,13.552000000000003
3.6831911169999785,10.2149596794,-1.8855442087999998,3.2111679291999993,0.7000000000000001,5.6000000000000005,-5.460000000000001,9.80782091401,-2.44115761652,2.9809783950799997,-17.689000000000004,-0.6614999999999996,11.889500000000007
3.6902420870000014,10.2508520184,-2.0123638066,3.2470602682,-2.5900000000000003,4.69,-5.670000000000001,9.8189475391,-2.4287149390000002,3.0028727218699993,-16.859500000000004,0.18899999999999967,10.321500000000002
3.697316055999977,10.1886386308,-2.1152551784,3.1657042998,-6.16,2.87,-6.580000000000001,9.824451031079999,-2.41519549131,3.0218956615399994,-16.275000000000002,0.8820000000000002,8.736
3.7045410249999122,10.217352501999999,-2.3353948576,3.1968109935999998,-14.21,1.4700000000000002,-6.090000000000001,9.822297490740002,-2.40574384204,3.04402927059,-16.166500000000003,1.3930000000000002,7.143500000000001
3.7115499949999275,10.2269237924,-3.0604201053999995,3.0245277664,-20.650000000000002,2.5200000000000005,-5.11,9.82241713187,-2.4206989832899994,3.0516863029099994,-16.523500000000002,1.8410000000000004,5.446
3.718694963999951,10.363314680599997,-2.2923240507999996,2.8546373617999996,-29.26,4.41,-3.3600000000000003,9.834022321479999,-2.3956939871199996,3.0113672420999995,-17.314500000000002,2.289,3.7974999999999994
3.7256929339999942,10.5212409722,-2.3401805028,2.4430718745999997,-32.690000000000005,7.98,-2.1,9.870871789519997,-2.3775085353599996,2.97176602807,-18.179,2.87,2.2924999999999995
3.732708903999992,10.4063854874,-1.9956140484,2.1176480009999996,-32.900000000000006,11.200000000000001,-1.4000000000000001,9.914540801969997,-2.33695019229,2.9108686929000003,-18.8615,3.6225,1.0360000000000003
3.7397588729999143,11.014162427799999,-1.6965112234,1.9118652573999997,-31.150000000000002,12.88,-2.1,9.997691387319996,-2.27509572808,2.83872509151,-19.306,4.529,-0.08399999999999966
3.746787842999993,10.466206052399999,-1.6366906583999998,1.7826528369999999,-27.090000000000003,14.280000000000001,-3.9200000000000004,10.055238770849996,-2.23417846162,2.76406902639,-19.404000000000003,5.5755,-1.134
3.7538318119999303,9.511469835,-1.3328021881999996,1.6199409001999998,-20.3,15.190000000000001,-33.11000000000001,10.064331496729997,-2.1499511060999996,2.66153657798,-18.952500000000008,6.6885,-3.535000000000001
3.760950782000009,10.461420407199999,-1.6031911419999998,1.5361921092,-15.540000000000001,14.700000000000001,-23.94,10.113384360029999,-2.07517539985,2.60267314202,-18.203500000000002,7.7700000000000005,-5.4355
3.767976750999992,10.834700732799998,-0.9044869427999999,1.5146567058,-8.33,17.85,-20.090000000000003,10.181460162999999,-2.0014764637699995,2.53627231487,-17.0975,8.8935,-6.891500000000001
3.774997720999977,10.9136638786,-0.5694917787999999,1.8759729183999998,-1.4700000000000002,20.090000000000003,-20.860000000000003,10.250373453879998,-1.9036100194299994,2.5002603347400005,-15.718500000000002,9.023,-8.1585
3.7820416910000176,10.2317094376,-1.8209379985999998,1.8711872732,-4.340000000000001,25.69,-16.73,10.281599788809997,-1.8723836844999997,2.46077876184,-14.640500000000003,10.1325,-9.051
3.789777656999945,10.0163554036,-2.1487546948,1.9645073545999996,-1.05,30.380000000000003,-10.920000000000002,10.298588829269997,-1.8630516763599996,2.42907386239,-13.646500000000003,11.305,-9.541
3.796854627000016,9.597611448599999,-1.8305092889999999,2.2564317118,-3.22,32.13,-11.410000000000002,10.2879407687,-1.8510875633599995,2.40753845899,-13.041000000000002,12.4215,-9.9295
3.803849596999953,9.33200814,-2.2085752598,2.416750826,-6.930000000000001,30.870000000000005,-13.160000000000002,10.25647515151,-1.8741783014499993,2.3938993701699998,-13.016500000000002,13.496,-10.262
3.8109665659999337,8.915657007599998,-2.3138594542,2.5866412305999997,-11.270000000000001,29.890000000000004,-16.1,10.195458175209998,-1.90073863231,2.3800209990899996,-13.4155,14.5775,-10.7135
3.8180735349999395,8.437092487599998,-2.3066809864,2.476571391,-14.280000000000001,29.610000000000003,-20.580000000000002,10.106086251099999,-1.9204794187599994,2.35369995049,-14.136500000000002,15.715,-11.4345
3.8251185049999776,8.262416437799999,-2.3018953412000003,2.4143580034,-18.76,28.35,-24.71,10.008459089019997,-1.9412969753800002,2.3138594541999997,-15.109500000000002,16.852500000000003,-12.397000000000002
3.8321514749999324,7.850850950599999,-2.1631116304,2.1511475173999997,-22.19,26.53,-27.300000000000004,9.888459035629998,-1.94883436657,2.2590638166599994,-16.0895,17.944500000000005,-13.4785
3.8391304449999097,7.654639497399999,-1.7874384822,1.9716858223999998,-21.21,23.1,-30.870000000000005,9.76175907896,-1.9324435317600002,2.19936289279,-16.842000000000002,18.956000000000007,-14.693000000000001
3.846180413999946,7.575676351599999,-1.5912270289999997,1.7108681589999999,-18.200000000000003,20.51,-34.09,9.629675271440002,-1.8952351403300003,2.1250657510599997,-17.0415,19.908000000000005,-16.093
3.853191383999956,7.525427076999999,-1.3902299305999999,1.4979069475999998,-13.72,18.69,-35.0,9.494600435670002,-1.81172563159,2.0487347101199997,-16.695000000000004,20.716500000000003,-17.587500000000006
3.860191353999994,7.4392854634,-1.1533404932,1.4691930763999999,-10.360000000000001,18.060000000000002,-35.56,9.348398974810001,-1.7547764537099997,1.9794624958500002,-15.750000000000004,21.399,-19.197500000000005
3.867272322999952,7.463213689399999,-0.8183453291999999,1.4141581565999999,-8.75,17.430000000000003,-33.74,9.19549761067,-1.6786846950299998,1.9280168099500006,-14.553000000000006,21.8715,-20.779500000000006
3.8743732929999624,7.432106995599999,-0.6005984726,1.2251251712,-9.38,16.310000000000002,-31.430000000000003,9.046783686080001,-1.6089339162399998,1.8833906684600001,-13.377000000000004,22.127000000000002,-22.281000000000006
3.8815172619999885,7.3172515107999985,-0.6197410534,1.2035897677999998,-8.610000000000001,15.47,-27.020000000000003,8.861938140229999,-1.5550954077399999,1.8479768939800003,-12.250000000000002,22.256500000000006,-23.527000000000005
3.888567230999911,7.3220371559999995,-0.5575276658,1.0217352502,-5.74,15.260000000000002,-21.840000000000003,8.704729695409998,-1.5011372581099998,1.8099310146399996,-11.182500000000003,22.305500000000006,-24.42300000000001
3.895580200999916,6.941578362599999,-0.40917266459999996,1.2490533971999997,-5.390000000000001,13.440000000000001,-17.92,8.57623512179,-1.4549557819299999,1.7913866394899998,-10.437000000000003,22.218000000000004,-23.663500000000003
3.902707169999985,6.592226263,-0.5623133109999999,1.5337992865999999,-10.430000000000001,11.06,-13.790000000000001,8.38277541458,-1.40291189038,1.79126699836,-10.181500000000003,22.036000000000005,-23.156000000000006
3.909758140000008,6.453442552199999,-0.5694917787999999,1.5242279962,-15.190000000000001,9.38,-10.500000000000002,8.163712505549999,-1.38616213218,1.7917455628799996,-10.524500000000003,21.612500000000004,-22.676500000000004
3.916806109999925,6.4199430357999985,-0.2009970984,1.3710873497999998,-19.880000000000003,8.190000000000001,-6.370000000000001,7.939026463409998,-1.3677373981599998,1.7665012844499999,-11.445000000000002,21.017500000000005,-21.952000000000005
3.923899078999966,6.470192310399999,-0.0502492746,1.2011969452,-26.46,5.95,-3.99,7.750950607049998,-1.2792029619599998,1.7330017680499998,-12.551000000000004,20.0305,-21.315000000000005
3.931147047999957,6.5539411013999995,-0.035892338999999995,0.9164510557999999,-27.860000000000003,2.5900000000000003,17.360000000000003,7.577829891939997,-1.17355984417,1.6805989531100003,-13.891500000000002,18.641,-19.901000000000003
3.9382570169999553,6.6783678766,-0.057427742399999995,0.7561319416,-25.480000000000004,0.7000000000000001,4.2,7.431867713339997,-1.08490576684,1.6055839645999999,-15.004500000000002,17.069499999999998,-19.1205
3.9452679869999656,6.831508523,-0.08135596839999999,0.7345965381999999,-22.26,-1.2600000000000002,9.520000000000001,7.306842732489997,-0.9785448022699998,1.5214762502099997,-15.771,15.463,-17.986500000000003
3.9522889569999506,7.0660051378,-0.33738798659999997,0.7609175867999999,-20.160000000000004,-2.31,16.380000000000003,7.214360138999998,-0.8797212288899999,1.4301900680199997,-16.215500000000002,13.852999999999998,-16.362500000000004
3.9593509259999564,7.058826669999999,-0.45702911659999995,1.0049854919999999,-17.57,-3.08,21.35,7.14544684812,-0.7872386353999999,1.35661077307,-16.380000000000003,12.218499999999999,-14.266000000000005
3.9663898960000097,6.927221427,-0.7800601676,1.2610175101999996,-16.17,-3.08,24.150000000000002,7.07868709758,-0.71114687672,1.2989437484099997,-16.250500000000002,10.646999999999997,-11.823000000000004
3.973391865999929,6.886543442799999,-0.6053841178,1.5481562222,-15.47,-3.5000000000000004,25.480000000000004,7.030471722189999,-0.63326050109,1.2687941836499999,-15.914500000000004,9.145499999999998,-9.184000000000003
3.980526834999978,7.223931429399999,-0.7824529901999999,1.6271193679999998,-15.05,-3.6400000000000006,25.900000000000002,7.008936318790001,-0.5830112264899999,1.2515658609299996,-15.606500000000006,7.808499999999998,-6.345500000000003
3.9876138039999205,7.520641431799999,-0.8183453291999999,1.7659030788,-14.350000000000001,-4.83,27.160000000000004,7.0061845728,-0.5443671414999999,1.25431760692,-15.414000000000005,6.541499999999997,-3.2830000000000013
3.9947607739999285,8.0015987744,-0.9140582331999999,1.8951154991999999,-16.8,-6.090000000000001,30.1,7.029993157670001,-0.52055855663,1.2741780344999998,-15.568000000000003,5.3025,-0.028000000000001534
4.001805742999977,8.662017811999998,-1.0289137179999999,1.7826528369999999,-19.810000000000002,-8.540000000000001,32.06,7.091129775100001,-0.5143372178699999,1.2898510225299997,-16.0405,3.9725,3.3530000000000015
4.008846712999912,9.102297170399998,-1.0097711372,1.6677973521999998,-22.89,-10.920000000000002,31.500000000000004,7.17308394915,-0.52390850827,1.30253298231,-16.7475,2.555,6.615
4.016018681999981,10.2963156478,-1.0743773474,1.4644074312000002,-22.19,-13.160000000000002,28.210000000000004,7.31629438176,-0.5475974520099999,1.31449709531,-17.387999999999998,1.0814999999999997,9.597000000000001
4.023033651999981,10.456634761999998,-1.1868400096,1.2394821068,-20.720000000000002,-14.14,25.900000000000002,7.473263544320001,-0.5759523998199999,1.31629171226,-17.9935,-0.3989999999999994,12.243
4.030234620999977,11.076375815399999,-1.2251251712,1.0791629926,-15.120000000000001,-12.740000000000002,22.820000000000004,7.660980477289999,-0.60933227509,1.31916309938,-18.4625,-1.7989999999999995,14.476000000000003
4.037367589999917,11.9306134836,-1.2538390423999999,1.1222337993999998,-8.96,-8.120000000000001,18.200000000000003,7.910432233339999,-0.6515655939799999,1.31282211949,-18.641,-2.877,16.282
4.044441559000006,12.813565022999999,-1.3471591237999998,1.2586246875999998,5.180000000000001,-1.2600000000000002,7.7700000000000005,8.22149917134,-0.6908078846199999,1.2990633895400001,-17.860500000000002,-3.4930000000000008,17.359999999999996
4.0515205289999585,13.619946239199997,-1.5409777543999998,1.4835500119999998,20.160000000000004,7.140000000000001,0.8400000000000001,8.57982435569,-0.7393821833999998,1.2970294903300001,-16.093,-3.6050000000000013,17.926999999999996
4.058579497999972,13.993226564799999,-2.416750826,2.2636101795999997,52.78000000000001,13.790000000000001,-5.180000000000001,8.958488532139999,-0.85016986978,1.3416556318200001,-12.46,-3.3250000000000006,17.986499999999996
4.066226465,14.280365276799998,-2.2995025185999998,3.1322047833999997,45.50000000000001,20.020000000000003,-14.070000000000002,9.34899718046,-0.9626325319800001,1.4382060237299998,-8.861999999999998,-2.6215,17.482499999999995
4.07315943499998,14.452648503999999,-2.6105694566,3.5964123677999993,47.18000000000001,21.07,-20.160000000000004,9.74393255059,-1.0913663878600002,1.57220408933,-5.109999999999997,-1.6975000000000002,15.606499999999993
4.0804054039999755,14.531611649799999,-2.7421746995999996,4.017549145399999,42.49,19.46,-26.880000000000003,10.13659473925,-1.22560373572,1.7352749495199997,-1.7115000000000014,-0.759500000000001,14.052499999999995
4.087577372999931,14.7182518126,-3.5940195451999997,4.1228333398,34.160000000000004,15.610000000000001,-29.26,10.530931903729998,-1.4012369145599999,1.9046867895999995,1.1095000000000013,0.08400000000000007,12.113499999999997
4.094662342999982,14.7924293132,-3.2829526071999995,3.9577285803999995,20.51,11.200000000000001,-29.820000000000004,10.917253112499997,-1.54851514559,2.06452733928,3.143,0.7594999999999988,9.803499999999996
4.101681311999982,14.866606813799997,-3.5006994637999993,3.5629128513999997,10.15,7.700000000000001,-28.140000000000004,11.307642119689998,-1.7006986629499994,2.1924237072499997,4.529,1.2984999999999995,7.328999999999998
4.108739281999988,14.727823102999999,-3.7734812401999998,3.1992038162,-17.01,7.420000000000001,-26.390000000000004,11.697672203489997,-1.8503697165799995,2.2893330225499997,4.487,1.8235000000000003,4.802000000000001
4.115774251999937,14.423934632799998,-4.295116567,2.9455646205999995,-6.580000000000001,9.940000000000001,-24.01,12.074541762989998,-2.0348563390399996,2.35920344247,4.931500000000001,2.4955,2.327500000000002
4.122776220999981,13.9166562416,-4.625326085799999,2.4789642136,-4.83,15.330000000000002,-28.28,12.409178003599997,-2.22699999382,2.4017956847499997,5.442500000000001,3.443999999999999,-0.3814999999999996
4.129878190999989,13.414163495599999,-4.6133619728,2.5411776011999994,4.41,20.44,-38.36000000000001,12.703854106789997,-2.416750826,2.4405594108699997,6.3805,4.7075,-3.657499999999999
4.136905160999959,12.6317105054,-4.8526442327999995,3.046063169799999,16.17,24.500000000000004,-47.74,12.935359693339995,-2.6136801259799993,2.4981067943999995,8.029,6.237,-7.5495
4.143893129999924,11.590832674399998,-5.1397829447999985,2.667997199,30.660000000000004,26.46,-56.49,13.081800436459996,-2.8192235873199993,2.5423740125,10.552499999999998,7.987,-11.977
4.1510200999999824,10.923235168999998,-4.797609313,2.9814569596,49.21000000000001,26.110000000000003,-67.76,13.172847336389998,-3.008615496109999,2.60805699287,14.157499999999999,9.8385,-16.940000000000005
4.158046068999965,10.420742422999998,-4.5726839886,3.5078779316,60.2,25.130000000000003,-73.64,13.179068675149997,-3.18353082817,2.7102305178899995,18.277,11.753000000000002,-22.0325
4.165131039000016,10.064211855599998,-4.144368743199999,3.8141592244,65.73,22.820000000000004,-76.44000000000001,13.15944752983,-3.3314072648499993,2.8389643737699997,22.599500000000003,13.601000000000003,-27.1495
4.172058009000011,9.753144917599998,-3.4073793824000003,4.1587256788,67.41000000000001,20.020000000000003,-77.63000000000001,13.093285984940001,-3.440519975409999,2.99294250808,26.726000000000006,15.239,-32.172000000000004
4.1790599789999305,9.107082815599998,-2.9048866364,4.2759739861999995,66.08000000000001,14.490000000000002,-77.56,12.952109451540002,-3.523072355109999,3.1506295174199996,30.478,16.369500000000002,-36.96
4.186153947999969,8.604590069599999,-2.3784656643999997,4.242474469799999,63.7,8.680000000000001,-75.39,12.74166070387,-3.574637682139999,3.2998220065299995,33.40400000000001,16.866500000000002,-41.118
