time,aX,aY,aZ,gX,gY,gZ,faX,faY,faZ,fgX,fgY,fgZ
0.1347145809999688,-0.3900300838,-0.24406790519999996,9.7555377402,-0.49000000000000005,-1.8200000000000003,-2.31,-0.6208178235699999,-0.18711872731999996,10.014680427779997,12.481000000000002,5.3865,1.0884999999999994
0.14195261300000084,-0.38045879339999994,-0.2536391956,9.7196454012,-0.21000000000000002,-2.1,-2.1700000000000004,-0.5468796052299999,-0.20709879602999998,10.01061262936,16.457000000000004,3.0905000000000014,0.7244999999999997
0.14902364299996407,-0.38763726119999997,-0.24406790519999996,9.7435736272,-0.6300000000000001,-1.8900000000000001,-2.45,-0.39086757171000003,-0.24993032056999992,9.776833861339998,10.839500000000001,0.9414999999999999,-1.19
0.1561156739999774,-0.38045879339999994,-0.23928225999999997,9.7555377402,-0.35000000000000003,-2.0300000000000002,-2.5900000000000003,-0.39026936606,-0.24873390926999991,9.745368244149999,3.8115000000000014,-0.7210000000000001,-1.7255000000000003
0.16317670399996587,-0.40438701939999994,-0.22013967919999997,9.7340023368,-0.6300000000000001,-1.9600000000000002,-2.31,-0.39122649509999996,-0.24693929231999995,9.74177901025,1.574999999999999,-1.4735000000000003,-2.121000000000001
0.17021773499999426,-0.38285161599999995,-0.2608176634,9.7603233854,-0.07,-1.8900000000000001,-2.45,-0.39182470075,-0.24658036892999996,9.770133958059999,0.09449999999999996,-1.8865000000000005,-2.285500000000001
0.17730576499997142,-0.38045879339999994,-0.23928225999999997,9.7340023368,-0.8400000000000001,-1.8200000000000003,-2.5900000000000003,-0.39026936605999996,-0.24681965118999996,9.738787981999998,-0.29050000000000004,-1.9320000000000004,-2.3590000000000013
0.18447979600000508,-0.39481572899999995,-0.23928225999999997,9.7435736272,-0.42000000000000004,-1.8200000000000003,-2.45,-0.38991044266999997,-0.24634108666999993,9.738429058609999,-0.3815,-1.9390000000000005,-2.3800000000000012
0.1915978270000096,-0.3900300838,-0.24167508259999998,9.710074110799999,-0.49000000000000005,-2.0300000000000002,-2.24,-0.39086757171,-0.24670001005999995,9.735796953749999,-0.441,-1.9495000000000005,-2.3625000000000016
0.19876285800000915,-0.38045879339999994,-0.23928225999999997,9.705288465599999,-0.56,-1.6800000000000002,-2.5900000000000003,-0.39194434187999994,-0.24693929232,9.733643413409999,-0.46900000000000003,-1.9355000000000004,-2.373000000000001
0.20585088899997572,-0.38045879339999994,-0.24646072779999997,9.705288465599999,-0.49000000000000005,-1.8900000000000001,-2.31,-0.39098721284,-0.24622144553999994,9.728977409339999,-0.4760000000000001,-1.9425000000000003,-2.355500000000001
0.21294991899998195,-0.38285161599999995,-0.24646072779999997,9.738787982,-0.35000000000000003,-1.6800000000000002,-2.5900000000000003,-0.39026936605999996,-0.24550359875999997,9.728857768209998,-0.4655,-1.9390000000000005,-2.3660000000000005
0.22004294999999274,-0.41156548719999997,-0.24406790519999996,9.7555377402,-0.56,-1.6800000000000002,-2.5900000000000003,-0.39098721284,-0.24502503423999994,9.73184879646,-0.4795,-1.9250000000000003,-2.380000000000001
0.22704998000000387,-0.39242290639999994,-0.2560320182,9.6957171752,-0.14,-1.7500000000000002,-2.1,-0.38991044267,-0.24610180440999999,9.730173820640001,-0.4655,-1.9040000000000004,-2.3660000000000005
0.23409301099997037,-0.39960137419999997,-0.2775674216,9.748359272399998,-0.77,-2.1,-2.24,-0.39158541848999995,-0.24741785683999992,9.72993453838,-0.483,-1.9005000000000003,-2.3660000000000005
0.24109904099998403,-0.39481572899999995,-0.24885355039999998,9.7363951594,-0.6300000000000001,-1.9600000000000002,-2.45,-0.39134613623000003,-0.24777678022999994,9.732327360979998,-0.47250000000000014,-1.8970000000000002,-2.3625000000000007
0.2481380709999712,-0.3780659708,-0.2775674216,9.7340023368,-0.77,-1.8200000000000003,-2.45,-0.38955151928,-0.24837498587999995,9.732447002109998,-0.5005000000000001,-1.9005000000000005,-2.376500000000001
0.25535510200001,-0.40917266459999996,-0.2679961312,9.748359272399998,-0.56,-1.7500000000000002,-2.5200000000000005,-0.39038900718999997,-0.25016960283,9.732925566629998,-0.5215000000000002,-1.8970000000000002,-2.397500000000001
0.26249213299996654,-0.3780659708,-0.24406790519999996,9.750752095,-0.7000000000000001,-2.1,-2.24,-0.39074793057999996,-0.25064816734999995,9.733045207759998,-0.5250000000000001,-1.8900000000000001,-2.4045000000000005
0.26961516399995844,-0.40917266459999996,-0.24406790519999996,9.7459664498,-0.42000000000000004,-2.0300000000000002,-2.5200000000000005,-0.39038900718999997,-0.24873390926999997,9.736036236009998,-0.5040000000000001,-1.8900000000000006,-2.408000000000001
0.2766391939999835,-0.3780659708,-0.26321048599999997,9.774680320999998,0.0,-2.0300000000000002,-2.5900000000000003,-0.3897908015399999,-0.24969103831,9.73699336505,-0.4795000000000001,-1.9005000000000003,-2.422000000000001
0.28367522499996767,-0.38763726119999997,-0.24167508259999998,9.731609514199999,-0.42000000000000004,-1.6800000000000002,-2.45,-0.39014972493,-0.24909283265999999,9.7375915707,-0.49000000000000005,-1.8795000000000002,-2.436000000000001
0.2908852559999673,-0.39242290639999994,-0.2536391956,9.7196454012,-0.56,-1.7500000000000002,-2.31,-0.39038900718999997,-0.24957139718,9.7363951594,-0.4865000000000001,-1.8725,-2.429000000000001
0.29785528599995814,-0.39720855159999996,-0.2703889538,10.370493148399998,-0.21000000000000002,-1.8200000000000003,-2.45,-0.39122649509999996,-0.25112673187,9.76714292981,-0.47950000000000015,-1.8620000000000005,-2.422000000000001
0.3050953169999957,-0.38285161599999995,-0.23210379219999996,9.731609514199999,-0.56,-2.0300000000000002,-2.5200000000000005,-0.39014972492999994,-0.25172493752,9.767023288679997,-0.47600000000000015,-1.8655000000000004,-2.432500000000001
0.3121693479999976,-0.4019941968,-0.23449661479999998,9.714859756,-0.7000000000000001,-1.61,-2.3800000000000003,-0.3911068539699999,-0.25040888509000003,9.764750107209998,-0.5075000000000002,-1.8515000000000004,-2.429000000000001
0.31908537800001113,-0.38285161599999995,-0.24646072779999997,9.7603233854,-0.56,-1.8200000000000003,-2.31,-0.3912264950999999,-0.25076780848,9.766066159639998,-0.49350000000000005,-1.8515000000000001,-2.4150000000000005
0.3261324079999781,-0.39242290639999994,-0.2225325018,9.726823868999999,-0.28,-2.1700000000000004,-2.24,-0.39110685396999995,-0.24993032057,9.765228671729997,-0.48649999999999993,-1.8690000000000004,-2.404500000000001
0.3331894389999661,-0.3900300838,-0.23928225999999997,9.729216691599998,-0.7000000000000001,-1.9600000000000002,-2.1,-0.39110685396999995,-0.24981067944,9.766185800769998,-0.4969999999999999,-1.8655000000000004,-2.3975000000000004
0.34016146900000876,-0.3780659708,-0.25124637299999997,9.777073143599997,-0.6300000000000001,-2.1700000000000004,-2.45,-0.39098721283999993,-0.2504088850899999,9.769775034669998,-0.5005,-1.8900000000000001,-2.3905000000000007
0.3472354989999644,-0.3756731482,-0.2608176634,9.741180804599999,-0.56,-2.1700000000000004,-2.5900000000000003,-0.39074793057999996,-0.25112673187,9.771569651619998,-0.504,-1.9040000000000004,-2.4045000000000005
0.3542805299999827,-0.37328032559999996,-0.2608176634,9.7555377402,-0.42000000000000004,-1.8200000000000003,-2.24,-0.39026936605999996,-0.25184457865,9.77240713953,-0.5075000000000001,-1.9110000000000003,-2.387000000000001
0.361281560000009,-0.41635113239999993,-0.24885355039999998,9.767501853199999,-0.49000000000000005,-2.0300000000000002,-2.24,-0.39050864831999993,-0.25208386090999996,9.773005345179998,-0.5040000000000001,-1.9285000000000003,-2.369500000000001
0.3683305899999709,-0.39960137419999997,-0.2536391956,9.750752095,-0.14,-1.7500000000000002,-2.1,-0.39086757171,-0.25196421977999994,9.775757091169998,-0.5040000000000001,-1.9285000000000003,-2.3695000000000004
0.3754276209999716,-0.38285161599999995,-0.23928225999999997,9.7459664498,-0.77,-1.7500000000000002,-2.31,-0.3900300838,-0.25004996169999993,9.775637450039998,-0.504,-1.9110000000000007,-2.373
0.38251765199999,-0.3613162126,-0.2536391956,9.7818587888,-0.7000000000000001,-1.9600000000000002,-2.31,-0.38835510798,-0.2502892439599999,9.77791063151,-0.5075000000000001,-1.9110000000000003,-2.3660000000000005
0.389564681999957,-0.39242290639999994,-0.24885355039999998,9.7459664498,-0.77,-1.6800000000000002,-2.1700000000000004,-0.3890729547599999,-0.24885355039999996,9.778508837159999,-0.5075,-1.9040000000000006,-2.3520000000000008
0.3970797149999612,-0.3780659708,-0.22731814699999997,9.7340023368,-0.42000000000000004,-1.7500000000000002,-2.1700000000000004,-0.38751762006999996,-0.24681965118999996,9.777790990379998,-0.5005,-1.9040000000000006,-2.3345000000000007
0.404343745999995,-0.38763726119999997,-0.2536391956,9.7842516114,-0.28,-2.0300000000000002,-2.1700000000000004,-0.38799618458999996,-0.24729821570999996,9.779465966199998,-0.4794999999999999,-1.9005000000000003,-2.3310000000000004
0.41142377599999236,-0.37328032559999996,-0.24406790519999996,9.8057870148,-0.56,-2.3800000000000003,-2.45,-0.38620156763999997,-0.24729821570999996,9.782456994449998,-0.48650000000000004,-1.9180000000000006,-2.327500000000001
0.4185638069999982,-0.3900300838,-0.23928225999999997,9.7555377402,-0.35000000000000003,-1.9600000000000002,-2.3800000000000003,-0.38679977329,-0.24610180440999993,9.781499865409998,-0.504,-1.9145000000000003,-2.317000000000001
0.4255978379999874,-0.38524443859999996,-0.2536391956,9.7196454012,-0.56,-2.0300000000000002,-2.31,-0.38668013215999997,-0.24670001006,9.78090165976,-0.511,-1.9320000000000004,-2.310000000000001
0.4326108679999834,-0.39720855159999996,-0.23928225999999997,9.7363951594,-0.7000000000000001,-1.7500000000000002,-2.1700000000000004,-0.38691941442,-0.24598216327999997,9.781739147669999,-0.518,-1.9320000000000004,-2.303000000000001
0.43971689899996136,-0.39242290639999994,-0.23928225999999997,9.757930562799999,-0.42000000000000004,-1.8900000000000001,-2.45,-0.38668013216,-0.24442682858999998,9.751111018389999,-0.5285,-1.9355,-2.303000000000001
0.4466979289999813,-0.37088750299999995,-0.24167508259999998,9.757930562799999,-0.6300000000000001,-2.0300000000000002,-2.5200000000000005,-0.38608192651,-0.24490539310999995,9.752427070819998,-0.532,-1.9355000000000004,-2.3030000000000013
0.45374795899999754,-0.3756731482,-0.2608176634,9.786644434,-0.35000000000000003,-1.7500000000000002,-2.31,-0.38476587408,-0.24622144553999997,9.756016304719997,-0.5145000000000001,-1.9425000000000003,-2.299500000000001
0.4608589899999629,-0.39481572899999995,-0.2560320182,9.757930562799999,-0.07,-1.6800000000000002,-2.1700000000000004,-0.38536407973,-0.24670001005999995,9.755896663589999,-0.49000000000000005,-1.9355,-2.292500000000001
0.46789501999995764,-0.40677984199999995,-0.23210379219999996,9.7842516114,-0.77,-1.8900000000000001,-2.3800000000000003,-0.38608192650999995,-0.24717857458,9.75876805071,-0.5145,-1.9215000000000004,-2.299500000000001
0.4750170510000089,-0.4139583098,-0.28235306679999994,9.7603233854,-0.35000000000000003,-2.1700000000000004,-2.3800000000000003,-0.38727833781,-0.24933211492,9.7603233854,-0.497,-1.9320000000000004,-2.313500000000001
0.4820600819999754,-0.35413774480000004,-0.2584248408,9.798608546999999,-0.42000000000000004,-1.8200000000000003,-2.24,-0.38608192651,-0.24969103831,9.76140015557,-0.48650000000000004,-1.9145000000000003,-2.303000000000001
0.48911011199999166,-0.37088750299999995,-0.24885355039999998,9.7794659662,-0.6300000000000001,-1.9600000000000002,-2.31,-0.3858426442499999,-0.24909283265999999,9.76331441365,-0.49000000000000005,-1.9040000000000004,-2.2890000000000006
0.49617214299996704,-0.38045879339999994,-0.24646072779999997,9.7651090306,-0.77,-1.8900000000000001,-2.3800000000000003,-0.38620156763999997,-0.24837498587999995,9.763792978169999,-0.5075000000000001,-1.9075000000000002,-2.2960000000000007
0.5032211729999858,-0.37088750299999995,-0.2560320182,9.750752095,-0.9100000000000001,-1.6800000000000002,-2.24,-0.3839283861699999,-0.24873390926999991,9.76295549026,-0.5285,-1.8900000000000006,-2.2960000000000003
0.5102362029999767,-0.39481572899999995,-0.24646072779999997,9.7651090306,0.07,-1.6800000000000002,-2.24,-0.38368910390999994,-0.24837498587999995,9.76367333704,-0.518,-1.8865000000000003,-2.303000000000001
0.5172632339999836,-0.40677984199999995,-0.22731814699999997,9.7555377402,-0.07,-1.8900000000000001,-2.3800000000000003,-0.3848855152099999,-0.24777678022999994,9.76415190156,-0.483,-1.8935000000000002,-2.3065000000000007
0.5243012639999733,-0.3900300838,-0.24885355039999998,9.767501853199999,-0.35000000000000003,-1.7500000000000002,-2.45,-0.3863212087699999,-0.24753749796999994,9.76343405478,-0.4655,-1.8830000000000005,-2.313500000000001
0.5321692979999852,-0.40917266459999996,-0.2560320182,9.7435736272,-0.42000000000000004,-1.8900000000000001,-2.45,-0.3871586966799999,-0.24789642135999995,9.763314413649999,-0.44800000000000006,-1.8935000000000006,-2.327500000000001
0.5392443289999846,-0.38524443859999996,-0.23688943739999999,9.7603233854,-0.14,-1.9600000000000002,-2.31,-0.38751762006999996,-0.24837498588,9.764630466079998,-0.434,-1.9040000000000004,-2.3345000000000007
0.5462533589999907,-0.3780659708,-0.25124637299999997,9.769894675799998,-0.7000000000000001,-1.61,-2.45,-0.38703905554999996,-0.24825534475,9.7639126193,-0.45499999999999996,-1.8830000000000005,-2.3485000000000005
0.5533263890000057,-0.36370903520000003,-0.24885355039999998,9.762716207999999,-0.77,-1.7500000000000002,-2.31,-0.38656049102999995,-0.24849462701,9.761759078959999,-0.4654999999999999,-1.8515000000000001,-2.341500000000001
0.5602624189999688,-0.36849468039999994,-0.24646072779999997,9.777073143599997,-0.42000000000000004,-1.6800000000000002,-2.31,-0.38548372086,-0.24885355039999996,9.76283584913,-0.469,-1.8375000000000004,-2.338000000000001
0.5673574499999745,-0.3900300838,-0.24167508259999998,9.7794659662,-0.56,-1.8200000000000003,-2.5200000000000005,-0.38572300311999996,-0.24825534474999994,9.76582687738,-0.469,-1.8270000000000004,-2.348500000000001
0.5744484809999904,-0.4019941968,-0.23928225999999997,9.777073143599997,-0.6300000000000001,-1.8200000000000003,-2.1700000000000004,-0.38596228537999994,-0.2482553447499999,9.76786077659,-0.4655,-1.8305000000000002,-2.348500000000001
0.5815305109999827,-0.39242290639999994,-0.2536391956,9.810572659999998,-0.7000000000000001,-1.61,-2.24,-0.38596228537999994,-0.24897319152999992,9.77049288145,-0.4795,-1.8165000000000002,-2.3380000000000005
0.5886835420000125,-0.38763726119999997,-0.24406790519999996,9.777073143599997,-0.56,-1.7500000000000002,-2.31,-0.38679977329,-0.24909283265999987,9.771450010490002,-0.476,-1.8025000000000002,-2.327500000000001
0.5956905719999668,-0.36849468039999994,-0.2560320182,9.7651090306,-0.56,-1.8200000000000003,-2.3800000000000003,-0.38644084989999994,-0.24885355039999993,9.770373240320001,-0.4865000000000001,-1.8060000000000003,-2.3310000000000004
0.6026966029999699,-0.35174492220000003,-0.24646072779999997,9.190831606599998,-0.35000000000000003,-1.9600000000000002,-2.0300000000000002,-0.38428730955999996,-0.24837498587999995,9.74201829251,-0.5005000000000001,-1.8200000000000003,-2.3240000000000007
0.609846632999961,-0.41156548719999997,-0.22731814699999997,9.810572659999998,-0.49000000000000005,-1.6800000000000002,-2.3800000000000003,-0.38452659181999993,-0.24813570361999995,9.74333434494,-0.4865000000000001,-1.8094999999999999,-2.3240000000000007
0.6169146639999781,-0.39720855159999996,-0.24885355039999998,9.777073143599997,-0.14,-1.7500000000000002,-2.45,-0.38368910391,-0.24646072779999995,9.74417183285,-0.47600000000000015,-1.7884999999999998,-2.3275000000000006
0.623990694999975,-0.39720855159999996,-0.24646072779999997,9.786644434,-0.35000000000000003,-1.8900000000000001,-2.1,-0.3858426442499999,-0.24586252214999998,9.7435736272,-0.47250000000000014,-1.7920000000000003,-2.3205000000000005
0.6310457249999786,-0.38045879339999994,-0.2608176634,9.7794659662,-0.49000000000000005,-1.54,-2.1700000000000004,-0.38632120877,-0.24646072779999995,9.7435736272,-0.46550000000000014,-1.7710000000000001,-2.3135000000000003
0.6380917550000049,-0.38763726119999997,-0.24167508259999998,10.384850084,-0.28,-1.7500000000000002,-2.5200000000000005,-0.38668013215999997,-0.24622144553999997,9.774560679869998,-0.441,-1.764,-2.3205000000000005
0.6452497859999653,-0.42592242280000003,-0.24885355039999998,9.7842516114,-0.42000000000000004,-1.6800000000000002,-2.3800000000000003,-0.38943187815,-0.24586252214999998,9.776235655689998,-0.4165,-1.764,-2.3275000000000006
0.6523028169999634,-0.39242290639999994,-0.24167508259999998,9.753144917599998,-0.49000000000000005,-2.0300000000000002,-2.3800000000000003,-0.38931223702,-0.24562323988999996,9.77563745004,-0.4445,-1.7815,-2.334500000000001
0.6600548499999945,-0.39960137419999997,-0.22492532440000002,9.7914300792,-0.56,-1.8200000000000003,-2.45,-0.3889533136300001,-0.24550359875999997,9.77743206699,-0.46900000000000003,-1.778,-2.3380000000000005
0.6671108809999851,-0.40438701939999994,-0.25124637299999997,9.769894675799998,-0.28,-1.9600000000000002,-2.31,-0.38967116041,-0.24562323988999996,9.777551708119999,-0.4655,-1.7885000000000002,-2.331000000000001
0.6741209109999886,-0.36610185780000004,-0.23688943739999999,9.769894675799998,-0.49000000000000005,-1.8200000000000003,-2.1700000000000004,-0.38751762007,-0.24466611084999998,9.77886776055,-0.46900000000000003,-1.7850000000000001,-2.317000000000001
0.681289941999978,-0.41156548719999997,-0.2584248408,9.7842516114,-17.85,-1.8900000000000001,-2.31,-0.3888336725,-0.24574288102000003,9.78006417185,-1.3545000000000003,-1.7815000000000005,-2.317000000000001
0.6883399729999837,-0.41156548719999997,-0.2584248408,10.4063854874,-0.28,-1.7500000000000002,-2.3800000000000003,-0.39050864832,-0.24610180441,9.811888712430001,-1.3335000000000001,-1.7885000000000004,-2.313500000000001
0.6954890029999774,-0.3900300838,-0.2560320182,9.7651090306,-0.21000000000000002,-1.9600000000000002,-2.45,-0.39182470075000003,-0.2464607278,9.81200835356,-1.3055,-1.7990000000000002,-2.320500000000001
0.7025970340000072,-0.38763726119999997,-0.23210379219999996,9.7914300792,-0.28,-1.8200000000000003,-2.3800000000000003,-0.39278182979,-0.24574288101999997,9.81272620034,-1.2985000000000002,-1.8060000000000003,-2.3240000000000007
0.7096440629999847,-0.39242290639999994,-0.26321048599999997,9.798608546999999,-0.28,-1.7500000000000002,-2.3800000000000003,-0.39290147092,-0.24681965119,9.81368332938,-1.2845000000000004,-1.8025000000000002,-2.317000000000001
0.7166870919999724,-0.39720855159999996,-0.2560320182,9.789037256599999,-0.35000000000000003,-1.6800000000000002,-2.3800000000000003,-0.39266218866,-0.24765713909999998,9.81428153503,-1.2705000000000004,-1.7955,-2.3275000000000006
0.7236861220000037,-0.41635113239999993,-0.23688943739999999,9.193224429199999,-0.14,-1.9600000000000002,-2.1700000000000004,-0.39385859996,-0.24681965119,9.783414123490001,-1.2425000000000004,-1.8130000000000002,-2.3240000000000007
0.7307341509999787,-0.41874395499999995,-0.23210379219999996,9.803394192199999,-0.35000000000000003,-1.8200000000000003,-2.3800000000000003,-0.39541393464999997,-0.24622144553999997,9.78473017592,-1.2320000000000007,-1.8165000000000002,-2.3275000000000006
0.7378721810000002,-0.39481572899999995,-0.24646072779999997,9.7914300792,-0.35000000000000003,-1.8200000000000003,-2.45,-0.39672998708,-0.24574288102000003,9.78604622835,-1.2215000000000005,-1.8165000000000002,-2.3310000000000004
0.7449942110000052,-0.41156548719999997,-0.26321048599999997,9.769894675799998,-0.28,-1.8900000000000001,-2.3800000000000003,-0.39972101533000004,-0.24658036893,9.81499938181,-1.2180000000000006,-1.8130000000000002,-2.3485000000000005
0.7520352399999979,-0.3780659708,-0.2536391956,9.8010013696,17.85,-1.7500000000000002,-2.31,-0.39804603951,-0.24789642135999995,9.81452081729,-0.3010000000000005,-1.8165000000000002,-2.3450000000000006
0.7590542699999787,-0.38763726119999997,-0.23688943739999999,9.786644434,-0.35000000000000003,-1.8200000000000003,-2.1700000000000004,-0.39756747499,-0.24729821570999996,9.81499938181,-0.31150000000000044,-1.8200000000000003,-2.3310000000000004
0.766105299000003,-0.38045879339999994,-0.23210379219999996,9.767501853199999,-0.42000000000000004,-1.7500000000000002,-2.24,-0.39672998708,-0.24658036893,9.81404225277,-0.31500000000000056,-1.8130000000000002,-2.3380000000000005
0.7731603290000066,-0.39720855159999996,-0.2560320182,9.803394192199999,-0.21000000000000002,-1.8200000000000003,-2.31,-0.39756747499,-0.24634108667,9.815238664069998,-0.3010000000000005,-1.8270000000000004,-2.3450000000000006
0.7801503579999576,-0.40677984199999995,-0.23928225999999997,10.4063854874,-0.77,-1.7500000000000002,-2.31,-0.39852460403,-0.24622144553999997,9.81631543424,-0.3255000000000006,-1.8270000000000004,-2.3345000000000007
0.7871613869999692,-0.38763726119999997,-0.24646072779999997,9.7842516114,-0.07,-1.54,-2.24,-0.39661034595,-0.24610180440999999,9.81631543424,-0.30800000000000055,-1.8200000000000003,-2.3275000000000006
0.7942294169999968,-0.4019941968,-0.23449661479999998,9.789037256599999,-0.42000000000000004,-1.9600000000000002,-2.1700000000000004,-0.39708891046999995,-0.24574288101999997,9.81811005119,-0.30450000000000044,-1.8165000000000002,-2.3170000000000006
0.8013074469999992,-0.3780659708,-0.24646072779999997,9.8153583052,-0.35000000000000003,-1.6800000000000002,-2.3800000000000003,-0.3960121402999999,-0.2468196511899999,9.819306462490001,-0.2940000000000005,-1.8095000000000003,-2.3135000000000003
0.8085304769999766,-0.41635113239999993,-0.25124637299999997,9.810572659999998,-0.6300000000000001,-2.0300000000000002,-2.1700000000000004,-0.39661034594999994,-0.24681965118999996,9.821340361699999,-0.31150000000000044,-1.8130000000000002,-2.3065000000000007
0.8156205059999593,-0.44027935839999993,-0.2536391956,9.8057870148,-0.28,-1.8200000000000003,-2.45,-0.40031922098,-0.24765713909999998,9.82313497865,-0.3010000000000005,-1.8130000000000002,-2.320500000000001
0.8225695360000032,-0.39242290639999994,-0.2536391956,9.789037256599999,-0.28,-2.1,-2.45,-0.39936209193999994,-0.24741785683999998,9.82337426091,0.5775000000000001,-1.8235000000000003,-2.3275000000000006
0.8294915639999658,-0.44267218099999994,-0.2560320182,9.786644434,-0.56,-1.8200000000000003,-2.31,-0.40091742662999996,-0.24729821570999996,9.792387208240001,0.5635000000000001,-1.8270000000000004,-2.3240000000000007
0.8364915939999946,-0.39242290639999994,-0.2608176634,9.193224429199999,-0.35000000000000003,-1.8200000000000003,-2.3800000000000003,-0.4010370677599999,-0.24753749796999996,9.763792978169999,0.5565,-1.8200000000000003,-2.320500000000001
0.843527623,-0.38045879339999994,-0.2656033086,9.789037256599999,-0.6300000000000001,-1.4700000000000002,-2.3800000000000003,-0.40067814436999993,-0.24921247379000003,9.76367333704,0.539,-1.8025000000000002,-2.3205000000000013
0.8506396529999734,-0.3756731482,-0.2608176634,9.810572659999998,-0.6300000000000001,-1.7500000000000002,-2.3800000000000003,-0.39984065645999994,-0.24909283266,9.76427154269,0.5215,-1.8025000000000002,-2.320500000000001
0.8576226819999988,-0.39242290639999994,-0.2536391956,9.2027957196,-0.35000000000000003,-1.8900000000000001,-2.5200000000000005,-0.3996013741999999,-0.24897319152999997,9.73495946584,0.5214999999999999,-1.8130000000000002,-2.327500000000001
0.8647357119999697,-0.38285161599999995,-0.2560320182,9.808179837399999,-0.49000000000000005,-2.0300000000000002,-2.24,-0.39792639838,-0.24993032057,9.76570723625,0.5039999999999998,-1.8165000000000002,-2.331000000000001
0.8717547409999611,-0.39242290639999994,-0.2608176634,9.8153583052,-0.56,-1.7500000000000002,-1.9600000000000002,-0.39661034595,-0.2513660141299999,9.766305441899998,0.4934999999999999,-1.8130000000000002,-2.310000000000001
0.8788217709999913,-0.37328032559999996,-0.2536391956,9.8153583052,-0.7000000000000001,-1.8200000000000003,-2.1,-0.39553357578,-0.25172493751999997,9.767501853199997,0.4759999999999998,-1.8130000000000002,-2.292500000000001
0.8858978000000093,-0.3780659708,-0.24167508259999998,9.810572659999998,-0.7000000000000001,-1.8900000000000001,-2.66,-0.39385859995999994,-0.25064816734999995,9.769535752409997,0.4549999999999999,-1.8130000000000002,-2.3065000000000007
0.8929428299999813,-0.36849468039999994,-0.22492532440000002,9.803394192199999,-0.56,-1.8200000000000003,-2.45,-0.39338003543999994,-0.24921247378999997,9.769655393539995,-0.4655,-1.8165000000000002,-2.3135000000000003
0.8999878589999639,-0.3613162126,-0.2536391956,9.789037256599999,-0.14,-1.8900000000000001,-2.5200000000000005,-0.39206398300999995,-0.25004996169999993,9.769775034669998,-0.45500000000000007,-1.8200000000000003,-2.3310000000000004
0.9069568889999573,-0.39242290639999994,-0.23210379219999996,9.810572659999998,-0.28,-1.6800000000000002,-2.3800000000000003,-0.3926621886599999,-0.2500499617,9.771928575009998,-0.44800000000000006,-1.8165000000000002,-2.338
0.914584920999971,-0.36849468039999994,-0.23688943739999999,9.8177511278,-0.49000000000000005,-1.7500000000000002,-2.3800000000000003,-0.3912264950999999,-0.24909283265999999,9.772646421789998,-0.4620000000000001,-1.8130000000000002,-2.3415000000000004
0.9219629510000118,-0.3613162126,-0.22731814699999997,9.8057870148,-0.28,-1.61,-2.24,-0.38895331362999996,-0.24849462701,9.742616498159999,-0.4375,-1.8060000000000003,-2.338
0.9289609809999888,-0.39720855159999996,-0.2536391956,9.7962157244,-0.07,-1.8900000000000001,-2.31,-0.38943187814999997,-0.2488535504,9.743214703809997,-0.4375000000000001,-1.8235000000000003,-2.341500000000001
0.9359930100000042,-0.39960137419999997,-0.2608176634,9.7962157244,-0.28,-1.61,-2.45,-0.38931223701999995,-0.25016960283,9.743573627199998,-0.43050000000000005,-1.8060000000000003,-2.355500000000001
0.9430730400000016,-0.3900300838,-0.22971096959999998,9.8010013696,-0.28,-1.6800000000000002,-2.3800000000000003,-0.38991044266999997,-0.24933211492,9.742855780419998,-0.42700000000000005,-1.8060000000000003,-2.355500000000001
0.9501400689999855,-0.4019941968,-0.23928225999999997,9.8010013696,-0.35000000000000003,-1.8200000000000003,-2.3800000000000003,-0.38919259589,-0.24873390927,9.742377215899996,-0.41300000000000014,-1.7955,-2.366000000000001
0.9571000980000122,-0.39960137419999997,-0.23210379219999996,9.8057870148,-0.56,-1.8200000000000003,-2.5900000000000003,-0.38715869667999997,-0.24765713910000003,9.742377215899996,-0.42700000000000005,-1.7955,-2.373000000000001
0.9642321279999919,-0.41156548719999997,-0.2536391956,9.8010013696,-0.28,-1.8200000000000003,-2.45,-0.38811582572,-0.24765713910000003,9.742975421549994,-0.42700000000000005,-1.7815,-2.3730000000000007
0.971275157999969,-0.40438701939999994,-0.24885355039999998,9.808179837399999,-0.35000000000000003,-1.8900000000000001,-2.1,-0.3862015676399999,-0.24729821570999996,9.744052191719994,-0.4165000000000001,-1.7850000000000001,-2.3625000000000007
0.9783291869999857,-0.39242290639999994,-0.24885355039999998,9.812965482600001,-0.6300000000000001,-1.7500000000000002,-2.1700000000000004,-0.3862015676399999,-0.24670001005999995,9.775039244389996,-0.43050000000000005,-1.7815,-2.3520000000000008
0.9855012169999782,-0.40438701939999994,-0.26321048599999997,9.8010013696,-0.14,-1.61,-2.5900000000000003,-0.38739797893999994,-0.24658036893,9.775637450039996,-0.40600000000000014,-1.7885000000000002,-2.3625000000000007
0.9925712470000008,-0.4019941968,-0.24167508259999998,9.808179837399999,-0.56,-1.9600000000000002,-2.31,-0.3887140313699999,-0.24562323988999996,9.775517808909996,-0.4025,-1.7990000000000002,-2.3590000000000004
0.9996952770000007,-0.35892339,-0.28474588939999995,9.810572659999998,-0.77,-1.8200000000000003,-2.31,-0.3870390555499999,-0.24717857457999998,9.805906655929997,-0.42350000000000004,-1.7955,-2.3485000000000005
1.006686306000006,-0.3756731482,-0.23688943739999999,9.803394192199999,-0.6300000000000001,-2.0300000000000002,-2.3800000000000003,-0.38668013215999986,-0.24622144553999994,9.805667373669996,-0.4305,-1.7955,-2.3555000000000006
1.0136953349999658,-0.35892339,-0.2560320182,9.810572659999998,-0.56,-1.9600000000000002,-2.0300000000000002,-0.38500515634,-0.24598216327999994,9.805428091409997,-0.4305,-1.8060000000000003,-2.359000000000001
1.0207223649999833,-0.38045879339999994,-0.2608176634,9.8153583052,-0.35000000000000003,-1.7500000000000002,-2.45,-0.38536407973,-0.24634108667,9.805428091409997,-0.4129999999999999,-1.8025000000000002,-2.376500000000001
1.0277243939999607,-0.3756731482,-0.25124637299999997,9.810572659999998,17.150000000000002,-1.61,-2.31,-0.38524443859999996,-0.2468196511899999,9.805428091409997,0.4795000000000001,-1.7885000000000002,-2.359000000000001
1.034838423999986,-0.39481572899999995,-0.2560320182,9.822536773,-0.8400000000000001,-1.7500000000000002,-2.3800000000000003,-0.38656049102999995,-0.24837498587999995,9.806385220449998,0.46550000000000014,-1.7850000000000001,-2.3555000000000006
1.0418924530000027,-0.39242290639999994,-0.2560320182,9.810572659999998,0.07,-1.8200000000000003,-2.3800000000000003,-0.38811582572,-0.24849462700999997,9.807461990619998,0.47600000000000015,-1.7815,-2.348500000000001
1.0489314829999898,-0.37088750299999995,-0.24885355039999998,9.812965482600001,-0.35000000000000003,-1.8900000000000001,-2.3800000000000003,-0.38703905554999996,-0.24933211491999993,9.807581631749999,0.47250000000000014,-1.7920000000000005,-2.348500000000001
1.056064512999967,-0.40677984199999995,-0.25124637299999997,9.8153583052,-0.28,-1.9600000000000002,-2.1700000000000004,-0.38895331362999996,-0.25004996169999993,9.807461990619998,0.4830000000000002,-1.8025000000000002,-2.3380000000000005
1.0630775419999736,-0.39960137419999997,-0.24167508259999998,9.7938229018,-0.42000000000000004,-1.8900000000000001,-2.31,-0.39086757171,-0.2507678084799999,9.80686378497,0.47600000000000015,-1.8165000000000002,-2.341500000000001
1.0701975719999837,-0.3756731482,-0.25124637299999997,9.7914300792,-0.42000000000000004,-1.9600000000000002,-2.3800000000000003,-0.38979080154,-0.25064816734999995,9.80662450271,0.4585000000000002,-1.8200000000000003,-2.3450000000000006
1.077220600999965,-0.3900300838,-0.26321048599999997,9.812965482600001,-0.35000000000000003,-1.6800000000000002,-2.31,-0.38931223701999995,-0.25076780847999997,9.807461990619998,0.4550000000000002,-1.8235000000000003,-2.3380000000000005
1.0842846310000027,-0.38045879339999994,-0.24885355039999998,9.810572659999998,-0.7000000000000001,-2.1,-2.1,-0.3888336725,-0.25172493751999997,9.807940555139998,0.4340000000000003,-1.8445000000000005,-2.3240000000000007
1.0914896609999687,-0.40438701939999994,-0.22731814699999997,9.810572659999998,-0.77,-1.6800000000000002,-2.31,-0.38895331362999996,-0.25112673186999995,9.808419119659998,0.41300000000000026,-1.8375000000000004,-2.3205000000000005
1.0987316910000118,-0.37328032559999996,-0.2584248408,9.808179837399999,-0.42000000000000004,-1.7500000000000002,-2.3800000000000003,-0.38763726119999997,-0.2524427843,9.808538760789999,0.42000000000000026,-1.8340000000000003,-2.3100000000000005
1.1058117210000091,-0.41156548719999997,-0.2656033086,9.8201439504,0.14,-1.9600000000000002,-2.5200000000000005,-0.3876372611999999,-0.25304098994999996,9.809495889829998,0.4410000000000003,-1.8410000000000004,-2.313500000000001
1.1128927499999577,-0.3900300838,-0.24646072779999997,9.812965482600001,-0.35000000000000003,-2.0300000000000002,-2.31,-0.38691941441999994,-0.25292134881999995,9.809735172089997,0.4410000000000003,-1.8480000000000003,-2.3240000000000007
1.1200237799999968,-0.39481572899999995,-0.2584248408,9.822536773,-0.7000000000000001,-1.6800000000000002,-2.3800000000000003,-0.38703905554999996,-0.25339991333999995,9.810213736609997,0.4375000000000003,-1.8445000000000005,-2.3345000000000007
1.1271428100000094,-0.4019941968,-0.23688943739999999,9.8153583052,-0.42000000000000004,-1.9600000000000002,-2.24,-0.38691941441999994,-0.25208386090999996,9.810931583389998,0.4235000000000003,-1.862,-2.3170000000000006
1.1341868389999945,-0.40917266459999996,-0.24646072779999997,9.8153583052,-0.28,-1.8900000000000001,-2.31,-0.38727833780999993,-0.25232314317,9.811290506779999,0.43750000000000033,-1.8585000000000005,-2.317000000000001
1.1412068689999728,-0.39720855159999996,-0.23210379219999996,9.7938229018,-0.28,-1.8200000000000003,-2.0300000000000002,-0.38919259588999994,-0.24969103831,9.810453018869998,0.46200000000000035,-1.8585000000000005,-2.303000000000001
1.1483058979999896,-0.40677984199999995,-0.24646072779999997,9.767501853199999,-0.14,-1.6800000000000002,-2.3800000000000003,-0.39074793057999996,-0.25016960283,9.80865840192,0.4865000000000004,-1.8410000000000004,-2.303000000000001
1.155445928000006,-0.3780659708,-0.23928225999999997,9.8201439504,-0.42000000000000004,-1.8200000000000003,-2.5900000000000003,-0.3917050596199999,-0.24933211492,9.809136966439999,0.4935000000000003,-1.8340000000000003,-2.3310000000000004
1.1624819580000008,-0.4019941968,-0.23688943739999999,9.812965482600001,-0.7000000000000001,-1.7500000000000002,-2.1700000000000004,-0.39278182979,-0.24813570362000004,9.809017325309998,0.4760000000000003,-1.8340000000000003,-2.3170000000000006
1.170191989999978,-0.4019941968,-0.23928225999999997,9.808179837399999,0.07,-1.8200000000000003,-2.3800000000000003,-0.39409788222,-0.24753749796999996,9.80889768418,-0.378,-1.8445000000000005,-2.3205000000000005
1.1772340199999576,-0.38285161599999995,-0.25124637299999997,9.786644434,-0.28,-1.8200000000000003,-2.5200000000000005,-0.39349967656999996,-0.24729821571000002,9.807103067229999,-0.35,-1.8480000000000003,-2.327500000000001
1.184296049000011,-0.37328032559999996,-0.2560320182,9.808179837399999,-0.35000000000000003,-1.7500000000000002,-2.24,-0.3925425475299999,-0.24729821570999996,9.806983426099999,-0.371,-1.8445000000000005,-2.3205000000000005
1.191418078999959,-0.38763726119999997,-0.22971096959999998,9.803394192199999,-0.35000000000000003,-1.8900000000000001,-2.31,-0.3933800354399999,-0.24634108667,9.806504861579997,-0.371,-1.8445,-2.317000000000001
1.1986621089999971,-0.34456645439999994,-0.2536391956,9.8321080634,-0.56,-1.7500000000000002,-2.3800000000000003,-0.3902693660599999,-0.2464607278,9.807342349489998,-0.38499999999999995,-1.8340000000000003,-2.327500000000001
1.2057421389999945,-0.39242290639999994,-0.2584248408,9.8153583052,-0.56,-1.6800000000000002,-2.5200000000000005,-0.38991044266999986,-0.24729821571000002,9.808419119659998,-0.392,-1.8235,-2.3380000000000005
1.2127651679999758,-0.3780659708,-0.25124637299999997,9.810572659999998,-0.28,-1.6800000000000002,-2.3800000000000003,-0.39003008379999987,-0.24729821570999996,9.809376248699998,-0.385,-1.8095000000000003,-2.338000000000001
1.2198901979999732,-0.40438701939999994,-0.24406790519999996,9.8177511278,-0.35000000000000003,-1.7500000000000002,-2.1,-0.3907479305799999,-0.24634108667,9.809615530959999,-0.385,-1.8130000000000002,-2.327500000000001
1.226912226999957,-0.37328032559999996,-0.24406790519999996,9.803394192199999,-0.42000000000000004,-1.7500000000000002,-2.66,-0.39038900718999986,-0.24610180440999993,9.809256607569997,-0.37099999999999994,-1.7955,-2.3555000000000006
1.2339602569999784,-0.40438701939999994,-0.24167508259999998,9.8249295956,-0.49000000000000005,-1.7500000000000002,-2.31,-0.3903890071899999,-0.2468196511899999,9.809974454349998,-0.3570000000000001,-1.7990000000000002,-2.3555000000000006
1.2410222859999749,-0.38045879339999994,-0.2703889538,9.8010013696,-0.21000000000000002,-1.8900000000000001,-2.3800000000000003,-0.3907479305799999,-0.24741785683999998,9.809615530959999,-0.3465000000000001,-1.8060000000000003,-2.3555
1.2480693159999987,-0.38285161599999995,-0.2584248408,9.812965482600001,-0.07,-1.8900000000000001,-2.45,-0.3893122370199999,-0.24705893344999996,9.809256607569997,-0.3570000000000001,-1.8025000000000002,-2.3520000000000008
1.2551943459999961,-0.4019941968,-0.2608176634,9.808179837399999,-0.49000000000000005,-1.8200000000000003,-2.45,-0.38991044266999986,-0.24777678023000002,9.809017325309998,-0.36400000000000005,-1.7920000000000003,-2.359000000000001
1.26230637499998,-0.38524443859999996,-0.2584248408,9.812965482600001,-0.28,-1.8200000000000003,-2.1700000000000004,-0.3894318781499999,-0.24777678023000002,9.808538760789997,-0.3430000000000001,-1.7990000000000002,-2.3485000000000005
1.2693694049999635,-0.4019941968,-0.2536391956,9.8153583052,-0.49000000000000005,-2.0300000000000002,-2.45,-0.38943187814999985,-0.24861426814,9.808538760789997,-0.3465000000000001,-1.8025000000000002,-2.359000000000001
1.2763954339999941,-0.39720855159999996,-0.24646072779999997,9.8057870148,-0.21000000000000002,-1.8900000000000001,-2.3800000000000003,-0.3888336724999999,-0.24861426813999996,9.808060196269997,-0.3430000000000001,-1.8025000000000002,-2.3625000000000007
1.283476463999989,-0.39960137419999997,-0.2536391956,9.822536773,-0.6300000000000001,-1.6800000000000002,-2.24,-0.3889533136299999,-0.24969103830999995,9.809495889829996,-0.3605000000000001,-1.7955,-2.3730000000000007
1.2904804929999614,-0.40917266459999996,-0.2703889538,9.8153583052,0.07,-1.8200000000000003,-2.31,-0.38907295475999987,-0.25088744961000004,9.811888712429996,-0.3500000000000001,-1.8025000000000002,-2.369500000000001
1.2975385229999574,-0.40677984199999995,-0.24167508259999998,9.8201439504,-0.77,-2.0300000000000002,-2.3800000000000003,-0.39050864831999993,-0.25100709074,9.811888712429997,-0.36750000000000005,-1.8130000000000002,-2.359000000000001
1.3046285529999864,-0.38763726119999997,-0.23449661479999998,9.810572659999998,-0.49000000000000005,-1.7500000000000002,-2.1700000000000004,-0.3897908015399999,-0.25088744961,9.811769071299997,-0.35700000000000004,-1.8130000000000002,-2.359000000000001
1.3116945819999728,-0.3780659708,-0.2536391956,9.812965482600001,-17.92,-1.6800000000000002,-2.31,-0.38859439024,-0.25160529639,9.81200835356,-1.2565000000000002,-1.8060000000000003,-2.3555000000000006
1.3188456119999614,-0.36610185780000004,-0.2536391956,9.193224429199999,-0.49000000000000005,-2.0300000000000002,-2.45,-0.38775690233,-0.25172493752,9.782337353319999,-1.267,-1.8165000000000002,-2.3520000000000008
1.3258526409999831,-0.3900300838,-0.2656033086,9.8057870148,-0.14,-2.0300000000000002,-2.1,-0.3885943902399999,-0.25220350204,9.78221771219,-1.2565,-1.8305000000000002,-2.3450000000000006
1.332916670999964,-0.38763726119999997,-0.2560320182,9.812965482600001,-0.7000000000000001,-2.0300000000000002,-2.45,-0.38859439024000003,-0.25351955447,9.782696276709999,-1.274,-1.8375000000000004,-2.3520000000000008
1.3399056999999743,-0.3613162126,-0.24167508259999998,9.836893708599998,-0.14,-1.7500000000000002,-2.31,-0.38943187815,-0.25292134882,9.78293555897,-1.2530000000000001,-1.8375000000000004,-2.3485000000000005
1.3468707289999884,-0.39481572899999995,-0.24406790519999996,9.812965482600001,-0.42000000000000004,-1.9600000000000002,-2.5200000000000005,-0.38955151928,-0.25220350203999997,9.782815917839999,-1.246,-1.8515000000000004,-2.3485000000000005
1.3540827589999935,-0.40917266459999996,-0.24885355039999998,9.8249295956,-0.35000000000000003,-1.9600000000000002,-2.31,-0.39110685397,-0.2520838609099999,9.783533764619998,-1.2495000000000003,-1.8655000000000004,-2.345000000000001
1.3611077889999592,-0.36370903520000003,-0.24167508259999998,9.8201439504,-0.77,-1.8200000000000003,-2.3800000000000003,-0.38907295476000003,-0.2519642197799999,9.783653405749998,-1.2705000000000002,-1.8690000000000004,-2.359000000000001
1.3682028189999755,-0.40917266459999996,-0.24646072779999997,9.8153583052,17.85,-1.61,-2.1700000000000004,-0.39086757171000003,-0.2520838609099999,9.784251611399998,-0.3570000000000002,-1.8620000000000005,-2.3345000000000007
1.375324847999991,-0.39960137419999997,-0.24885355039999998,9.808179837399999,-0.28,-1.7500000000000002,-2.31,-0.39062828945000005,-0.2524427842999999,9.783414123489997,-0.34650000000000014,-1.862,-2.334500000000001
1.382437877999962,-0.3756731482,-0.2608176634,9.810572659999998,-0.28,-1.8200000000000003,-2.24,-0.39038900718999997,-0.25196421977999994,9.783892688009997,-0.3500000000000001,-1.8585000000000005,-2.3275000000000006
1.3895489079999948,-0.38524443859999996,-0.2584248408,9.8201439504,0.07,-1.6800000000000002,-2.31,-0.39050864832,-0.25196421977999994,9.784251611399998,-0.3430000000000001,-1.8480000000000003,-2.320500000000001
1.3965549369999621,-0.40677984199999995,-0.23688943739999999,9.839286531199999,-0.28,-1.8200000000000003,-2.1700000000000004,-0.39074793057999996,-0.25076780847999997,9.78580694609,-0.33250000000000013,-1.8480000000000003,-2.3065000000000007
1.4036299669999721,-0.39720855159999996,-0.22013967919999997,9.810572659999998,-0.14,-1.8200000000000003,-2.45,-0.39134613623000003,-0.2488535504,9.78568730496,-0.32550000000000007,-1.8480000000000003,-2.3205000000000005
1.410707995999985,-0.39242290639999994,-0.22971096959999998,9.8153583052,-0.56,-1.9600000000000002,-2.3800000000000003,-0.39086757171,-0.24765713910000003,9.785687304959998,-0.3290000000000002,-1.8445000000000005,-2.3170000000000006
1.4177450259999773,-0.38763726119999997,-0.24406790519999996,9.848857821599998,-0.42000000000000004,-1.8900000000000001,-2.45,-0.3903890071900001,-0.24753749796999996,9.7878408453,-0.33950000000000014,-1.8445000000000005,-2.320500000000001
1.4248640559999899,-0.40677984199999995,-0.25124637299999997,9.8273224182,-0.42000000000000004,-1.8900000000000001,-2.5200000000000005,-0.39074793058,-0.24741785683999998,9.78808012756,-0.3290000000000002,-1.8550000000000004,-2.3345000000000007
1.432486087999962,-0.38045879339999994,-0.24646072779999997,9.822536773,-0.35000000000000003,-1.6800000000000002,-2.24,-0.3893122370199999,-0.24622144553999994,9.78843905095,-0.3500000000000002,-1.848,-2.331000000000001
1.4396581180000112,-0.40438701939999994,-0.23688943739999999,9.8177511278,-0.21000000000000002,-1.7500000000000002,-2.45,-0.38919259588999994,-0.24598216327999997,9.78831940982,-0.322,-1.8340000000000003,-2.3345000000000007
1.446665146999976,-0.4235296002,-0.24885355039999998,9.8440721764,-0.14,-1.6800000000000002,-2.5200000000000005,-0.39098721283999993,-0.24670001006,9.78999438564,-0.3045000000000001,-1.8305000000000002,-2.3520000000000008
1.4536901760000092,-0.37328032559999996,-0.2536391956,9.822536773,-0.21000000000000002,-1.7500000000000002,-2.31,-0.39074793057999996,-0.24670001006,9.790472950159998,0.5810000000000001,-1.8340000000000003,-2.352000000000001
1.4607782059999863,-0.41874395499999995,-0.24646072779999997,9.808179837399999,-0.42000000000000004,-1.54,-2.24,-0.39338003544,-0.24634108667,9.821220720569999,0.5845,-1.8095000000000003,-2.341500000000001
1.4677842350000105,-0.40677984199999995,-0.2560320182,9.810572659999998,-0.35000000000000003,-1.7500000000000002,-2.3800000000000003,-0.39421752334999993,-0.24586252214999998,9.821460002829998,0.5740000000000001,-1.7955,-2.3555000000000006
1.4747952650000116,-0.39960137419999997,-0.23928225999999997,9.8153583052,17.71,-1.6800000000000002,-2.24,-0.39481572899999995,-0.24502503423999994,9.821579643959996,1.4945,-1.778,-2.3450000000000006
1.4819372939999766,-0.41874395499999995,-0.22731814699999997,9.812965482600001,-0.56,-1.6800000000000002,-2.45,-0.3976871161199999,-0.24430718746000002,9.820383232659998,1.4735,-1.7745000000000002,-2.352000000000001
1.4892263250000042,-0.3900300838,-0.2584248408,9.8249295956,-0.56,-1.7500000000000002,-2.45,-0.39744783385999993,-0.24502503423999994,9.820981438309996,1.4665,-1.764,-2.3485000000000005
1.4962213539999993,-0.3780659708,-0.2536391956,9.8177511278,-0.35000000000000003,-1.4000000000000001,-2.31,-0.39589249916999997,-0.24526431649999997,9.820622514919997,1.4665,-1.736,-2.3485000000000005
1.5033413840000094,-0.40917266459999996,-0.25124637299999997,9.8153583052,-0.6300000000000001,-1.7500000000000002,-2.5200000000000005,-0.39816568063999996,-0.24574288101999997,9.820383232659996,1.4735,-1.7325,-2.3555000000000006
1.5103784130000122,-0.39720855159999996,-0.24885355039999998,9.822536773,-0.56,-1.8200000000000003,-2.24,-0.3975674749899999,-0.24586252214999993,9.820742156049997,0.5529999999999999,-1.7429999999999999,-2.359000000000001
1.5174024429999804,-0.38285161599999995,-0.23210379219999996,9.8249295956,-0.49000000000000005,-1.8200000000000003,-2.45,-0.39672998708,-0.24502503424,9.821579643959996,0.5424999999999999,-1.7465,-2.3660000000000005
1.5244914730000119,-0.37328032559999996,-0.23928225999999997,9.822536773,-0.21000000000000002,-1.61,-2.66,-0.39661034595,-0.24394826406999998,9.822177849609997,0.5459999999999999,-1.736,-2.3870000000000005
1.5321405049999726,-0.4331008906,-0.2584248408,9.8440721764,-0.14,-1.6800000000000002,-2.31,-0.39900316855,-0.24394826406999998,9.823374260909999,0.5354999999999999,-1.736,-2.3870000000000005
1.5392105340000057,-0.41635113239999993,-0.23210379219999996,9.8177511278,-0.6300000000000001,-1.54,-2.3800000000000003,-0.39948173306999996,-0.24370898180999995,9.822297490739999,0.5179999999999998,-1.722,-2.3975000000000004
1.5462325629999896,-0.38524443859999996,-0.24885355039999998,9.8153583052,-0.35000000000000003,-1.7500000000000002,-2.31,-0.39888352741999994,-0.24514467536999995,9.822536773,0.5074999999999998,-1.7185,-2.3905000000000003
1.5533495930000072,-0.39242290639999994,-0.2656033086,9.812965482600001,-0.28,-1.9600000000000002,-2.3800000000000003,-0.39888352741999994,-0.24693929231999995,9.822417131869999,0.5214999999999999,-1.7185,-2.3905000000000007
1.5603976229999716,-0.39481572899999995,-0.2703889538,9.8201439504,-0.35000000000000003,-1.8900000000000001,-2.3800000000000003,-0.39924245081,-0.24825534475,9.820981438309998,0.5249999999999999,-1.7185,-2.387000000000001
1.5674176519999605,-0.39242290639999994,-0.22492532440000002,9.839286531199999,-0.28,-1.8900000000000001,-2.24,-0.39852460403,-0.24693929232,9.821579643959998,0.5319999999999999,-1.7185,-2.3730000000000007
1.5745156819999693,-0.38285161599999995,-0.26321048599999997,9.812965482600001,-0.42000000000000004,-1.7500000000000002,-2.31,-0.3986442451600001,-0.24777678023,9.821101079439998,0.5285,-1.722,-2.376500000000001
1.581569710999986,-0.3780659708,-0.2536391956,9.8153583052,-0.35000000000000003,-1.8200000000000003,-2.66,-0.39732819273,-0.24861426813999996,9.820981438309996,0.5215,-1.7255000000000003,-2.3870000000000005
1.5886667409999973,-0.38285161599999995,-0.24406790519999996,9.8273224182,-0.6300000000000001,-1.7500000000000002,-2.5200000000000005,-0.39529429352,-0.24837498587999995,9.820143950399999,0.497,-1.7289999999999999,-2.387000000000001
1.5958147709999935,-0.3780659708,-0.2536391956,9.8249295956,-0.42000000000000004,-1.7500000000000002,-2.31,-0.39553357578,-0.2483749858799999,9.820263591529997,0.48650000000000004,-1.7290000000000003,-2.387000000000001
1.603065800999957,-0.3780659708,-0.2584248408,9.8153583052,-0.49000000000000005,-1.7500000000000002,-2.5200000000000005,-0.39349967656999996,-0.24897319152999992,9.82062251492,0.483,-1.7395000000000003,-2.4010000000000007
1.6101188309999657,-0.40677984199999995,-0.2608176634,9.836893708599998,-0.21000000000000002,-1.8900000000000001,-2.31,-0.39349967656999996,-0.24921247378999994,9.821938567349997,0.48999999999999994,-1.7465000000000004,-2.397500000000001
1.6171838600000115,-0.38045879339999994,-0.2560320182,9.810572659999998,-0.77,-2.1,-2.1700000000000004,-0.39254254753,-0.2500499617,9.821699285089998,-0.434,-1.7675,-2.3940000000000006
1.6241938899999582,-0.38285161599999995,-0.23928225999999997,9.884750160599998,-0.35000000000000003,-1.4000000000000001,-2.3800000000000003,-0.39074793057999996,-0.25064816734999995,9.825288518989998,-0.42350000000000004,-1.7535,-2.3905000000000003
1.6312849189999952,-0.4211367776,-0.23210379219999996,9.834500885999999,-0.7000000000000001,-1.7500000000000002,-2.3800000000000003,-0.3923032652699999,-0.24933211492,9.825767083509998,-0.4305,-1.7535000000000003,-2.387000000000001
1.63832094899999,-0.39960137419999997,-0.215354034,9.812965482600001,-0.14,-1.9600000000000002,-2.1700000000000004,-0.3933800354399999,-0.24741785683999998,9.825527801249999,-0.41999999999999993,-1.7815000000000005,-2.3800000000000003
1.6454739789999735,-0.36610185780000004,-0.23449661479999998,9.851250644199999,-0.07,-1.8200000000000003,-2.31,-0.3912264950999999,-0.24658036893000004,9.8273224182,-0.392,-1.7850000000000001,-2.369500000000001
1.65253600799997,-0.3900300838,-0.24646072779999997,9.8440721764,-0.14,-1.8200000000000003,-2.31,-0.39086757171,-0.2464607278,9.82839918837,-0.37100000000000005,-1.7850000000000001,-2.373
1.6595990380000103,-0.36370903520000003,-0.24885355039999998,9.822536773,0.0,-1.9600000000000002,-2.3800000000000003,-0.38991044267,-0.24729821570999996,9.82827954724,-0.34650000000000003,-1.7920000000000003,-2.369500000000001
1.6666460669999879,-0.40438701939999994,-0.24406790519999996,9.8321080634,-17.92,-1.7500000000000002,-2.31,-0.39146577736,-0.24753749796999996,9.82875811176,-1.232,-1.7990000000000002,-2.3520000000000008
1.673607096000012,-0.3613162126,-0.2656033086,9.8177511278,-0.35000000000000003,-1.6800000000000002,-2.5200000000000005,-0.38787654346,-0.24789642135999998,9.82744205933,-1.2425000000000002,-1.7990000000000002,-2.3625000000000007
1.6806331259999752,-0.39481572899999995,-0.2560320182,9.8153583052,-0.28,-1.61,-2.31,-0.38679977329,-0.24909283265999999,9.827322418199998,-1.225,-1.8025000000000002,-2.359000000000001
1.6876411549999943,-0.38763726119999997,-0.25124637299999997,9.8201439504,-0.56,-2.0300000000000002,-2.45,-0.38691941442,-0.24921247378999997,9.827561700459999,-1.2355000000000003,-1.8165000000000002,-2.3660000000000005
1.6946871849999638,-0.38285161599999995,-0.23928225999999997,9.7794659662,-0.7000000000000001,-1.8200000000000003,-2.31,-0.3864408499,-0.24789642135999995,9.825886724639998,-1.2565000000000002,-1.8095000000000003,-2.362500000000001
1.7025652169999717,-0.3780659708,-0.24167508259999998,9.841679353799998,-0.35000000000000003,-1.7500000000000002,-2.1700000000000004,-0.38560336199,-0.24646072779999995,9.826963494809998,-1.2565000000000002,-1.8025000000000002,-2.3520000000000008
1.709742245999962,-0.40917266459999996,-0.24885355039999998,9.8273224182,-0.14,-1.7500000000000002,-2.45,-0.3864408499,-0.24765713909999998,9.826365289159998,-1.2495000000000003,-1.7955,-2.3625000000000007
1.7167572749999636,-0.3756731482,-0.2656033086,9.8249295956,-0.28,-1.8200000000000003,-2.31,-0.38608192651,-0.24777678023,9.826963494809998,-1.2425000000000002,-1.7990000000000002,-2.3625000000000007
1.7237293029999705,-0.3900300838,-0.24167508259999998,9.836893708599998,-0.28,-1.7500000000000002,-2.3800000000000003,-0.38668013216,-0.24717857457999992,9.82804026498,-1.2390000000000003,-1.7955,-2.3485000000000005
1.730853331999981,-0.38045879339999994,-0.23449661479999998,9.812965482600001,-0.07,-1.8900000000000001,-2.24,-0.38656049102999995,-0.24670001006,9.8273224182,-1.2110000000000003,-1.8025000000000002,-2.3345000000000007
1.7378793599999653,-0.41874395499999995,-0.23449661479999998,9.8249295956,-0.14,-1.8200000000000003,-2.45,-0.38859439024,-0.24574288101999997,9.8273224182,-1.1970000000000005,-1.8060000000000003,-2.341500000000001
1.7450213889999873,-0.39242290639999994,-0.23449661479999998,9.812965482600001,-0.42000000000000004,-1.8900000000000001,-2.24,-0.38931223702,-0.24454646972,9.827202777069997,-1.1935000000000004,-1.8130000000000002,-2.3275000000000006
1.7520954180000103,-0.38763726119999997,-0.25124637299999997,9.8321080634,-0.14,-1.7500000000000002,-2.24,-0.38835510797999995,-0.24406790519999996,9.826963494809998,-1.1900000000000006,-1.8060000000000003,-2.3240000000000007
1.7591324459999669,-0.38045879339999994,-0.24646072779999997,9.8919286284,-0.42000000000000004,-1.8900000000000001,-2.31,-0.38835510798,-0.24358934067999996,9.831031293229998,-1.1725000000000005,-1.7955,-2.3310000000000004
1.7661434749999785,-0.38763726119999997,-0.24406790519999996,9.829715240799999,-0.14,-2.0300000000000002,-2.1,-0.38859439024000003,-0.2438286229399999,9.828279547239998,-1.1620000000000006,-1.8270000000000004,-2.3170000000000006
1.7731665029999704,-0.3756731482,-0.25124637299999997,9.8153583052,-0.42000000000000004,-1.61,-2.3800000000000003,-0.38632120877,-0.2447857519799999,9.827322418199998,-1.1480000000000008,-1.8199999999999998,-2.3170000000000006
1.7801735310000026,-0.39242290639999994,-0.22971096959999998,9.870393224999999,-0.14,-1.9600000000000002,-2.31,-0.38596228538,-0.2455035987599999,9.830193805319999,-1.1480000000000008,-1.8200000000000003,-2.3240000000000007
1.787194559999989,-0.4019941968,-0.22731814699999997,9.8608219346,-0.6300000000000001,-1.7500000000000002,-2.31,-0.38775690232999993,-0.24514467536999995,9.830672369839998,-1.1760000000000006,-1.8165000000000002,-2.3240000000000007
1.7942485879999595,-0.4139583098,-0.23928225999999997,9.8321080634,-0.42000000000000004,-1.54,-2.31,-0.38895331362999996,-0.24478575198000002,9.830074164189998,-1.1900000000000008,-1.8025000000000002,-2.3240000000000007
1.8013226169999825,-0.41156548719999997,-0.22731814699999997,9.8273224182,0.07,-1.7500000000000002,-2.31,-0.39134613623,-0.24370898180999995,9.83031344645,-1.1865000000000008,-1.7920000000000003,-2.3205000000000005
1.808169644999964,-0.39960137419999997,-0.23928225999999997,9.829715240799999,-0.56,-1.8900000000000001,-2.5200000000000005,-0.39110685396999995,-0.24346969954999995,9.83019380532,-0.31849999999999995,-1.7990000000000002,-2.3310000000000004
1.8154616740000051,-0.38285161599999995,-0.23928225999999997,9.8201439504,-0.42000000000000004,-1.61,-2.3800000000000003,-0.39218362413999996,-0.24215364711999995,9.830313446449999,-0.32199999999999995,-1.7955,-2.3240000000000007
1.8225147029999675,-0.38285161599999995,-0.25124637299999997,9.841679353799998,-0.77,-1.61,-2.5200000000000005,-0.39158541848999995,-0.24191436486,9.83162949888,-0.3465,-1.7955,-2.334500000000001
1.8295057309999834,-0.4139583098,-0.23928225999999997,9.8249295956,-0.49000000000000005,-1.8200000000000003,-2.24,-0.39290147091999994,-0.24131615921,9.831868781139999,-0.34299999999999997,-1.7850000000000001,-2.3240000000000007
1.836548759999971,-0.39481572899999995,-0.22013967919999997,9.812965482600001,-0.07,-1.8900000000000001,-2.45,-0.39349967656999996,-0.24035903017,9.83354375696,-0.3115,-1.7885000000000002,-2.331000000000001
1.8434637880000082,-0.38045879339999994,-0.23928225999999997,9.8153583052,-0.77,-1.8200000000000003,-2.24,-0.39361931769999997,-0.24023938904,9.832227704529998,-0.3325,-1.7920000000000003,-2.3345000000000007
1.850428815999976,-0.38763726119999997,-0.23449661479999998,9.829715240799999,-0.42000000000000004,-1.8900000000000001,-2.3800000000000003,-0.39254254753,-0.23952154226000003,9.832347345659999,-0.3465,-1.7990000000000002,-2.3310000000000004
1.857504844999994,-0.39242290639999994,-0.24885355039999998,9.8153583052,-0.28,-1.61,-2.1700000000000004,-0.39338003544,-0.23868405434999995,9.831868781139999,-0.34650000000000003,-1.7885000000000002,-2.3240000000000007
1.8645208730000036,-0.3780659708,-0.23688943739999999,9.8273224182,-0.42000000000000004,-1.8200000000000003,-2.5900000000000003,-0.39278182979,-0.23844477208999998,9.831390216619997,-0.35350000000000004,-1.7919999999999998,-2.3345000000000007
1.8716459020000116,-0.39481572899999995,-0.26321048599999997,9.812965482600001,-0.07,-1.7500000000000002,-2.31,-0.39349967656999996,-0.23988046564999999,9.831390216619997,-0.35350000000000004,-1.7850000000000001,-2.3380000000000005
1.8787549310000031,-0.39960137419999997,-0.24167508259999998,9.8201439504,-0.35000000000000003,-1.8200000000000003,-2.5200000000000005,-0.39254254753,-0.24023938903999995,9.831150934359998,-0.364,-1.7850000000000001,-2.341500000000001
1.8857909589999622,-0.39720855159999996,-0.2584248408,9.839286531199999,-0.49000000000000005,-1.8200000000000003,-2.45,-0.39278182979,-0.24143580033999995,9.83246698679,-0.36750000000000005,-1.7815,-2.3520000000000008
1.892904987999998,-0.38045879339999994,-0.23210379219999996,9.8201439504,-0.42000000000000004,-1.8200000000000003,-2.45,-0.3924229064,-0.24047867129999995,9.831868781139999,-0.38150000000000006,-1.7850000000000001,-2.3625000000000007
1.8999860170000034,-0.39242290639999994,-0.24885355039999998,9.836893708599998,-0.56,-1.8200000000000003,-2.24,-0.39302111205000007,-0.2405983124299999,9.829117035149999,-0.38849999999999996,-1.7815,-2.359000000000001
1.9067880439999954,-0.39242290639999994,-0.23688943739999999,9.8177511278,-0.6300000000000001,-1.8200000000000003,-2.24,-0.39326039431000004,-0.24023938903999995,9.828518829499998,-0.4130000000000001,-1.7710000000000001,-2.3660000000000005
1.9136870719999592,-0.39481572899999995,-0.24646072779999997,9.829715240799999,-0.49000000000000005,-2.0300000000000002,-2.45,-0.39421752335000004,-0.24000010677999994,9.829236676279999,-0.4165,-1.7920000000000003,-2.3695000000000013
1.920675100999972,-0.4019941968,-0.24167508259999998,9.8201439504,-0.49000000000000005,-1.8200000000000003,-2.45,-0.39469608787,-0.2405983124299999,9.826724212550001,-0.434,-1.7850000000000001,-2.376500000000001
1.9276671289999854,-0.3780659708,-0.22492532440000002,9.8440721764,-17.92,-1.7500000000000002,-2.31,-0.39349967656999996,-0.24047867129999992,9.825886724639998,-1.2985,-1.7850000000000001,-2.376500000000001
1.9346891569999798,-0.3493520996,-0.2656033086,9.851250644199999,-0.56,-1.7500000000000002,-2.31,-0.39026936605999996,-0.24179472372999994,9.82684385368,-1.3054999999999999,-1.7955,-2.376500000000001
1.941667185999961,-0.38524443859999996,-0.2560320182,9.8440721764,-0.28,-1.7500000000000002,-2.45,-0.38895331362999996,-0.24323041729,9.827681341589999,-1.323,-1.7955,-2.3835000000000006
1.9487642139999934,-0.430708068,-0.23210379219999996,9.8440721764,-0.42000000000000004,-1.9600000000000002,-2.3800000000000003,-0.39050864832,-0.24287149389999999,9.828399188370001,-1.3160000000000003,-1.7990000000000002,-2.376500000000001
1.95578124299999,-0.36610185780000004,-0.23928225999999997,9.858429112,-0.21000000000000002,-1.6800000000000002,-2.24,-0.38967116041,-0.24287149389999999,9.830313446450003,-1.3055,-1.8025000000000002,-2.3695000000000013
1.9634752739999612,-0.38045879339999994,-0.26321048599999997,9.834500885999999,-0.35000000000000003,-1.8200000000000003,-2.31,-0.38955151928,-0.24346969954999995,9.829954523060001,-1.2845000000000002,-1.8130000000000002,-2.359000000000001
1.9705573029999641,-0.40438701939999994,-0.25124637299999997,9.841679353799998,-0.42000000000000004,-1.6800000000000002,-2.24,-0.3890729547599999,-0.24406790519999996,9.83079201097,-1.2810000000000004,-1.8060000000000003,-2.359000000000001
1.9775523309999699,-0.41156548719999997,-0.24646072779999997,9.846464998999998,-0.42000000000000004,-1.61,-2.45,-0.3899104426699999,-0.24538395762999995,9.832466986790001,-1.2985000000000004,-1.7920000000000003,-2.359000000000001
1.9846043599999916,-0.3900300838,-0.2536391956,9.810572659999998,-0.49000000000000005,-1.6800000000000002,-2.1700000000000004,-0.3903890071899999,-0.24610180440999999,9.83222770453,-1.2845000000000004,-1.7850000000000001,-2.3555000000000006
1.9916333879999684,-0.4283152454,-0.2560320182,9.8201439504,-0.49000000000000005,-1.8200000000000003,-2.31,-0.3924229064,-0.24717857457999998,9.83174914001,-1.2880000000000005,-1.7815,-2.3520000000000003
1.998753416999989,-0.38763726119999997,-0.2560320182,9.841679353799998,-0.28,-1.8900000000000001,-2.24,-0.39218362413999996,-0.24753749796999994,9.83306519244,-1.2880000000000005,-1.7955,-2.3555
2.0056944449999605,-0.38763726119999997,-0.24885355039999998,9.822536773,-0.56,-1.9600000000000002,-2.31,-0.39266218866,-0.24813570361999998,9.83282591018,-1.2950000000000004,-1.8025000000000002,-2.341500000000001
2.0126534730000003,-0.39720855159999996,-0.24167508259999998,9.841679353799998,-0.21000000000000002,-1.54,-2.24,-0.39278182979,-0.24705893344999996,9.83426160374,-1.3020000000000003,-1.7920000000000003,-2.338
2.0196915020000006,-0.38524443859999996,-0.2536391956,9.812965482600001,-0.35000000000000003,-1.61,-2.3800000000000003,-0.39206398301,-0.24765713909999998,9.833902680349999,-1.3020000000000005,-1.7815,-2.3310000000000004
2.0266975299999785,-0.3613162126,-0.24167508259999998,9.836893708599998,-0.42000000000000004,-1.7500000000000002,-2.5200000000000005,-0.39026936606,-0.24681965118999996,9.833783039219998,-1.2985000000000004,-1.778,-2.3345000000000007
2.0337645589999624,-0.36849468039999994,-0.24167508259999998,9.839286531199999,-0.28,-1.8900000000000001,-2.66,-0.38967116041,-0.24729821570999994,9.83474016826,-1.2915000000000005,-1.7815,-2.345
2.040914587999964,-0.38285161599999995,-0.2584248408,9.8632147572,-0.35000000000000003,-2.24,-2.3800000000000003,-0.38919259589000005,-0.24777678022999994,9.83605622069,-1.2810000000000006,-1.8025000000000002,-2.3520000000000008
2.0479836160000104,-0.41635113239999993,-0.25124637299999997,9.836893708599998,-0.56,-1.6800000000000002,-2.3800000000000003,-0.39038900719,-0.24849462700999997,9.83701334973,-1.2775000000000005,-1.7955,-2.359000000000001
2.05521364599997,-0.3900300838,-0.2656033086,9.836893708599998,-0.49000000000000005,-1.6800000000000002,-2.45,-0.39014972493,-0.24945175604999997,9.83737227312,-1.2775000000000003,-1.778,-2.3590000000000004
2.0622316739999746,-0.39242290639999994,-0.23449661479999998,9.8273224182,-0.42000000000000004,-1.7500000000000002,-2.31,-0.38967116041,-0.24909283266,9.83773119651,-1.2740000000000005,-1.7745000000000002,-2.352000000000001
2.0693397029999687,-0.39720855159999996,-0.2608176634,9.8440721764,-0.28,-1.61,-2.45,-0.39062828945000005,-0.25088744961000004,9.837731196510001,-0.392,-1.7675,-2.3590000000000004
2.0763307309999846,-0.3780659708,-0.24406790519999996,9.834500885999999,-0.28,-1.8900000000000001,-2.45,-0.39206398301,-0.24981067943999996,9.8368937086,-0.378,-1.7745000000000002,-2.3660000000000005
2.083426760000009,-0.39481572899999995,-0.2536391956,9.8440721764,-0.42000000000000004,-1.8200000000000003,-2.5900000000000003,-0.39254254753,-0.24969103831,9.836893708600002,-0.38500000000000006,-1.778,-2.3730000000000007
2.090402788000006,-0.36849468039999994,-0.2536391956,9.846464998999998,-0.42000000000000004,-1.8200000000000003,-2.45,-0.38943187815,-0.25076780847999997,9.83701334973,-0.38500000000000006,-1.7710000000000001,-2.376500000000001
2.097546816999966,-0.3780659708,-0.26321048599999997,9.8632147572,-0.42000000000000004,-1.7500000000000002,-2.3800000000000003,-0.3900300838,-0.25196421977999994,9.837252631990001,-0.3955,-1.7745000000000002,-2.3835000000000006
2.104487844999994,-0.38524443859999996,-0.25124637299999997,9.822536773,-0.6300000000000001,-1.7500000000000002,-2.3800000000000003,-0.39026936605999996,-0.25136601413,9.83665442634,-0.4095000000000001,-1.7710000000000001,-2.387000000000001
2.111541874000011,-0.38524443859999996,-0.23210379219999996,9.8201439504,-0.6300000000000001,-1.54,-2.3800000000000003,-0.38931223702,-0.25040888509000003,9.835577656169999,-0.42000000000000004,-1.764,-2.394000000000001
2.1186829029999785,-0.39960137419999997,-0.2225325018,9.8201439504,-0.56,-1.6800000000000002,-2.3800000000000003,-0.38871403137,-0.24921247378999997,9.83426160374,-0.42700000000000005,-1.7675,-2.3905000000000007
2.125672930999997,-0.38524443859999996,-0.23688943739999999,9.839286531199999,-0.21000000000000002,-1.8200000000000003,-2.3800000000000003,-0.38847474911,-0.24837498588,9.8356972973,-0.4130000000000001,-1.7745000000000002,-2.4010000000000007
2.1328029599999923,-0.40677984199999995,-0.2584248408,9.829715240799999,-0.77,-1.6800000000000002,-2.45,-0.38739797894,-0.24849462701,9.83617586182,-0.42700000000000005,-1.7675,-2.4080000000000004
2.139860988999999,-0.40917266459999996,-0.22492532440000002,9.8249295956,-0.28,-1.54,-2.5900000000000003,-0.38847474910999996,-0.24693929232,9.83533837391,-0.42699999999999994,-1.75,-2.425500000000001
2.1468130169999995,-0.40917266459999996,-0.2584248408,9.8440721764,-0.42000000000000004,-1.61,-2.3800000000000003,-0.38955151927999987,-0.24741785683999998,9.83641514408,-0.4200000000000001,-1.7325,-2.4290000000000007
2.153930045999971,-0.40677984199999995,-0.24406790519999996,9.822536773,-0.42000000000000004,-2.1,-2.3800000000000003,-0.3900300837999999,-0.24753749796999996,9.83545801504,-0.43050000000000005,-1.7605,-2.436000000000001
2.160973073999969,-0.40438701939999994,-0.23688943739999999,9.829715240799999,-0.07,-1.61,-2.24,-0.3909872128399999,-0.24670001005999995,9.83629550295,-0.4165000000000001,-1.7605,-2.4290000000000007
2.1680431030000022,-0.39242290639999994,-0.25124637299999997,9.870393224999999,-17.64,-1.7500000000000002,-2.31,-0.39254254752999984,-0.24717857457999998,9.837970478769998,-1.2775,-1.7605,-2.4185000000000008
2.1751301319999925,-0.39242290639999994,-0.24885355039999998,9.8321080634,0.0,-1.8900000000000001,-2.24,-0.3937389588299999,-0.24753749796999996,9.837611555379999,-1.2635,-1.7605,-2.3975000000000004
2.1821591599999692,-0.39242290639999994,-0.2560320182,9.8632147572,-0.56,-1.8900000000000001,-2.3800000000000003,-0.39421752334999993,-0.24741785683999992,9.837611555379999,-1.274,-1.7429999999999999,-2.3975000000000004
2.189232188999995,-0.38524443859999996,-0.24646072779999997,9.834500885999999,-0.49000000000000005,-1.61,-2.5200000000000005,-0.39266218865999997,-0.24717857457999998,9.837491914249998,-1.2705,-1.7395,-2.4045000000000005
2.196262216999969,-0.4139583098,-0.25124637299999997,9.834500885999999,-0.49000000000000005,-2.1,-2.31,-0.39385859995999994,-0.2464607278,9.83737227312,-1.2704999999999997,-1.7605,-2.3975000000000004
2.2033002459999693,-0.3780659708,-0.24406790519999996,9.8273224182,-0.56,-1.8200000000000003,-2.45,-0.39314075317999997,-0.24693929231999992,9.83737227312,-1.2774999999999999,-1.764,-2.4045000000000005
2.210220273999994,-0.40917266459999996,-0.24885355039999998,9.851250644199999,-0.49000000000000005,-1.7500000000000002,-2.3800000000000003,-0.39373895882999993,-0.24634108666999993,9.837731196510001,-1.2879999999999998,-1.7710000000000001,-2.4010000000000007
2.217286301999991,-0.36370903520000003,-0.2536391956,9.834500885999999,-0.21000000000000002,-1.7500000000000002,-2.45,-0.39302111204999995,-0.24681965118999996,9.837731196510001,-1.2844999999999998,-1.764,-2.4010000000000007
2.224388331,-0.39720855159999996,-0.24406790519999996,9.853643466800001,-0.6300000000000001,-1.54,-2.3800000000000003,-0.39314075317999997,-0.24634108666999993,9.83820976103,-1.2949999999999997,-1.7500000000000004,-2.3905000000000007
2.2320863619999614,-0.38763726119999997,-0.26321048599999997,9.8177511278,-0.35000000000000003,-1.6800000000000002,-2.31,-0.39409788222,-0.24681965118999996,9.83677406747,-1.2914999999999996,-1.7430000000000003,-2.3835000000000006
2.2391813909999883,-0.4019941968,-0.24167508259999998,9.8201439504,-0.14,-1.61,-2.3800000000000003,-0.39529429352,-0.24574288101999997,9.83462052713,-1.2774999999999996,-1.7360000000000002,-2.3835000000000006
2.246248419999972,-0.40677984199999995,-0.23928225999999997,9.8177511278,-0.35000000000000003,-1.6800000000000002,-2.24,-0.3963710636899999,-0.2451446753699999,9.83438124487,-1.2634999999999998,-1.7325,-2.3765000000000005
2.2532744479999565,-0.3900300838,-0.23449661479999998,9.8153583052,0.0,-1.61,-2.1700000000000004,-0.39661034594999994,-0.2452643165,9.83414196261,-1.2319999999999998,-1.736,-2.3660000000000005
2.2602784769999857,-0.40917266459999996,-0.2536391956,9.858429112,-0.42000000000000004,-1.9600000000000002,-2.5900000000000003,-0.39708891046999995,-0.24681965119,9.836056220689999,-1.225,-1.7500000000000004,-2.3765000000000005
2.2673295049999638,-0.38285161599999995,-0.24167508259999998,9.8273224182,-0.21000000000000002,-2.0300000000000002,-2.3800000000000003,-0.39696926933999993,-0.24705893344999996,9.835458015039999,-1.225,-1.7605,-2.376500000000001
2.2743575339999893,-0.39720855159999996,-0.2536391956,9.839286531199999,-0.28,-1.61,-2.31,-0.39649070482,-0.24681965118999996,9.835936579559998,-1.2005000000000001,-1.7570000000000001,-2.369500000000001
2.281393562000005,-0.35413774480000004,-0.24406790519999996,9.812965482600001,0.0,-2.1,-2.7300000000000004,-0.39373895882999993,-0.24777678022999994,9.835338373909998,-1.1865,-1.7850000000000001,-2.376500000000001
2.2885015909999993,-0.38045879339999994,-0.25124637299999997,9.841679353799998,-0.21000000000000002,-1.7500000000000002,-2.24,-0.3923032652699999,-0.24741785683999992,9.835218732779998,-1.176,-1.7919999999999998,-2.3695000000000004
2.295612619999986,-0.3780659708,-0.24646072779999997,9.8273224182,-0.42000000000000004,-1.6800000000000002,-2.31,-0.3908675717099999,-0.24753749796999994,9.835458015039999,-1.1760000000000002,-1.7710000000000001,-2.3660000000000005
2.3026266480000004,-0.39960137419999997,-0.2536391956,9.877571692799998,-0.07,-1.54,-2.24,-0.39062828944999994,-0.24837498587999995,9.837850837639998,-1.1760000000000002,-1.7675,-2.366000000000001
2.309522675999972,-0.39242290639999994,-0.24646072779999997,9.829715240799999,-0.21000000000000002,-1.61,-2.24,-0.39062828944999994,-0.24813570361999995,9.835816938429998,-0.30450000000000005,-1.7605,-2.3625000000000003
2.3165997049999874,-0.3613162126,-0.2560320182,9.8440721764,0.07,-1.6800000000000002,-2.31,-0.38907295476000003,-0.24849462700999997,9.836415144079997,-0.30100000000000005,-1.75,-2.3660000000000005
2.323553732999983,-0.40438701939999994,-0.23928225999999997,9.882357337999998,-0.28,-1.61,-2.3800000000000003,-0.38967116041,-0.24765713909999992,9.83737227312,-0.28700000000000003,-1.736,-2.3660000000000005
2.3305607609999583,-0.39481572899999995,-0.2608176634,9.8608219346,-0.14,-1.7500000000000002,-2.1,-0.39014972493,-0.24837498588,9.838688325549999,-0.26949999999999996,-1.7429999999999999,-2.3450000000000006
2.3375987899999586,-0.38045879339999994,-0.24406790519999996,9.8249295956,-0.8400000000000001,-1.7500000000000002,-2.24,-0.38847474910999996,-0.24801606248999994,9.838209761029999,-0.28700000000000003,-1.7254999999999998,-2.341500000000001
2.3446538179999834,-0.39960137419999997,-0.23688943739999999,9.8201439504,-0.21000000000000002,-1.7500000000000002,-2.31,-0.38955151928,-0.24765713909999998,9.83785083764,-0.26949999999999996,-1.722,-2.3345000000000007
2.35167084699998,-0.38524443859999996,-0.22971096959999998,9.8273224182,0.07,-1.4000000000000001,-2.31,-0.38835510797999995,-0.24670001006,9.83665442634,-0.2415,-1.7045000000000001,-2.3310000000000004
2.3586398749999944,-0.38763726119999997,-0.24167508259999998,9.822536773,-0.42000000000000004,-1.8900000000000001,-2.31,-0.38955151928,-0.24610180440999999,9.83605622069,-0.252,-1.7114999999999998,-2.3240000000000007
2.365688903999967,-0.39481572899999995,-0.2584248408,9.839286531199999,-0.42000000000000004,-1.4700000000000002,-2.31,-0.38943187815,-0.24681965119,9.835338373910002,-0.24150000000000005,-1.7079999999999997,-2.3205000000000005
2.3728299329999913,-0.38763726119999997,-0.25124637299999997,9.834500885999999,-0.28,-1.61,-2.24,-0.38943187815,-0.24622144553999997,9.83617586182,-0.23800000000000007,-1.7045,-2.317000000000001
2.3798849609999593,-0.36849468039999994,-0.2584248408,9.8919286284,-0.07,-1.61,-2.24,-0.38775690232999993,-0.24705893345000002,9.83976509572,-0.2345000000000001,-1.7045,-2.310000000000001
2.386875988999975,-0.4019941968,-0.25124637299999997,9.8440721764,0.07,-1.8200000000000003,-2.45,-0.3875176200699999,-0.24765713909999998,9.84108114815,-0.21350000000000002,-1.7114999999999998,-2.320500000000001
2.3940500189999625,-0.38045879339999994,-0.2679961312,9.841679353799998,-0.28,-1.54,-2.1700000000000004,-0.38703905554999996,-0.24933211492000001,9.842397200579999,-0.22750000000000004,-1.7079999999999997,-2.320500000000001
2.401115046999962,-0.4019941968,-0.24406790519999996,9.853643466800001,-0.07,-1.54,-2.31,-0.3866801321599999,-0.24885355039999996,9.84215791832,-0.21000000000000002,-1.6869999999999998,-2.3065000000000007
2.408032074999994,-0.38763726119999997,-0.2775674216,9.8177511278,-0.21000000000000002,-1.61,-2.31,-0.38691941441999994,-0.25064816734999995,9.841679353799998,-0.21000000000000002,-1.6659999999999997,-2.3030000000000004
2.415288105000002,-0.39242290639999994,-0.23928225999999997,9.8201439504,-0.77,-1.8900000000000001,-2.31,-0.3866801321599999,-0.24993032056999995,9.840722224759999,-0.23450000000000001,-1.6799999999999997,-2.303000000000001
2.4223931329999573,-0.37328032559999996,-0.2703889538,9.8201439504,-0.49000000000000005,-2.0300000000000002,-2.31,-0.3876372611999999,-0.25124637299999997,9.84108114815,-0.259,-1.6764999999999997,-2.282000000000001
2.429517161999968,-0.39720855159999996,-0.24885355039999998,9.829715240799999,-0.28,-1.7500000000000002,-2.31,-0.3884747491099999,-0.25112673186999995,9.8404829425,-0.26250000000000007,-1.6765,-2.2855000000000003
2.436557190999963,-0.38763726119999997,-0.24406790519999996,9.836893708599998,-0.42000000000000004,-1.6800000000000002,-2.31,-0.38895331362999996,-0.25100709074,9.84096150702,-0.26250000000000007,-1.6765,-2.2855000000000008
2.4435842190000017,-0.38524443859999996,-0.23210379219999996,9.839286531199999,-0.56,-1.61,-2.1700000000000004,-0.38823546685,-0.24993032057,9.83904724894,-0.28700000000000003,-1.6800000000000002,-2.282000000000001
2.450693247999993,-0.3756731482,-0.23928225999999997,9.8249295956,0.07,-1.7500000000000002,-2.45,-0.38739797893999994,-0.24957139718,9.83880796668,-0.273,-1.687,-2.292500000000001
2.4576512759999787,-0.4139583098,-0.23210379219999996,9.822536773,-0.28,-1.8200000000000003,-2.24,-0.3900300838,-0.24837498588000004,9.83773119651,-0.2905000000000001,-1.6940000000000002,-2.2890000000000006
2.4647443050000106,-0.4139583098,-0.24406790519999996,9.8440721764,-0.35000000000000003,-2.0300000000000002,-2.24,-0.39050864832,-0.24861426813999996,9.83581693843,-0.294,-1.7149999999999999,-2.2820000000000005
2.4716943329999594,-0.35892339,-0.2584248408,9.858429112,-0.21000000000000002,-2.0300000000000002,-2.1700000000000004,-0.38871403137,-0.24849462701,9.8356972973,-0.2975,-1.7289999999999999,-2.2855000000000008
2.478882361999979,-0.3780659708,-0.24167508259999998,9.8177511278,0.07,-1.6800000000000002,-2.24,-0.38859439024,-0.24837498587999995,9.83533837391,-0.25199999999999995,-1.7254999999999998,-2.2855000000000003
2.4860133909999718,-0.41874395499999995,-0.22971096959999998,9.8751788702,-0.7000000000000001,-1.8200000000000003,-2.24,-0.38955151928,-0.24801606248999994,9.838090119899999,-0.2765,-1.7290000000000003,-2.2820000000000005
2.4930524199999695,-0.3900300838,-0.24885355039999998,9.834500885999999,-0.28,-1.7500000000000002,-2.3800000000000003,-0.38979080154,-0.24897319152999992,9.83844904329,-0.29400000000000004,-1.7465000000000004,-2.2855000000000003
2.5001904490000015,-0.36610185780000004,-0.2703889538,9.839286531199999,-0.14,-1.8900000000000001,-2.3800000000000003,-0.38871403137,-0.2504088850899999,9.839286531199999,-0.28,-1.7465000000000004,-2.2890000000000006
2.507691478999959,-0.3756731482,-0.2584248408,9.836893708599998,-0.35000000000000003,-1.7500000000000002,-2.31,-0.38775690232999993,-0.25040888509,9.83916689007,-0.2765,-1.7605,-2.2890000000000006
2.51473350699996,-0.39960137419999997,-0.23928225999999997,9.8201439504,-0.07,-1.61,-2.5200000000000005,-0.38835510798,-0.24981067944,9.83844904329,-0.266,-1.7605000000000004,-2.303000000000001
2.5218005360000006,-0.39960137419999997,-0.24406790519999996,9.846464998999998,0.0,-1.6800000000000002,-2.3800000000000003,-0.38991044267,-0.24909283265999999,9.83617586182,-0.26250000000000007,-1.764,-2.3100000000000014
2.528823564999982,-0.37088750299999995,-0.2775674216,9.846464998999998,-0.35000000000000003,-1.7500000000000002,-2.31,-0.38835510797999995,-0.2504088850899999,9.83629550295,-0.2835,-1.7605,-2.3030000000000013
2.5362865949999787,-0.3780659708,-0.23928225999999997,9.8632147572,-0.35000000000000003,-1.61,-2.24,-0.38823546684999993,-0.24897319152999992,9.83737227312,-0.28700000000000003,-1.764,-2.3065000000000007
2.543435623999983,-0.40677984199999995,-0.26321048599999997,9.841679353799998,-0.56,-1.8900000000000001,-2.1,-0.3884747491099999,-0.24993032056999995,9.83677406747,-0.3115,-1.7815,-2.296000000000001
2.5504606519999697,-0.4019941968,-0.22013967919999997,9.8321080634,-17.92,-1.6800000000000002,-2.45,-0.38919259588999994,-0.24705893345000002,9.83749191425,-1.197,-1.7850000000000001,-2.3030000000000013
2.5605096929999718,-0.39242290639999994,-0.24406790519999996,9.870393224999999,-0.8400000000000001,-1.8200000000000003,-2.45,-0.38919259588999994,-0.24729821571000002,9.84000437798,-1.2005000000000001,-1.7815,-2.310000000000001
2.56758572199999,-0.37328032559999996,-0.2584248408,9.851250644199999,-0.21000000000000002,-1.7500000000000002,-2.24,-0.38919259588999994,-0.24670001005999995,9.841559712670001,-1.1865,-1.7675,-2.3065000000000007
2.574613749999969,-0.41635113239999993,-0.24646072779999997,9.870393224999999,-0.49000000000000005,-1.9600000000000002,-2.31,-0.39014972492999994,-0.24658036892999996,9.84359361188,-1.197,-1.778,-2.3065000000000007
2.581697778999967,-0.38285161599999995,-0.23688943739999999,9.822536773,-0.35000000000000003,-1.61,-2.31,-0.3899104426699999,-0.24622144553999997,9.8428757651,-1.1935000000000002,-1.7745000000000002,-2.3065000000000007
2.5888178079999875,-0.39960137419999997,-0.23688943739999999,9.8440721764,-0.21000000000000002,-1.7500000000000002,-2.31,-0.39062828944999994,-0.2464607278,9.843115047359998,-1.1760000000000002,-1.7815,-2.313500000000001
2.5958108359999983,-0.38285161599999995,-0.24167508259999998,9.841679353799998,-0.56,-1.6800000000000002,-2.3800000000000003,-0.39098721283999993,-0.24658036893000004,9.843952535269999,-1.2075,-1.778,-2.310000000000001
2.6029618649999975,-0.38524443859999996,-0.26321048599999997,9.822536773,-0.21000000000000002,-1.9600000000000002,-2.5900000000000003,-0.38955151928,-0.24813570362000004,9.84395253527,-1.2040000000000002,-1.7850000000000001,-2.327500000000001
2.6100028930000008,-0.3565305674,-0.24406790519999996,9.846464998999998,-0.21000000000000002,-1.54,-2.31,-0.38668013216,-0.24813570361999995,9.844072176400001,-1.1970000000000003,-1.7605,-2.331000000000001
2.6170399220000036,-0.40438701939999994,-0.22971096959999998,9.822536773,-0.49000000000000005,-1.61,-2.0300000000000002,-0.38895331362999996,-0.24670001005999995,9.84227755945,-1.211,-1.7395,-2.3240000000000007
2.624052949999964,-0.36370903520000003,-0.2608176634,9.8201439504,-0.49000000000000005,-1.8900000000000001,-2.3800000000000003,-0.38823546685,-0.24765713909999998,9.842397200579999,-1.239,-1.75,-2.331000000000001
2.631075979000002,-0.39960137419999997,-0.24406790519999996,9.8249295956,-0.07,-1.6800000000000002,-2.24,-0.38727833780999993,-0.24837498587999995,9.83988473685,-1.2075,-1.7429999999999999,-2.331000000000001
2.6381180070000028,-0.41874395499999995,-0.24646072779999997,9.8727860476,-17.71,-1.7500000000000002,-2.5200000000000005,-0.38871403137,-0.24825534474999994,9.841798994929999,-2.0789999999999997,-1.7430000000000003,-2.3380000000000005
2.6452830359999666,-0.3780659708,-0.25124637299999997,9.841679353799998,0.07,-1.6800000000000002,-2.1700000000000004,-0.38931223701999995,-0.24729821570999994,9.841918636059999,-2.0685,-1.7325,-2.3275000000000006
2.6524160650000113,-0.40438701939999994,-0.22492532440000002,9.834500885999999,-0.21000000000000002,-1.8200000000000003,-2.45,-0.39074793058,-0.24562323988999996,9.841798994929999,-2.0615,-1.7360000000000002,-2.3345000000000002
2.6594670939999787,-0.38763726119999997,-0.2536391956,9.8560362894,-0.35000000000000003,-1.8200000000000003,-2.31,-0.39014972492999994,-0.24634108667,9.84359361188,-2.0755000000000003,-1.7465,-2.3240000000000007
2.666467121999972,-0.38045879339999994,-0.24646072779999997,9.848857821599998,-0.7000000000000001,-1.61,-2.24,-0.38919259588999994,-0.2464607278,9.843713253009998,-2.1105000000000005,-1.7429999999999999,-2.3170000000000006
2.6734781509999834,-0.3756731482,-0.2225325018,9.834500885999999,-0.28,-1.7500000000000002,-2.3800000000000003,-0.3894318781499999,-0.24370898181,9.84311504736,-2.107,-1.7429999999999999,-2.3205000000000005
2.6804861789999563,-0.3900300838,-0.25124637299999997,9.8727860476,-0.42000000000000004,-1.4700000000000002,-2.3800000000000003,-0.39003008380000004,-0.24430718746000002,9.84359361188,-2.1105000000000005,-1.736,-2.327500000000001
2.687502206999966,-0.37328032559999996,-0.23210379219999996,9.839286531199999,-0.21000000000000002,-1.7500000000000002,-2.45,-0.38835510797999995,-0.24275185277000003,9.843473970749999,-2.093000000000001,-1.7289999999999999,-2.3450000000000006
2.6945642359999624,-0.3780659708,-0.23449661479999998,9.865607579799999,-0.42000000000000004,-1.8900000000000001,-2.1700000000000004,-0.3871586966799999,-0.24346969955000003,9.845148946569998,-1.2180000000000004,-1.7395,-2.331000000000001
2.7016642639999873,-0.38763726119999997,-0.2608176634,9.839286531199999,-0.56,-1.7500000000000002,-2.31,-0.38691941441999994,-0.24430718746000002,9.84359361188,-1.2040000000000002,-1.736,-2.3240000000000007
2.7087302919999843,-0.4139583098,-0.2177468566,9.8560362894,-0.21000000000000002,-1.61,-2.45,-0.38895331362999996,-0.24227328825,9.84383289414,-1.2040000000000004,-1.7289999999999999,-2.3345000000000007
2.71576632,-0.4139583098,-0.2727817764,9.836893708599998,-0.28,-1.6800000000000002,-2.24,-0.38883367249999995,-0.24358934068,9.842157918319998,-1.1935000000000004,-1.7150000000000003,-2.3310000000000004
2.7228013469999723,-0.39720855159999996,-0.24406790519999996,9.839286531199999,-0.07,-1.54,-2.31,-0.38955151928,-0.24394826406999998,9.84299540623,-1.1795000000000004,-1.7114999999999998,-2.3310000000000004
2.7298763750000035,-0.39481572899999995,-0.23928225999999997,9.8249295956,-0.49000000000000005,-1.8200000000000003,-2.31,-0.38931223702,-0.24406790519999993,9.84203827719,-1.1935000000000004,-1.7149999999999999,-2.331000000000001
2.7369104029999676,-0.39481572899999995,-0.24646072779999997,9.8632147572,-0.14,-1.54,-2.3800000000000003,-0.38991044267,-0.24430718745999988,9.843115047360001,-1.1725000000000003,-1.7079999999999997,-2.3310000000000004
2.7439434300000016,-0.38763726119999997,-0.23688943739999999,9.8440721764,-0.21000000000000002,-1.6800000000000002,-2.45,-0.39003008380000004,-0.24299113502999997,9.84419181753,-1.1725000000000005,-1.6940000000000002,-2.3240000000000007
2.7511054579999836,-0.38763726119999997,-0.24167508259999998,9.8201439504,-0.14,-1.61,-2.24,-0.39158541849,-0.24287149389999999,9.8428757651,-1.1690000000000005,-1.6974999999999998,-2.320500000000001
2.7581044859999793,-0.4019941968,-0.24885355039999998,9.822536773,-0.21000000000000002,-1.7500000000000002,-2.31,-0.39146577736000004,-0.24382862293999996,9.8428757651,-1.1550000000000005,-1.7045000000000001,-2.3345000000000007
2.7652695140000105,-0.41156548719999997,-0.2584248408,9.851250644199999,-0.21000000000000002,-1.7500000000000002,-2.1700000000000004,-0.39385859996,-0.24370898180999995,9.84443109979,-1.1410000000000005,-1.6975000000000002,-2.3240000000000007
2.772300540999993,-0.3780659708,-0.22013967919999997,9.8273224182,-0.7000000000000001,-1.6800000000000002,-2.1700000000000004,-0.39278182979,-0.24251257050999997,9.84455074092,-1.1725000000000005,-1.6975000000000002,-2.3205000000000005
2.77993557100001,-0.3780659708,-0.25124637299999997,9.834500885999999,-0.07,-1.6800000000000002,-2.1700000000000004,-0.39074793058,-0.24275185276999997,9.84263648284,-0.2905,-1.6940000000000002,-2.303000000000001
2.7870665989999566,-0.39960137419999997,-0.23928225999999997,9.882357337999998,-0.14,-1.7500000000000002,-2.1700000000000004,-0.39182470075,-0.24215364711999995,9.84467038205,-0.301,-1.6975000000000002,-2.3030000000000004
2.7941026269999725,-0.3900300838,-0.24406790519999996,9.8680004024,-0.28,-1.7500000000000002,-2.5200000000000005,-0.39110685397,-0.24311077616,9.846345357869998,-0.3045,-1.6940000000000002,-2.3065000000000007
2.801165654999977,-0.3900300838,-0.2536391956,9.829715240799999,-0.21000000000000002,-1.8200000000000003,-2.1,-0.3912264950999999,-0.24311077616,9.845029305439999,-0.2975,-1.6940000000000002,-2.2960000000000007
2.808110682000006,-0.39960137419999997,-0.23688943739999999,9.8273224182,-0.35000000000000003,-1.8200000000000003,-2.31,-0.39218362413999996,-0.24263221163999998,9.843952535269999,-0.27999999999999997,-1.7045,-2.2995000000000005
2.815422710000007,-0.38524443859999996,-0.24885355039999998,9.841679353799998,-0.35000000000000003,-1.8900000000000001,-2.24,-0.3926621886599999,-0.24394826406999998,9.844311458659998,-0.2835,-1.7115000000000002,-2.2925000000000004
2.8225087380000105,-0.39960137419999997,-0.22971096959999998,9.848857821599998,-0.49000000000000005,-1.7500000000000002,-2.1700000000000004,-0.39314075317999997,-0.24287149389999999,9.843115047359998,-0.28700000000000003,-1.7254999999999998,-2.282000000000001
2.8295767660000024,-0.37088750299999995,-0.24646072779999997,9.853643466800001,-0.28,-1.6800000000000002,-2.3800000000000003,-0.39302111204999995,-0.24358934067999996,9.843832894139998,-0.29050000000000004,-1.7220000000000002,-2.2785000000000006
2.8366357939999602,-0.38763726119999997,-0.22971096959999998,9.836893708599998,-0.21000000000000002,-1.7500000000000002,-2.31,-0.39349967656999996,-0.24335005842,9.842397200579999,-0.27999999999999997,-1.7150000000000003,-2.285500000000001
2.8437058209999577,-0.3756731482,-0.26321048599999997,9.848857821599998,-0.21000000000000002,-1.61,-2.45,-0.39290147091999994,-0.24346969954999995,9.8428757651,-0.26250000000000007,-1.7080000000000002,-2.2925000000000013
2.8508458489999953,-0.36610185780000004,-0.24167508259999998,9.841679353799998,0.21000000000000002,-1.54,-2.24,-0.39050864832,-0.24466611084999998,9.842157918320002,-0.24150000000000005,-1.7045000000000001,-2.282000000000001
2.857930877000001,-0.41874395499999995,-0.24646072779999997,9.848857821599998,-0.07,-1.6800000000000002,-2.1700000000000004,-0.39074793058,-0.24335005841999996,9.84275612397,-0.23100000000000004,-1.7045000000000001,-2.278500000000001
2.8649419049999665,-0.4019941968,-0.2584248408,9.829715240799999,-0.14,-1.54,-2.31,-0.39098721283999993,-0.24406790519999996,9.84227755945,-0.23450000000000001,-1.7045000000000001,-2.278500000000001
2.8719789319999904,-0.3565305674,-0.24167508259999998,9.8321080634,-0.49000000000000005,-1.54,-2.1700000000000004,-0.38907295476,-0.24418754632999992,9.84263648284,-0.23450000000000007,-1.6904999999999997,-2.2715000000000005
2.879098959999965,-0.38524443859999996,-0.26321048599999997,9.8608219346,-0.42000000000000004,-1.61,-2.1700000000000004,-0.38859439024000003,-0.24502503424,9.842516841710001,-0.24850000000000003,-1.6939999999999997,-2.2610000000000006
2.8861189879999642,-0.40677984199999995,-0.24167508259999998,9.8799645154,0.14,-2.0300000000000002,-2.24,-0.38955151928,-0.24526431649999997,9.84431145866,-0.23100000000000004,-1.7114999999999998,-2.2505
2.893115014999978,-0.38285161599999995,-0.24885355039999998,9.8440721764,-0.28,-1.7500000000000002,-2.5200000000000005,-0.38931223702,-0.24562323988999996,9.845507869959999,-0.23800000000000004,-1.7185,-2.264500000000001
2.90027704299996,-0.38285161599999995,-0.23449661479999998,9.8608219346,0.0,-1.7500000000000002,-2.31,-0.38835510797999995,-0.24490539310999998,9.84742212804,-0.22750000000000004,-1.7185000000000001,-2.264500000000001
2.9071490700000027,-0.40677984199999995,-0.22492532440000002,9.853643466800001,-0.77,-1.61,-2.1,-0.38811582572,-0.24323041729,9.84754176917,-0.25550000000000006,-1.7114999999999998,-2.261
2.914237098000001,-0.3780659708,-0.22013967919999997,9.841679353799998,-0.28,-1.54,-2.24,-0.38811582572,-0.24323041729,9.84825961595,-0.23450000000000001,-1.7045,-2.264500000000001
2.9212451249999845,-0.38763726119999997,-0.24646072779999997,9.834500885999999,-0.35000000000000003,-1.7500000000000002,-2.45,-0.3885943902399999,-0.24299113502999994,9.84825961595,-0.2485,-1.7079999999999997,-2.2785000000000006
2.9282581530000016,-0.3900300838,-0.22013967919999997,9.836893708599998,-0.14,-2.0300000000000002,-2.5200000000000005,-0.38811582572,-0.24203400598999997,9.84598643448,-0.24850000000000003,-1.722,-2.2960000000000007
2.935402180999972,-0.38763726119999997,-0.24885355039999998,9.851250644199999,-0.42000000000000004,-1.8200000000000003,-2.24,-0.38799618458999996,-0.24227328824999997,9.845148946570001,-0.25549999999999995,-1.7254999999999998,-2.282000000000001
2.9424522079999633,-0.3900300838,-0.24167508259999998,9.858429112,-0.28,-1.8200000000000003,-2.31,-0.38799618459,-0.2416750825999999,9.84658464013,-0.259,-1.7254999999999998,-2.292500000000001
2.949483235999992,-0.3780659708,-0.2536391956,9.8680004024,-0.35000000000000003,-1.6800000000000002,-2.24,-0.38691941442,-0.24251257050999997,9.84861853934,-0.259,-1.7185,-2.2890000000000006
2.9564892629999804,-0.38285161599999995,-0.2679961312,9.834500885999999,-0.42000000000000004,-1.61,-2.31,-0.38679977329,-0.24346969955,9.848259615950003,-0.2625,-1.7045000000000001,-2.2925000000000013
2.96346029099999,-0.40438701939999994,-0.2727817764,9.894321451,-0.77,-1.8200000000000003,-2.24,-0.38703905554999996,-0.24562323988999993,9.850532797420001,-0.2765000000000001,-1.7080000000000002,-2.296000000000001
2.9705113179999785,-0.44985064880000003,-0.24167508259999998,9.8440721764,-0.28,-1.8900000000000001,-2.1,-0.39098721283999993,-0.24538395762999995,9.850054232900002,-0.2765,-1.7185000000000001,-2.282000000000001
2.9775043459999893,-0.39960137419999997,-0.23210379219999996,9.865607579799999,0.0,-1.6800000000000002,-2.3800000000000003,-0.39158541848999995,-0.24550359876,9.851489926460001,-0.26600000000000007,-1.7149999999999999,-2.2855000000000008
2.98455437399997,-0.38763726119999997,-0.23210379219999996,9.8440721764,-0.42000000000000004,-1.6800000000000002,-2.31,-0.39218362413999996,-0.24394826407,9.851250644199999,-0.2765000000000001,-1.7185000000000001,-2.2785
2.9915914009999938,-0.4019941968,-0.23449661479999998,9.8560362894,-0.42000000000000004,-1.7500000000000002,-2.1,-0.3939782410899999,-0.24358934068,9.851968490980001,-0.30800000000000005,-1.7290000000000003,-2.2715000000000005
2.998722428999997,-0.38285161599999995,-0.2584248408,9.8680004024,-0.07,-1.8900000000000001,-2.45,-0.39218362413999996,-0.24418754633,9.852925620019999,-0.30800000000000005,-1.7395000000000003,-2.2855000000000008
3.0057064559999844,-0.40438701939999994,-0.24885355039999998,9.8608219346,-17.85,-1.8200000000000003,-2.24,-0.3923032652699999,-0.24370898180999995,9.85448095471,-1.1935000000000002,-1.7535,-2.2820000000000005
3.0127384840000104,-0.4019941968,-0.24167508259999998,9.858429112,0.21000000000000002,-1.6800000000000002,-2.3800000000000003,-0.3945764467399999,-0.24370898180999992,9.855797007140001,-1.1585,-1.7605,-2.2925000000000004
3.0198605119999797,-0.38285161599999995,-0.25124637299999997,9.8321080634,0.0,-1.7500000000000002,-2.3800000000000003,-0.39445680560999985,-0.2431107761599999,9.85436131358,-1.1375,-1.7675,-2.3030000000000004
3.0269385400000033,-0.38285161599999995,-0.23210379219999996,9.836893708599998,-0.56,-1.8200000000000003,-2.24,-0.3932603943099999,-0.24263221163999993,9.85220777324,-1.1724999999999999,-1.7570000000000001,-2.3030000000000004
3.0340035669999565,-0.39481572899999995,-0.24646072779999997,9.8440721764,-0.35000000000000003,-1.6800000000000002,-2.31,-0.39385859995999994,-0.24251257050999991,9.85220777324,-1.176,-1.7535,-2.292500000000001
3.041030594999995,-0.39481572899999995,-0.2679961312,9.846464998999998,-17.92,-1.7500000000000002,-2.1700000000000004,-0.39445680560999996,-0.24418754632999998,9.851489926460001,-2.072,-1.7535,-2.2855000000000003
3.0488526259999844,-0.4019941968,-0.24885355039999998,9.877571692799998,-0.28,-1.4700000000000002,-1.9600000000000002,-0.39421752334999993,-0.24538395762999995,9.852686337760002,-2.0475000000000003,-1.7465,-2.2785000000000006
3.055914653000002,-0.4019941968,-0.23210379219999996,9.877571692799998,-17.85,-1.6800000000000002,-2.45,-0.39541393464999997,-0.24598216327999994,9.85448095471,-2.926,-1.7535,-2.2890000000000006
3.0630556809999803,-0.41635113239999993,-0.2560320182,9.834500885999999,-0.28,-1.7500000000000002,-2.31,-0.3968496282099999,-0.2464607278,9.854480954709999,-2.9225000000000003,-1.7535,-2.2820000000000005
3.070078708999972,-0.39242290639999994,-0.23688943739999999,9.8680004024,0.14,-1.6800000000000002,-2.1700000000000004,-0.39696926933999993,-0.24729821571000002,9.856036289399999,-2.9085000000000005,-1.736,-2.264500000000001
3.0770777359999784,-0.38763726119999997,-0.2536391956,9.858429112,-0.42000000000000004,-1.8900000000000001,-2.24,-0.39696926934,-0.24753749796999996,9.85639521279,-2.9085000000000005,-1.7395,-2.2645000000000004
3.0841957639999578,-0.40677984199999995,-0.24646072779999997,9.865607579799999,-0.21000000000000002,-1.7500000000000002,-2.24,-0.39780675725,-0.24777678022999994,9.856754136179998,-2.9050000000000002,-1.736,-2.2610000000000006
3.0912187920000065,-0.41156548719999997,-0.23688943739999999,9.836893708599998,-0.42000000000000004,-1.61,-2.31,-0.39948173306999996,-0.24693929231999995,9.855198801489998,-2.9085000000000005,-1.7325,-2.264500000000001
3.0982338189999723,-0.40677984199999995,-0.25124637299999997,9.8321080634,-0.07,-1.7500000000000002,-2.31,-0.40067814436999993,-0.24610180440999999,9.855079160359997,-2.891000000000001,-1.7395,-2.264500000000001
3.105375847000005,-0.3900300838,-0.2584248408,9.834500885999999,-0.49000000000000005,-1.7500000000000002,-2.31,-0.39996029758999996,-0.24538395762999995,9.852088132110001,-2.8770000000000007,-1.736,-2.2680000000000002
3.1125348749999944,-0.38763726119999997,-0.2177468566,9.877571692799998,-0.42000000000000004,-1.8900000000000001,-2.1,-0.3968496282099999,-0.24418754632999998,9.85376310793,-2.884000000000001,-1.736,-2.2680000000000007
3.1196819029999574,-0.35892339,-0.22013967919999997,9.9038927414,-0.35000000000000003,-1.7500000000000002,-2.1700000000000004,-0.39481572899999995,-0.24358934067999996,9.855677366010001,-2.901500000000001,-1.7395,-2.2575000000000007
3.126684931,-0.39481572899999995,-0.23449661479999998,9.834500885999999,-0.28,-1.6800000000000002,-2.31,-0.39517465239,-0.24370898180999995,9.855198801490001,-2.8945000000000007,-1.7395000000000003,-2.257500000000001
3.1337209579999694,-0.3613162126,-0.2177468566,9.834500885999999,-0.56,-1.61,-2.31,-0.39314075318,-0.24287149389999999,9.85412203132,-2.9015000000000013,-1.7325000000000004,-2.2680000000000007
3.1408709859999817,-0.37088750299999995,-0.22492532440000002,9.8321080634,-0.42000000000000004,-1.6800000000000002,-2.24,-0.39254254752999995,-0.24119651807999998,9.852327414369999,-2.919000000000001,-1.7220000000000002,-2.2575000000000007
3.1479210139999623,-0.39242290639999994,-0.20578274359999998,9.8249295956,0.07,-1.8200000000000003,-2.31,-0.39194434188,-0.23904297773999997,9.850532797419998,-2.0230000000000006,-1.7220000000000002,-2.261
3.1550300419999644,-0.3756731482,-0.23449661479999998,9.8560362894,-0.14,-1.9600000000000002,-2.45,-0.39062828945,-0.23868405435,9.85041315629,-2.040500000000001,-1.7360000000000002,-2.264500000000001
3.162112069999978,-0.40677984199999995,-0.22731814699999997,9.834500885999999,-0.9100000000000001,-1.8900000000000001,-2.31,-0.39182470075,-0.23748764305,9.85053279742,-2.086000000000001,-1.7429999999999999,-2.2610000000000006
3.169169097000008,-0.38763726119999997,-0.2584248408,9.839286531199999,-0.14,-1.54,-2.1700000000000004,-0.39206398301,-0.23880369548,9.85065243855,-2.0650000000000013,-1.7289999999999999,-2.2575000000000007
3.176213125000004,-0.41874395499999995,-0.2967100024,9.877571692799998,0.0,-1.8200000000000003,-2.3800000000000003,-0.39326039431,-0.24131615921,9.852327414369999,-2.0475000000000008,-1.7360000000000002,-2.2610000000000006
3.183266152999977,-0.41156548719999997,-0.2943171798,9.8177511278,-0.28,-1.8200000000000003,-2.24,-0.39409788222,-0.24263221163999998,9.850891720809999,-1.1655000000000006,-1.7395,-2.264500000000001
3.1903001800000084,-0.38524443859999996,-0.2943171798,9.8321080634,-0.6300000000000001,-1.54,-2.1,-0.39326039431,-0.24490539310999998,9.84861853934,-1.1830000000000005,-1.7430000000000003,-2.2715000000000005
3.197316207999961,-0.40438701939999994,-0.28235306679999994,9.887142983199999,-0.42000000000000004,-1.54,-2.1,-0.39338003543999994,-0.24741785683999998,9.84909710386,-0.3115,-1.736,-2.2540000000000004
3.2043452350000052,-0.4211367776,-0.2943171798,9.848857821599998,0.14,-1.4700000000000002,-2.31,-0.3936193176999999,-0.24933211492,9.849814950639999,-0.29050000000000004,-1.7220000000000002,-2.2540000000000004
3.2113012629999957,-0.4354937132,-0.3038884702,9.8249295956,-0.42000000000000004,-1.6800000000000002,-2.31,-0.39577285803999995,-0.25268206656,9.847661410299997,-0.31850000000000006,-1.7220000000000002,-2.261
3.2183292899999856,-0.4235296002,-0.27517459899999996,9.851250644199999,0.42000000000000004,-1.61,-2.5200000000000005,-0.3975674749899999,-0.25375883673,9.84730248691,-0.2765000000000001,-1.7079999999999997,-2.275000000000001
3.225432318000003,-0.38524443859999996,-0.2608176634,9.865607579799999,-0.42000000000000004,-1.6800000000000002,-2.0300000000000002,-0.39649070481999993,-0.25447668351,9.84730248691,-0.28700000000000003,-1.7045,-2.264500000000001
3.2325723459999836,-0.40438701939999994,-0.23928225999999997,9.8440721764,-0.42000000000000004,-1.7500000000000002,-2.24,-0.39613178142999994,-0.25459632464000004,9.8476614103,-0.28700000000000003,-1.7114999999999998,-2.2610000000000006
3.2396383739999806,-0.40917266459999996,-0.2177468566,9.8560362894,-0.49000000000000005,-1.33,-2.45,-0.3962514225599999,-0.25292134882,9.848857821600003,-0.30800000000000005,-1.6904999999999997,-2.268000000000001
3.2466054010000107,-0.4474578262,-0.21296121140000002,9.812965482600001,-0.35000000000000003,-1.61,-2.1,-0.3991228096799999,-0.25064816734999995,9.847781051430001,-0.30100000000000005,-1.6835,-2.2575000000000007
3.2537114289999636,-0.39960137419999997,-0.19381863059999999,9.8321080634,-0.21000000000000002,-1.7500000000000002,-2.5200000000000005,-0.39972101532999993,-0.24945175604999997,9.84550786996,-0.29050000000000004,-1.6765,-2.2785000000000006
3.2608504570000036,-0.39720855159999996,-0.21296121140000002,9.894321451,-0.56,-1.6800000000000002,-2.1,-0.40163527341,-0.24909283265999999,9.845029305439997,-0.301,-1.673,-2.275000000000001
3.267864483999972,-0.38524443859999996,-0.22492532440000002,9.8680004024,-0.21000000000000002,-1.6800000000000002,-2.3800000000000003,-0.4011567088899999,-0.24861426813999996,9.846704281259997,-0.2975,-1.6729999999999996,-2.2785000000000006
3.274986511999998,-0.39960137419999997,-0.2105683888,9.8177511278,0.07,-1.9600000000000002,-2.31,-0.40307096697,-0.24825534474999994,9.845866793349996,-0.26599999999999996,-1.6904999999999997,-2.2785000000000006
3.282041539999966,-0.35413774480000004,-0.24646072779999997,9.848857821599998,-0.56,-1.6800000000000002,-2.5200000000000005,-0.40223347906000007,-0.24933211491999993,9.84670428126,-0.27299999999999996,-1.6905000000000001,-2.2925000000000004
3.2891965679999657,-0.37088750299999995,-0.24167508259999998,9.882357337999998,-0.35000000000000003,-1.61,-2.45,-0.40115670889,-0.25112673186999995,9.849575668379998,-0.29399999999999993,-1.6800000000000002,-2.2995000000000005
3.296212594999986,-0.3756731482,-0.2608176634,9.853643466800001,-0.6300000000000001,-1.6800000000000002,-2.3800000000000003,-0.40115670889000005,-0.25244278429999994,9.84945602725,-0.3185,-1.666,-2.2960000000000007
3.303280622999978,-0.38763726119999997,-0.24167508259999998,9.865607579799999,-0.28,-1.8900000000000001,-2.45,-0.40019957984999993,-0.25316063108,9.85101136194,-0.28700000000000003,-1.666,-2.3030000000000013
3.3102856509999583,-0.37088750299999995,-0.2560320182,9.8249295956,-0.21000000000000002,-1.7500000000000002,-2.1,-0.39936209193999994,-0.25304098994999996,9.850293515159999,-0.2905,-1.6765,-2.299500000000001
3.3179446809999718,-0.36610185780000004,-0.2679961312,9.8727860476,0.14,-1.7500000000000002,-2.45,-0.39672998707999996,-0.25160529639,9.8500542329,-0.2835,-1.673,-2.303000000000001
3.3251237089999677,-0.36610185780000004,-0.2560320182,9.8727860476,-0.42000000000000004,-1.61,-2.1700000000000004,-0.39445680561000007,-0.24969103831000003,9.852805978889998,-0.29050000000000004,-1.6625,-2.299500000000001
3.3321907359999727,-0.36849468039999994,-0.2560320182,9.829715240799999,-0.35000000000000003,-1.6800000000000002,-2.24,-0.39361931769999997,-0.24777678023000008,9.852686337759996,-0.2765000000000001,-1.6695,-2.3065000000000007
3.3393207639999787,-0.36610185780000004,-0.2727817764,9.8608219346,-0.49000000000000005,-1.7500000000000002,-2.31,-0.3917050596199999,-0.24729821571000005,9.851370285329999,-0.2800000000000001,-1.6800000000000002,-2.317000000000001
3.346348791999958,-0.38524443859999996,-0.24406790519999996,9.8560362894,-0.35000000000000003,-1.4700000000000002,-2.5900000000000003,-0.38991044266999997,-0.24478575198000002,9.851729208719998,-0.30450000000000005,-1.6800000000000002,-2.3310000000000004
3.3534358199999588,-0.4019941968,-0.24167508259999998,9.8321080634,0.35000000000000003,-1.6800000000000002,-2.31,-0.38823546685,-0.24167508259999998,9.85208813211,-0.26600000000000007,-1.6800000000000002,-2.3310000000000004
3.3604528469999764,-0.40438701939999994,-0.19621145319999997,9.8201439504,-0.14,-1.61,-2.1700000000000004,-0.38727833781,-0.23772692531,9.85053279742,-0.29400000000000004,-1.6800000000000002,-2.3135000000000003
3.367477874999963,-0.40438701939999994,-0.21296121140000002,9.836893708599998,-0.7000000000000001,-1.6800000000000002,-2.45,-0.38823546685,-0.23533410270999994,9.84909710386,-0.30800000000000005,-1.6800000000000002,-2.3345000000000007
3.3743879019999667,-0.39720855159999996,-0.25124637299999997,9.812965482600001,-0.35000000000000003,-1.6800000000000002,-2.31,-0.38787654345999995,-0.23593230835999995,9.84754176917,-0.3045,-1.6765,-2.338000000000001
3.3815309299999967,-0.44027935839999993,-0.2608176634,9.8919286284,17.71,-1.54,-2.24,-0.38943187814999997,-0.2380858487,9.849336386120001,0.6055,-1.687,-2.327500000000001
3.3886289579999698,-0.38045879339999994,-0.22731814699999997,9.8440721764,-0.56,-1.8900000000000001,-2.3800000000000003,-0.38608192650999995,-0.23880369548,9.85089172081,0.595,-1.701,-2.341500000000001
3.3956269849999785,-0.36849468039999994,-0.24167508259999998,9.896714273599999,-0.28,-1.8200000000000003,-2.24,-0.38452659181999993,-0.24119651808000003,9.85412203132,0.5915000000000001,-1.7045,-2.327500000000001
3.4027340129999857,-0.38524443859999996,-0.23688943739999999,9.930213789999998,-0.28,-1.8200000000000003,-2.5200000000000005,-0.3839283861699999,-0.24239292938,9.85591664827,0.6055,-1.7114999999999998,-2.3485000000000005
3.4096580400000107,-0.38763726119999997,-0.24167508259999998,9.870393224999999,-0.28,-1.7500000000000002,-2.1700000000000004,-0.3840480272999999,-0.24323041729,9.856036289399999,0.6020000000000001,-1.7149999999999999,-2.3380000000000005
3.4167850679999674,-0.37088750299999995,-0.2177468566,9.836893708599998,0.07,-1.61,-2.31,-0.3826123337399999,-0.24358934068,9.856993418439998,0.6020000000000001,-1.6975000000000002,-2.338000000000001
3.4237240950000114,-0.35892339,-0.2009970984,9.841679353799998,-0.6300000000000001,-1.61,-2.31,-0.38285161599999995,-0.24131615921000002,9.856634495049999,0.5985,-1.6940000000000002,-2.3275000000000006
3.430759122999973,-0.346959277,-0.22492532440000002,9.8560362894,-0.14,-1.8900000000000001,-2.3800000000000003,-0.3816552047,-0.2404786713,9.85531844262,0.6090000000000001,-1.7080000000000002,-2.3240000000000007
3.4378621509999903,-0.33260234139999995,-0.2727817764,9.8991070962,-17.92,-1.8200000000000003,-2.1,-0.37950166436,-0.24107687694999996,9.85759162409,-0.25550000000000006,-1.7149999999999999,-2.3100000000000005
3.4449761789999798,-0.33260234139999995,-0.2656033086,9.9565348386,0.21000000000000002,-1.54,-2.31,-0.37674991837,-0.24227328824999997,9.86213798703,-0.231,-1.6974999999999998,-2.303000000000001
3.452018205999991,-0.34217363179999993,-0.27996024419999993,9.812965482600001,-0.49000000000000005,-1.7500000000000002,-2.45,-0.37531422481,-0.24346969955,9.86153978138,-0.24500000000000005,-1.6975000000000002,-2.3205000000000005
3.4590762340000083,-0.33260234139999995,-0.2679961312,9.925428144799998,-0.6300000000000001,-1.6800000000000002,-2.3800000000000003,-0.37363924899,-0.24346969955,9.86417188624,-0.2835,-1.6940000000000002,-2.3170000000000006
3.466091260999974,-0.39481572899999995,-0.2584248408,9.865607579799999,-0.07,-1.54,-2.45,-0.37507494255,-0.24358934068,9.86381296285,-0.2660000000000001,-1.6905000000000001,-2.3310000000000004
3.4731202890000077,-0.39242290639999994,-0.27517459899999996,9.8799645154,-0.28,-1.54,-2.31,-0.37627135385,-0.24454646972,9.86632542658,-0.26250000000000007,-1.6835,-2.3345000000000007
3.480072315999962,-0.4331008906,-0.18185451760000002,9.822536773,0.07,-1.8200000000000003,-2.45,-0.37962130549,-0.24000010677999994,9.8644111685,-0.2345000000000001,-1.6869999999999998,-2.341500000000001
3.487072344000012,-0.41156548719999997,-0.23688943739999999,9.9038927414,-0.14,-1.6800000000000002,-2.5200000000000005,-0.38093735792000005,-0.23964118338999993,9.866803991099998,-0.22400000000000003,-1.6974999999999998,-2.338000000000001
3.4941253709999955,-0.40677984199999995,-0.23688943739999999,9.834500885999999,-0.35000000000000003,-1.6800000000000002,-2.31,-0.3811766401800001,-0.23940190112999998,9.86692363223,-0.25900000000000006,-1.6975000000000002,-2.338000000000001
3.501213398999994,-0.4211367776,-0.23449661479999998,9.927820967399999,-0.6300000000000001,-1.6800000000000002,-2.3800000000000003,-0.38201412809,-0.24131615921000002,9.87230748308,-0.2835,-1.7009999999999998,-2.3485000000000005
3.508152425999981,-0.48095734259999995,-0.3062812928,9.853643466800001,-0.21000000000000002,-1.9600000000000002,-2.5200000000000005,-0.38584264425000003,-0.24598216327999997,9.87314497099,-0.25900000000000023,-1.7149999999999999,-2.3520000000000008
3.515386454999998,-0.43788653580000003,-0.215354034,9.8177511278,0.0,-1.54,-2.24,-0.38787654346,-0.24418754632999998,9.87338425325,-0.24150000000000021,-1.7079999999999997,-2.3485000000000005
3.52269148299996,-0.4881358103999999,-0.2105683888,9.822536773,-0.14,-1.61,-2.0300000000000002,-0.39026936605999996,-0.24167508259999995,9.869914660480001,-1.1340000000000001,-1.7114999999999998,-2.3380000000000005
3.5297015109999847,-0.4235296002,-0.22971096959999998,9.865607579799999,-0.28,-1.54,-2.1700000000000004,-0.3924229064,-0.24179472372999994,9.87099143065,-1.12,-1.6940000000000002,-2.3275000000000006
3.5373445409999817,-0.39720855159999996,-0.21296121140000002,9.906285564,-0.7000000000000001,-1.8200000000000003,-2.1700000000000004,-0.39385859995999994,-0.24035903016999996,9.871469995170001,-1.1410000000000002,-1.6940000000000002,-2.3240000000000007
3.5445145690000004,-0.2967100024,-0.24885355039999998,9.8273224182,-0.14,-1.8200000000000003,-2.24,-0.38943187815,-0.24095723581999998,9.86632542658,-1.1340000000000001,-1.6940000000000002,-2.3100000000000005
3.551652596999986,-0.35413774480000004,-0.26321048599999997,9.858429112,-0.21000000000000002,-1.61,-2.1700000000000004,-0.38775690233,-0.24203400599,9.865727220930001,-1.1305,-1.6869999999999998,-2.31
3.5587616249999883,-0.346959277,-0.2536391956,9.894321451,-0.6300000000000001,-1.8200000000000003,-2.45,-0.38656049103,-0.24382862294000002,9.868598608049998,-1.1655000000000002,-1.6975000000000002,-2.3170000000000006
3.565785651999988,-0.38045879339999994,-0.2775674216,9.851250644199999,-0.49000000000000005,-1.61,-2.31,-0.38763726119999997,-0.24765713910000003,9.86907717257,-1.1585,-1.6974999999999998,-2.3170000000000006
3.5729016799999727,-0.3493520996,-0.2656033086,9.9110712092,-0.35000000000000003,-1.8200000000000003,-2.1,-0.38775690233,-0.24969103831,9.871828918559999,-1.169,-1.6940000000000002,-2.303000000000001
3.57990670800001,-0.34456645439999994,-0.2727817764,9.9158568544,-0.14,-1.61,-2.24,-0.38835510797999995,-0.24969103831000003,9.87266640647,-0.28,-1.6835,-2.310000000000001
3.586945734999972,-0.34456645439999994,-0.2895315346,9.870393224999999,-0.28,-1.7500000000000002,-2.5200000000000005,-0.38895331362999996,-0.25088744961,9.86835932579,-0.30450000000000005,-1.6940000000000002,-2.320500000000001
3.5946407650000083,-0.32542387359999997,-0.2727817764,9.8560362894,-0.28,-1.6800000000000002,-2.24,-0.38811582572000003,-0.25052852622,9.870512866130001,-0.29400000000000004,-1.6905000000000001,-2.3100000000000014
3.601737792999984,-0.32303105099999996,-0.24406790519999996,9.829715240799999,-0.21000000000000002,-1.8200000000000003,-2.45,-0.38763726119999997,-0.24933211492,9.86572722093,-0.273,-1.6975000000000002,-2.3135000000000012
3.6089268210000114,-0.38285161599999995,-0.2703889538,9.839286531199999,0.0,-1.6800000000000002,-2.31,-0.38703905554999996,-0.24993032057,9.8644111685,-0.2695,-1.7045,-2.306500000000001
3.615933848999987,-0.430708068,-0.24406790519999996,9.822536773,-0.21000000000000002,-1.4000000000000001,-2.5900000000000003,-0.38895331362999996,-0.24837498587999995,9.86153978138,-0.266,-1.6975000000000002,-2.3205000000000013
3.6230058769999687,-0.4235296002,-0.19381863059999999,9.9493563708,-0.56,-1.61,-2.3800000000000003,-0.38847474910999996,-0.24897319152999997,9.867880761269998,-0.29750000000000004,-1.687,-2.317000000000001
3.6299939040000027,-0.5288137946,-0.17706887240000002,9.9469635482,-0.42000000000000004,-1.4700000000000002,-2.45,-0.39433716448,-0.24598216327999997,9.870034301609998,-0.3115,-1.6765,-2.313500000000001
3.6369829309999773,-0.45224347139999993,-0.17228322719999997,9.8153583052,-0.56,-1.6800000000000002,-2.45,-0.39661034595,-0.24275185276999997,9.869077172569998,-0.32200000000000006,-1.6765,-2.320500000000001
3.644022958999983,-0.45224347139999993,-0.22492532440000002,9.8751788702,-0.07,-1.7500000000000002,-2.45,-0.39816568064,-0.24227328825,9.866445067709998,-0.29400000000000015,-1.6799999999999997,-2.3240000000000007
3.6510749869999586,-0.48574298779999997,-0.2536391956,9.8153583052,-0.28,-1.61,-2.5200000000000005,-0.39840496290000005,-0.23964118339,9.864530809629997,-0.2975000000000001,-1.6625,-2.3240000000000007
3.658294014999967,-0.4450650036,-0.2608176634,9.841679353799998,-0.56,-1.61,-2.1,-0.39876388629,-0.24191436486,9.865727220929996,-0.32550000000000007,-1.666,-2.3170000000000006
