time,aX,aY,aZ,gX,gY,gZ,faX,faY,faZ,fgX,fgY,fgZ
0.13523746600003506,-0.39960137419999997,-0.2584248408,9.9086783866,0.35000000000000003,-1.4000000000000001,-2.3800000000000003,-0.38452659182,-0.24167508259999998,9.883314467039998,1.0500000000000003,-1.6275,-2.3030000000000004
0.14535142600004747,-0.38524443859999996,-0.24406790519999996,9.9110712092,0.28,-1.61,-2.31,-0.38488551521000003,-0.24263221163999993,9.884750160599998,1.0395,-1.6309999999999998,-2.2925000000000004
0.1549493889999667,-0.38285161599999995,-0.2608176634,9.894321451,0.77,-1.61,-2.3800000000000003,-0.38333018052,-0.24370898180999995,9.88678405981,1.0710000000000002,-1.6275,-2.2925000000000004
0.16417635200002678,-0.39242290639999994,-0.2536391956,9.9110712092,0.49000000000000005,-1.33,-2.31,-0.38356946278000004,-0.24394826406999992,9.888339394499997,1.078,-1.6029999999999998,-2.3030000000000004
0.1727743180000516,-0.3900300838,-0.22013967919999997,9.848857821599998,0.42000000000000004,-1.4000000000000001,-2.31,-0.3840480273000001,-0.24239292937999996,9.88810011224,1.1130000000000002,-1.5959999999999996,-2.303000000000001
0.18151228399995034,-0.39242290639999994,-0.2225325018,9.877571692799998,-0.07,-1.4700000000000002,-2.1,-0.38368910391,-0.24035903016999996,9.885826930769998,1.1060000000000003,-1.5854999999999997,-2.2890000000000006
0.19003224999994472,-0.36849468039999994,-0.2584248408,9.8632147572,0.56,-1.54,-2.3800000000000003,-0.38321053939,-0.24179472373,9.88642513642,1.1410000000000002,-1.5749999999999997,-2.292500000000001
0.1989552149999554,-0.3756731482,-0.23688943739999999,9.877571692799998,0.14,-1.61,-2.1,-0.38273197486999994,-0.24167508259999998,9.884750160599998,1.1305,-1.5609999999999995,-2.2960000000000007
0.2126291609999953,-0.39242290639999994,-0.22971096959999998,9.906285564,0.14,-1.4000000000000001,-2.1,-0.38321053938999994,-0.24131615921000002,9.88486980173,1.1375000000000002,-1.5539999999999996,-2.282000000000001
0.22391511700004685,-0.38524443859999996,-0.23928225999999997,9.896714273599999,0.07,-1.54,-2.1700000000000004,-0.38380874503999995,-0.24143580034000003,9.88582693077,1.1340000000000001,-1.5469999999999995,-2.2890000000000006
0.23525107199998274,-0.38285161599999995,-0.24167508259999998,9.9086783866,-0.28,-1.4700000000000002,-2.3800000000000003,-0.38512479746999995,-0.24203400598999997,9.88798047111,1.099,-1.5399999999999998,-2.2855000000000003
0.24643102799996086,-0.40438701939999994,-0.22492532440000002,9.9014999188,0.21000000000000002,-1.54,-2.45,-0.38668013215999997,-0.24071795356,9.89121078162,1.1095000000000002,-1.5294999999999999,-2.2855000000000003
0.2577449829999523,-0.39242290639999994,-0.23928225999999997,9.884750160599998,-0.07,-1.4000000000000001,-2.5200000000000005,-0.38656049102999995,-0.24107687694999996,9.892407192919999,1.0990000000000002,-1.5119999999999993,-2.2820000000000005
0.2688299389999429,-0.37328032559999996,-0.22492532440000002,9.9014999188,0.42000000000000004,-1.61,-2.1700000000000004,-0.3858426442499999,-0.24000010677999994,9.893962527609999,1.1130000000000002,-1.5224999999999995,-2.2750000000000004
0.27981289599995307,-0.38763726119999997,-0.22971096959999998,9.870393224999999,0.14,-1.4700000000000002,-2.0300000000000002,-0.38572300311999996,-0.23952154225999997,9.8931250397,1.1130000000000002,-1.5154999999999996,-2.2540000000000004
0.29117285099994206,-0.38524443859999996,-0.2608176634,9.9014999188,-0.07,-1.4700000000000002,-2.45,-0.3871586966799999,-0.24071795355999998,9.893842886479998,1.1025000000000003,-1.5049999999999994,-2.261000000000001
0.30260080599998673,-0.3900300838,-0.24167508259999998,9.894321451,0.07,-1.61,-2.3800000000000003,-0.38835510797999995,-0.24071795355999998,9.89109114049,1.0990000000000002,-1.5119999999999996,-2.271500000000001
0.3128077659999917,-0.38045879339999994,-0.22731814699999997,9.8919286284,0.21000000000000002,-1.54,-2.24,-0.38775690233,-0.24119651807999998,9.890612575969998,1.0780000000000003,-1.5084999999999995,-2.2785000000000006
0.3230667249999897,-0.37328032559999996,-0.24406790519999996,9.896714273599999,0.21000000000000002,-1.4700000000000002,-2.24,-0.3853640797299999,-0.24167508259999995,9.891569705009998,1.0850000000000004,-1.5049999999999997,-2.275000000000001
0.3336066839999603,-0.38763726119999997,-0.24885355039999998,9.884750160599998,0.21000000000000002,-1.54,-2.3800000000000003,-0.38608192650999995,-0.24035903016999996,9.891569705009998,0.21000000000000002,-1.5014999999999996,-2.2890000000000006
0.34431164099999023,-0.3900300838,-0.24885355039999998,9.887142983199999,0.7000000000000001,-1.4000000000000001,-2.1700000000000004,-0.38560336199,-0.23988046564999993,9.890492934839997,0.22750000000000004,-1.5014999999999996,-2.2785000000000006
0.3546665999999732,-0.38524443859999996,-0.22971096959999998,9.889535805799998,0.0,-1.4700000000000002,-2.24,-0.38560336199,-0.23916261887,9.889416164669997,0.21350000000000002,-1.4944999999999997,-2.275000000000001
0.36524455899996155,-0.38524443859999996,-0.24646072779999997,9.9014999188,-0.14,-1.7500000000000002,-2.3800000000000003,-0.38572300311999996,-0.23844477208999998,9.889775088059997,0.168,-1.5014999999999998,-2.275000000000001
0.3756035180000481,-0.38763726119999997,-0.23688943739999999,9.884750160599998,0.14,-1.6800000000000002,-2.31,-0.38548372086,-0.23760728418000002,9.888459035629996,0.15050000000000002,-1.5189999999999997,-2.275000000000001
0.3848474809999516,-0.3493520996,-0.2560320182,9.889535805799998,0.0,-1.6800000000000002,-2.1,-0.38344982164999997,-0.23940190113,9.890492934839997,0.1295,-1.5329999999999997,-2.264500000000001
0.39517743999999766,-0.36849468039999994,-0.23449661479999998,9.870393224999999,0.56,-1.54,-2.24,-0.38225341035,-0.24000010678000003,9.890134011449998,0.161,-1.5364999999999998,-2.2715000000000005
0.40538939999999,-0.38763726119999997,-0.22971096959999998,9.8991070962,0.07,-1.54,-2.3800000000000003,-0.38321053939,-0.23856441322000005,9.891928628399997,0.1365,-1.5364999999999998,-2.2715000000000005
0.4155283599999393,-0.37088750299999995,-0.24885355039999998,9.8919286284,0.21000000000000002,-1.7500000000000002,-2.24,-0.38297125712999996,-0.23916261887,9.892646475179998,0.13999999999999999,-1.5434999999999997,-2.2785000000000006
0.4262793169999668,-0.3780659708,-0.24167508259999998,9.887142983199999,0.6300000000000001,-1.6800000000000002,-2.5200000000000005,-0.38225341034999993,-0.23976082451999997,9.891689346139996,0.1645,-1.5574999999999999,-2.299500000000001
0.437142275000042,-0.39242290639999994,-0.23688943739999999,9.8751788702,0.0,-1.54,-2.1700000000000004,-0.3826123337399999,-0.23964118338999998,9.890612575969996,0.16099999999999998,-1.5574999999999997,-2.2995000000000005
0.4471722350000391,-0.37328032559999996,-0.23688943739999999,9.887142983199999,0.14,-1.54,-2.31,-0.3821337692199999,-0.23940190113,9.889535805799996,0.182,-1.561,-2.2960000000000007
0.4575861939999868,-0.35174492220000003,-0.23688943739999999,9.8991070962,0.8400000000000001,-1.7500000000000002,-2.3800000000000003,-0.37950166435999994,-0.24000010678000003,9.889416164669997,0.21350000000000002,-1.5715,-2.292500000000001
0.46811115200000586,-0.39720855159999996,-0.24167508259999998,9.9086783866,0.0,-1.7500000000000002,-2.31,-0.37974094661999996,-0.24011974791,9.890612575969996,0.21700000000000003,-1.589,-2.282000000000001
0.47877111000002515,-0.38285161599999995,-0.25124637299999997,9.918249676999999,0.0,-1.6800000000000002,-2.45,-0.38021951113999997,-0.24143580033999998,9.891450063879997,0.19600000000000004,-1.5924999999999998,-2.2960000000000007
0.48951906800004963,-0.38285161599999995,-0.23688943739999999,9.8727860476,0.35000000000000003,-1.61,-2.31,-0.37998022887999994,-0.24179472372999994,9.891569705009998,0.20650000000000004,-1.5994999999999997,-2.310000000000001
0.5000430259999575,-0.3780659708,-0.2560320182,9.882357337999998,0.0,-1.4700000000000002,-2.24,-0.37962130548999995,-0.24155544146999994,9.890612575969998,0.21000000000000002,-1.5994999999999997,-2.2995000000000005
0.509344988999942,-0.3613162126,-0.22971096959999998,9.8440721764,-0.14,-1.4000000000000001,-2.3800000000000003,-0.37818561193,-0.24095723582,9.888100112239998,0.19950000000000004,-1.5889999999999997,-2.299500000000001
0.5193309500000396,-0.39481572899999995,-0.23688943739999999,9.894321451,0.28,-1.4700000000000002,-2.31,-0.37890345871000003,-0.24143580033999998,9.888219753369999,0.203,-1.5854999999999997,-2.303000000000001
0.5281809150000072,-0.38045879339999994,-0.24406790519999996,9.8751788702,0.07,-1.61,-2.31,-0.37926238209999996,-0.24143580033999998,9.887142983199997,0.196,-1.5924999999999996,-2.3065000000000007
0.5364528820000487,-0.37088750299999995,-0.23210379219999996,9.8727860476,0.28,-1.54,-2.31,-0.37842489418999997,-0.24059831242999996,9.886544777549997,0.1995,-1.5924999999999996,-2.303000000000001
0.5500198290000071,-0.38763726119999997,-0.23449661479999998,9.8751788702,0.07,-1.61,-2.24,-0.37830525306,-0.23988046564999999,9.885946571899996,0.16799999999999998,-1.6029999999999998,-2.3065000000000007
0.5600887890000195,-0.39960137419999997,-0.24885355039999998,9.870393224999999,0.49000000000000005,-1.7500000000000002,-2.45,-0.37902309984000004,-0.24083759468999996,9.884989442859995,0.1925,-1.6169999999999998,-2.3170000000000006
0.5703457480000225,-0.3900300838,-0.22731814699999997,9.889535805799998,0.42000000000000004,-1.61,-2.31,-0.37926238209999996,-0.23988046564999999,9.884391237209996,0.2205,-1.6099999999999999,-2.313500000000001
0.5812917050000124,-0.39481572899999995,-0.23449661479999998,9.8680004024,0.0,-1.4000000000000001,-2.1,-0.37962130549,-0.23976082451999997,9.883553749299997,0.21350000000000002,-1.5959999999999996,-2.3030000000000004
0.5914786649999542,-0.41156548719999997,-0.22971096959999998,9.906285564,0.07,-1.61,-2.3800000000000003,-0.38273197487000005,-0.23844477208999998,9.884391237209998,0.21700000000000003,-1.5924999999999996,-2.3170000000000006
0.602118623000024,-0.35892339,-0.25124637299999997,9.9110712092,0.42000000000000004,-1.4700000000000002,-2.5900000000000003,-0.38225341035,-0.23928225999999997,9.886425136419998,0.20999999999999996,-1.5889999999999995,-2.3345000000000007
0.6127625809999699,-0.38285161599999995,-0.23928225999999997,9.8751788702,0.0,-1.61,-2.45,-0.38201412808999996,-0.23976082451999997,9.885228725119998,0.2065,-1.5924999999999998,-2.3380000000000005
0.6229065410000203,-0.35892339,-0.24646072779999997,9.8560362894,0.21000000000000002,-1.61,-2.3800000000000003,-0.38141592244000005,-0.23964118338999998,9.883434108169997,0.2065,-1.5854999999999997,-2.345000000000001
0.6332814999999528,-0.38285161599999995,-0.2560320182,9.913464031799998,0.28,-1.4700000000000002,-2.24,-0.3816552047,-0.24035903016999996,9.8847501606,0.189,-1.5749999999999997,-2.3310000000000004
0.6433494599999676,-0.39720855159999996,-0.2536391956,9.884750160599998,0.21000000000000002,-1.61,-2.24,-0.38189448696000006,-0.24119651807999992,9.88522872512,0.1995,-1.5784999999999996,-2.3345000000000007
0.6539184179999893,-0.40677984199999995,-0.23928225999999997,9.8751788702,0.07,-1.4700000000000002,-2.1700000000000004,-0.38356946278000004,-0.24131615921,9.884630519469999,0.196,-1.5749999999999997,-2.327500000000001
0.6645333760000085,-0.3756731482,-0.23688943739999999,9.858429112,0.42000000000000004,-1.7500000000000002,-2.3800000000000003,-0.38476587408,-0.24131615921,9.88259662026,0.17500000000000002,-1.5749999999999997,-2.3275000000000006
0.6752673339999546,-0.36370903520000003,-0.23688943739999999,9.865607579799999,0.0,-1.61,-2.1,-0.38309089826,-0.24107687695000007,9.88044307992,0.17500000000000002,-1.5679999999999996,-2.317000000000001
0.6856022929999881,-0.39242290639999994,-0.24406790519999996,9.889535805799998,0.21000000000000002,-1.54,-2.1700000000000004,-0.38356946278000004,-0.24071795356,9.879007386359998,0.18550000000000003,-1.5609999999999997,-2.3030000000000004
0.695689252999955,-0.4019941968,-0.24167508259999998,9.9014999188,-17.57,-1.54,-2.3800000000000003,-0.38452659182,-0.24095723581999998,9.880443079920001,-0.7105,-1.5574999999999997,-2.3065000000000007
0.7049052170000323,-0.3780659708,-0.24167508259999998,9.927820967399999,0.14,-1.7500000000000002,-2.1,-0.38452659182,-0.24023938903999995,9.88271626139,-0.7035,-1.5715,-2.2995000000000005
0.7169011690000389,-0.40438701939999994,-0.2584248408,9.8751788702,0.35000000000000003,-1.6800000000000002,-2.31,-0.38668013215999997,-0.24167508259999995,9.88427159608,-0.679,-1.5854999999999997,-2.2960000000000007
0.7270891289999781,-0.38285161599999995,-0.25124637299999997,9.8680004024,0.07,-1.54,-2.45,-0.38608192651,-0.24239292937999996,9.882955543649999,-0.6895,-1.5889999999999997,-2.303000000000001
0.7362150929999416,-0.38524443859999996,-0.2560320182,9.9014999188,0.35000000000000003,-1.4700000000000002,-2.24,-0.38632120877,-0.24299113502999997,9.88427159608,-0.6755,-1.5819999999999999,-2.299500000000001
0.7445320599999832,-0.36370903520000003,-0.2727817764,9.858429112,0.28,-1.4700000000000002,-2.5900000000000003,-0.38596228538,-0.24502503423999994,9.883553749299999,-0.6755,-1.5784999999999996,-2.313500000000001
0.7528620269999919,-0.4139583098,-0.23210379219999996,9.887142983199999,0.42000000000000004,-1.4000000000000001,-2.24,-0.38727833781,-0.24490539310999998,9.88415195495,-0.658,-1.5679999999999998,-2.313500000000001
0.7618499919999522,-0.41156548719999997,-0.22013967919999997,9.8632147572,0.42000000000000004,-1.61,-2.3800000000000003,-0.38787654345999995,-0.24346969955,9.88379303156,-0.6615,-1.5609999999999997,-2.3100000000000014
0.7702389590000394,-0.37328032559999996,-0.2679961312,9.8991070962,0.56,-1.61,-2.0300000000000002,-0.3870390555499999,-0.24550359876,9.884271596080001,-0.6545,-1.5609999999999997,-2.2960000000000007
0.7785669259999395,-0.3756731482,-0.23688943739999999,9.894321451,0.21000000000000002,-1.33,-2.3800000000000003,-0.3860819265099999,-0.24562323989,9.88558764851,-0.6439999999999999,-1.5574999999999997,-2.310000000000001
0.786887892999971,-0.3900300838,-0.2560320182,9.851250644199999,-17.78,-1.7500000000000002,-2.3800000000000003,-0.38500515633999993,-0.24693929232,9.88283590252,-1.5365,-1.5644999999999996,-2.310000000000001
0.7950948599999492,-0.3780659708,-0.22971096959999998,9.865607579799999,0.0,-1.6800000000000002,-2.24,-0.38596228537999994,-0.24586252214999998,9.880562721050001,-1.5575,-1.5749999999999997,-2.292500000000001
0.8034138279999752,-0.3900300838,-0.24885355039999998,9.8608219346,0.07,-1.61,-2.0300000000000002,-0.38632120877,-0.24634108666999993,9.879844874269999,-1.554,-1.5749999999999997,-2.2715000000000005
0.8117057949999662,-0.38763726119999997,-0.24406790519999996,9.884750160599998,-17.85,-1.7500000000000002,-2.5900000000000003,-0.38775690232999993,-0.24622144553999994,9.88128056783,-2.457,-1.5819999999999996,-2.2820000000000005
0.8200507620000508,-0.38524443859999996,-0.24167508259999998,9.954142015999999,-17.92,-1.4000000000000001,-2.31,-0.38787654345999995,-0.2455035987599999,9.883314467039998,-3.367,-1.5784999999999996,-2.2855000000000003
0.8284437290000142,-0.36370903520000003,-0.24406790519999996,9.884750160599998,0.21000000000000002,-1.4000000000000001,-2.24,-0.38620156764,-0.2450250342399999,9.883314467039998,-3.367000000000001,-1.568,-2.2855000000000008
0.8366566959999773,-0.35892339,-0.22971096959999998,9.9014999188,-17.71,-1.4000000000000001,-2.31,-0.38380874504,-0.24454646971999994,9.884630519469999,-4.256,-1.5645,-2.292500000000001
0.8448486639999828,-0.3565305674,-0.24167508259999998,9.894321451,0.07,-1.6800000000000002,-2.45,-0.382851616,-0.24478575197999994,9.886425136419998,-4.2735,-1.561,-2.2960000000000007
0.8531096310000521,-0.35413774480000004,-0.24406790519999996,9.894321451,0.07,-1.6800000000000002,-2.1700000000000004,-0.38237305148,-0.24514467536999995,9.887860829979997,-4.2700000000000005,-1.5644999999999998,-2.299500000000001
0.8615605979999827,-0.40677984199999995,-0.23688943739999999,9.884750160599998,-0.14,-1.54,-2.24,-0.38309089826,-0.24478575198,9.887621547719997,-4.2875000000000005,-1.5644999999999998,-2.303000000000001
0.8698375650000116,-0.38285161599999995,-0.23928225999999997,9.889535805799998,0.07,-1.61,-2.31,-0.38213376922000003,-0.24466611084999998,9.887023342069998,-3.4055000000000013,-1.5679999999999998,-2.299500000000001
0.8782155320000129,-0.38045879339999994,-0.23449661479999998,9.8560362894,0.42000000000000004,-1.54,-2.31,-0.38225341035000004,-0.24430718746000007,9.883434108169997,-3.3915000000000015,-1.5574999999999997,-2.310000000000001
0.8872504959999787,-0.41156548719999997,-0.24406790519999996,9.884750160599998,0.56,-1.8900000000000001,-2.5200000000000005,-0.38261233374000003,-0.24358934068000004,9.883912672689998,-3.381000000000001,-1.5679999999999998,-2.320500000000001
0.8956414629999472,-0.38763726119999997,-0.2584248408,9.853643466800001,-0.21000000000000002,-1.61,-2.31,-0.382851616,-0.24394826407,9.883194825909998,-3.395000000000001,-1.5714999999999997,-2.313500000000001
0.9039684299999635,-0.3900300838,-0.22971096959999998,9.906285564,0.14,-1.61,-2.31,-0.38309089826,-0.24263221164,9.883434108169999,-3.405500000000001,-1.5784999999999998,-2.317000000000001
0.9122993969999698,-0.3900300838,-0.23688943739999999,9.8799645154,0.21000000000000002,-1.54,-2.24,-0.38440695068999997,-0.24083759469000002,9.884510878339999,-3.409000000000001,-1.5819999999999999,-2.299500000000001
0.9206143650000058,-0.38285161599999995,-0.22492532440000002,9.851250644199999,0.0,-1.61,-2.3800000000000003,-0.382851616,-0.2404786713,9.882716261389998,-3.430000000000001,-1.5924999999999998,-2.3065000000000007
0.928997331000005,-0.39720855159999996,-0.23688943739999999,9.9014999188,0.28,-1.4700000000000002,-2.31,-0.38213376922,-0.24131615921000002,9.884630519469999,-3.437000000000001,-1.5855,-2.303000000000001
0.9374332979999735,-0.38763726119999997,-0.23210379219999996,9.841679353799998,0.42000000000000004,-1.61,-2.1700000000000004,-0.38285161600000006,-0.23952154226000003,9.881759132349998,-3.4440000000000013,-1.5855,-2.310000000000001
0.9457932650000203,-0.38524443859999996,-0.24167508259999998,9.927820967399999,0.21000000000000002,-1.54,-2.1,-0.38333018052,-0.23976082451999997,9.883434108169999,-3.4440000000000013,-1.5959999999999996,-2.2960000000000003
0.9542792319999762,-0.38763726119999997,-0.24167508259999998,9.9014999188,0.7000000000000001,-1.33,-2.1,-0.38321053939000005,-0.23904297773999997,9.885946571899998,-2.5199999999999996,-1.5749999999999997,-2.282000000000001
0.9626001990000077,-0.3613162126,-0.24885355039999998,9.8680004024,0.42000000000000004,-1.4700000000000002,-2.24,-0.38237305148,-0.24000010677999994,9.88606621303,-2.4989999999999997,-1.5644999999999996,-2.2820000000000005
0.9710431649999691,-0.33499516399999996,-0.2536391956,9.894321451,0.0,-1.4700000000000002,-2.1,-0.37962130549,-0.24023938903999995,9.887741188849997,-2.5024999999999995,-1.5574999999999997,-2.2855000000000003
0.9791531329999543,-0.39720855159999996,-0.2584248408,9.8919286284,0.0,-1.33,-2.45,-0.3800998700100001,-0.24095723581999998,9.888100112239998,-1.6099999999999994,-1.5364999999999995,-2.2785
0.9880480980000357,-0.39720855159999996,-0.23688943739999999,9.877571692799998,-0.28,-1.61,-2.31,-0.3806980756600001,-0.24071795356,9.884271596079998,-0.7279999999999999,-1.5469999999999995,-2.2785
0.9962140659999932,-0.3565305674,-0.22492532440000002,9.889535805799998,0.21000000000000002,-1.61,-2.1,-0.3803391522700001,-0.23976082451999997,9.884510878339999,-0.7279999999999999,-1.5574999999999997,-2.2715000000000005
1.0046230330000299,-0.35892339,-0.22013967919999997,9.8919286284,0.49000000000000005,-1.6800000000000002,-2.1,-0.38033915227000004,-0.23928225999999997,9.884032313819999,0.18200000000000002,-1.5714999999999997,-2.2610000000000006
1.0127899999999954,-0.40917266459999996,-0.22731814699999997,9.851250644199999,0.21000000000000002,-1.7500000000000002,-2.24,-0.38297125713,-0.23856441322,9.88187877348,0.189,-1.5749999999999997,-2.250500000000001
1.0223419630000308,-0.38524443859999996,-0.2584248408,9.841679353799998,0.21000000000000002,-1.61,-2.45,-0.3845265918200001,-0.23928225999999997,9.879246668619999,0.19600000000000004,-1.5714999999999997,-2.264500000000001
1.0332139199999801,-0.39960137419999997,-0.2536391956,9.8751788702,0.35000000000000003,-1.6800000000000002,-2.24,-0.38416766843000005,-0.24011974791,9.878768104099999,0.2205,-1.5784999999999996,-2.264500000000001
1.046051868999939,-0.3565305674,-0.2608176634,9.846464998999998,0.35000000000000003,-1.61,-2.24,-0.38285161600000006,-0.24119651807999998,9.876614563759999,0.2345,-1.5785,-2.261000000000001
1.0573188250000385,-0.3900300838,-0.23449661479999998,9.870393224999999,0.21000000000000002,-1.61,-2.3800000000000003,-0.38333018052,-0.24119651807999998,9.877332410539998,0.22400000000000003,-1.5819999999999996,-2.264500000000001
1.0680957820000003,-0.38045879339999994,-0.23688943739999999,9.918249676999999,-0.07,-1.7500000000000002,-2.24,-0.38177484583000004,-0.24083759469000005,9.879007386359998,0.19250000000000003,-1.5749999999999997,-2.250500000000001
1.0787427399999387,-0.38045879339999994,-0.23210379219999996,9.927820967399999,0.35000000000000003,-1.54,-2.24,-0.38141592244000005,-0.23952154226000003,9.88271626139,0.2205,-1.5715,-2.2470000000000008
1.0892036989999951,-0.38045879339999994,-0.2608176634,9.9086783866,-0.07,-1.61,-2.31,-0.38093735792,-0.24107687695000002,9.882835902519998,0.21000000000000002,-1.5715,-2.2470000000000008
1.0996156569999584,-0.37088750299999995,-0.24646072779999997,9.8632147572,0.21000000000000002,-1.4700000000000002,-2.31,-0.37998022887999994,-0.24155544147,9.881998414609999,0.21000000000000005,-1.5679999999999998,-2.2505000000000006
1.109018620000029,-0.36370903520000003,-0.22731814699999997,9.8919286284,0.28,-1.61,-2.31,-0.37902309984000004,-0.24167508259999998,9.884032313819999,0.22400000000000006,-1.5679999999999998,-2.2470000000000008
1.1173355869999568,-0.38763726119999997,-0.22971096959999998,9.865607579799999,0.28,-1.61,-2.1700000000000004,-0.37854453532,-0.24131615921,9.882237696869998,0.22400000000000003,-1.5749999999999997,-2.2400000000000007
1.1257835540000087,-0.39481572899999995,-0.19621145319999997,9.8799645154,0.42000000000000004,-1.61,-2.66,-0.37890345871000003,-0.23952154225999997,9.88415195495,0.22400000000000003,-1.5749999999999997,-2.2645000000000004
1.1340955209999493,-0.3756731482,-0.23210379219999996,9.8919286284,0.14,-1.4700000000000002,-2.45,-0.37842489418999997,-0.23904297774,9.882357337999998,0.2205,-1.5714999999999997,-2.282000000000001
1.1429394860000457,-0.35413774480000004,-0.23688943739999999,9.882357337999998,0.0,-1.61,-2.3800000000000003,-0.37674991836999994,-0.23880369548000005,9.881400208959999,0.18550000000000005,-1.5854999999999997,-2.2960000000000003
1.1513504529999636,-0.38763726119999997,-0.25124637299999997,9.906285564,0.35000000000000003,-1.7500000000000002,-2.0300000000000002,-0.3780659708,-0.23892333661,9.883314467039998,0.18200000000000002,-1.5994999999999997,-2.2855000000000008
1.1595374209999818,-0.39481572899999995,-0.22971096959999998,9.8440721764,0.07,-1.61,-2.45,-0.38105699905,-0.23772692531,9.880802003309997,0.18550000000000003,-1.6064999999999998,-2.3030000000000004
1.1710293749999892,-0.38285161599999995,-0.23210379219999996,9.884750160599998,-17.78,-1.61,-2.45,-0.38033915227000004,-0.23641087288,9.880443079919997,-0.7035,-1.6204999999999998,-2.3030000000000004
1.1819993320000322,-0.38763726119999997,-0.23928225999999997,9.853643466800001,0.07,-1.4700000000000002,-2.3800000000000003,-0.37986058775000003,-0.23653051401000003,9.879246668619997,-0.686,-1.6134999999999997,-2.3065000000000007
1.1931852879999951,-0.40438701939999994,-0.2560320182,9.8991070962,0.49000000000000005,-1.8200000000000003,-2.45,-0.38225341035000004,-0.2380858487,9.879725233139999,-0.6719999999999999,-1.6239999999999994,-2.3240000000000007
1.2037812459999486,-0.37328032559999996,-0.2703889538,9.882357337999998,0.07,-1.6800000000000002,-2.1700000000000004,-0.38297125712999996,-0.24059831243000004,9.879246668619999,-0.693,-1.6239999999999999,-2.3275000000000006
1.2143372040000031,-0.38524443859999996,-0.25124637299999997,9.8727860476,-0.28,-1.6800000000000002,-2.3800000000000003,-0.38177484583,-0.24179472372999994,9.880323438789999,-0.7175,-1.6204999999999998,-2.3345000000000007
1.2247091629999431,-0.3756731482,-0.23688943739999999,9.894321451,0.35000000000000003,-1.61,-2.45,-0.38129628130999993,-0.24071795356,9.882955543649999,-0.7104999999999999,-1.6204999999999998,-2.334500000000001
1.2385241089999681,-0.3780659708,-0.22971096959999998,9.877571692799998,0.21000000000000002,-1.61,-2.3800000000000003,-0.3802195111399999,-0.23952154225999997,9.883075184779997,-0.7175,-1.6169999999999998,-2.341500000000001
1.2498270639999873,-0.38285161599999995,-0.2584248408,9.896714273599999,0.35000000000000003,-1.54,-2.31,-0.38153556356999996,-0.23940190112999998,9.885587648509999,-0.7175,-1.6134999999999997,-2.345000000000001
1.2602230229999805,-0.38045879339999994,-0.24885355039999998,9.870393224999999,0.21000000000000002,-1.61,-2.1700000000000004,-0.38105699904999996,-0.24011974791,9.885587648509997,-0.7174999999999999,-1.6134999999999997,-2.3345000000000007
1.2705759819999685,-0.3780659708,-0.24167508259999998,9.9206424996,0.07,-1.54,-2.24,-0.38093735791999994,-0.2403590301699999,9.885707289639997,-0.7104999999999999,-1.6029999999999998,-2.3345000000000007
1.2809449410000298,-0.3756731482,-0.24167508259999998,9.923035322199999,0.0,-1.33,-2.0300000000000002,-0.3806980756599999,-0.24083759468999993,9.885468007379998,-0.728,-1.5924999999999998,-2.3240000000000007
1.2913608999999724,-0.39720855159999996,-0.24167508259999998,9.846464998999998,0.07,-1.4700000000000002,-2.1700000000000004,-0.38153556356999996,-0.2398804656499999,9.882357337999998,-0.7209999999999999,-1.5854999999999997,-2.3170000000000006
1.30210385700002,-0.39481572899999995,-0.2656033086,9.846464998999998,0.42000000000000004,-1.4000000000000001,-2.1700000000000004,-0.38273197486999994,-0.24083759468999993,9.88151985009,-0.7104999999999999,-1.5819999999999996,-2.3100000000000005
1.3123838169999544,-0.37088750299999995,-0.22492532440000002,9.887142983199999,0.0,-1.54,-2.3800000000000003,-0.38309089826,-0.24071795355999998,9.88128056783,-0.7244999999999998,-1.5784999999999996,-2.3135000000000003
1.3229597749999584,-0.38524443859999996,-0.23688943739999999,9.870393224999999,0.07,-1.6800000000000002,-2.31,-0.38297125713,-0.24107687695000002,9.88151985009,-0.735,-1.5819999999999996,-2.3205
1.3333937339999693,-0.39242290639999994,-0.23928225999999997,9.870393224999999,-0.07,-1.7500000000000002,-2.3800000000000003,-0.382851616,-0.24323041729000003,9.88104128557,-0.7595000000000001,-1.5889999999999997,-2.3065000000000007
1.3444356899999548,-0.3900300838,-0.26321048599999997,9.841679353799998,0.56,-1.61,-2.31,-0.38356946278000004,-0.24478575198000002,9.878528821839998,-0.7384999999999998,-1.5959999999999996,-2.299500000000001
1.3548196489999782,-0.39720855159999996,-0.22492532440000002,9.8727860476,17.78,-1.7500000000000002,-2.45,-0.38572300311999996,-0.24418754633,9.878050257319998,0.15050000000000024,-1.6029999999999998,-2.303000000000001
1.3651396080000495,-0.38763726119999997,-0.24646072779999997,9.836893708599998,-17.78,-1.6800000000000002,-2.24,-0.38572300311999996,-0.24394826406999998,9.874580664549997,-0.7559999999999999,-1.5994999999999997,-2.313500000000001
1.3754115670000147,-0.38285161599999995,-0.23210379219999996,9.8560362894,0.28,-1.7500000000000002,-2.1700000000000004,-0.38512479747,-0.24406790519999996,9.8751788702,-0.7454999999999999,-1.6064999999999998,-2.299500000000001
1.3846515310000314,-0.36849468039999994,-0.24885355039999998,9.865607579799999,-0.14,-1.61,-2.45,-0.38440695068999997,-0.24490539310999995,9.874221741159996,0.1365,-1.6064999999999998,-2.299500000000001
1.3955594880000035,-0.39481572899999995,-0.22013967919999997,9.884750160599998,-17.85,-1.4700000000000002,-2.31,-0.38476587407999996,-0.24394826406999998,9.875777075849996,-0.7595000000000001,-1.6064999999999998,-2.2960000000000007
1.405932446999941,-0.39481572899999995,-0.24406790519999996,9.865607579799999,0.42000000000000004,-1.33,-2.3800000000000003,-0.38428730956,-0.24335005841999996,9.874102100029997,-0.763,-1.582,-2.292500000000001
1.41693340300003,-0.38763726119999997,-0.22731814699999997,9.8727860476,0.14,-1.54,-2.45,-0.38500515634,-0.24119651807999998,9.873623535509996,-0.7595,-1.575,-2.3065000000000007
1.4274663610000289,-0.3756731482,-0.23928225999999997,9.8632147572,0.21000000000000002,-1.54,-2.3800000000000003,-0.38452659182,-0.24059831242999996,9.87314497099,-0.7349999999999999,-1.568,-2.3065000000000007
1.4375803210000413,-0.38524443859999996,-0.20817556619999997,9.8799645154,0.07,-1.6800000000000002,-2.7300000000000004,-0.38500515634,-0.23916261886999993,9.872427124209999,-0.7489999999999999,-1.5715,-2.3205000000000005
1.4478882810000187,-0.39242290639999994,-0.22492532440000002,9.877571692799998,-0.21000000000000002,-1.8200000000000003,-2.24,-0.38572300311999996,-0.23892333660999995,9.872427124209997,-0.77,-1.5819999999999996,-2.3135000000000003
1.458195240000009,-0.38524443859999996,-0.24885355039999998,9.887142983199999,0.0,-1.61,-2.3800000000000003,-0.38584264425,-0.23844477208999995,9.871948559689999,-0.7875000000000001,-1.5854999999999997,-2.317000000000001
1.4685751990000426,-0.3613162126,-0.2560320182,9.865607579799999,0.56,-1.8200000000000003,-2.31,-0.38488551521000003,-0.23880369547999997,9.87170927743,-0.7699999999999998,-1.5959999999999996,-2.3240000000000003
1.4788781580000432,-0.40917266459999996,-0.24406790519999996,9.8632147572,0.14,-1.6800000000000002,-2.3800000000000003,-0.3864408499,-0.23892333660999995,9.86883789031,-0.7664999999999998,-1.6029999999999998,-2.3310000000000004
1.4894551160000447,-0.38285161599999995,-0.23928225999999997,9.8727860476,0.35000000000000003,-1.54,-2.45,-0.38679977329000004,-0.23880369547999997,9.866325426579998,-0.7489999999999999,-1.6134999999999997,-2.3520000000000008
1.5002470729999686,-0.39242290639999994,-0.23688943739999999,9.853643466800001,-0.07,-1.61,-2.5200000000000005,-0.38656049103,-0.23856441321999994,9.866684349969999,-0.7559999999999999,-1.6204999999999998,-2.369500000000001
1.510436033000019,-0.35892339,-0.23210379219999996,9.846464998999998,0.14,-1.4000000000000001,-2.31,-0.38476587407999996,-0.23688943739999999,9.866684349969997,-0.7699999999999999,-1.6204999999999998,-2.376500000000001
1.5210549910000282,-0.39242290639999994,-0.24167508259999998,9.927820967399999,0.21000000000000002,-1.61,-2.24,-0.38584264425000003,-0.23772692531,9.86871824918,-0.7594999999999998,-1.6239999999999999,-2.369500000000001
1.5310779520000324,-0.36370903520000003,-0.2536391956,9.8799645154,-17.64,-1.6800000000000002,-2.31,-0.38476587408000007,-0.23856441321999994,9.8691968137,-1.645,-1.6239999999999999,-2.3695000000000004
1.5426519059999464,-0.37088750299999995,-0.23210379219999996,9.8991070962,0.28,-1.54,-2.1700000000000004,-0.38368910391,-0.23820548982999995,9.870632507260002,-1.6275,-1.6134999999999997,-2.359000000000001
1.5532518640000035,-0.38524443859999996,-0.24646072779999997,9.894321451,0.07,-1.7500000000000002,-2.1700000000000004,-0.38344982164999997,-0.23736800191999996,9.87326461212,-1.652,-1.6204999999999998,-2.3520000000000008
1.563556822999999,-0.36849468039999994,-0.25124637299999997,9.8727860476,0.14,-1.4700000000000002,-2.3800000000000003,-0.38201412808999996,-0.23868405434999995,9.87326461212,-2.534,-1.6064999999999998,-2.3485000000000005
1.5739317820000451,-0.36370903520000003,-0.23928225999999997,9.887142983199999,0.21000000000000002,-1.54,-2.24,-0.38081771679,-0.23832513095999994,9.87577707585,-1.6344999999999998,-1.5994999999999997,-2.3485000000000005
1.5845887399999583,-0.37328032559999996,-0.24406790519999996,9.8560362894,0.28,-1.54,-2.45,-0.38033915227,-0.23892333660999993,9.87577707585,-1.6344999999999998,-1.5889999999999997,-2.3625000000000003
1.5950146989999894,-0.4019941968,-0.23449661479999998,9.889535805799998,0.35000000000000003,-1.61,-2.45,-0.38201412808999996,-0.23820548982999995,9.87697348715,-1.6099999999999999,-1.5889999999999997,-2.3625000000000007
1.605735655999979,-0.38285161599999995,-0.2536391956,9.841679353799998,0.07,-1.8900000000000001,-2.1700000000000004,-0.3814159224399999,-0.23988046564999993,9.87481994681,-0.714,-1.6099999999999994,-2.3555
1.6161076150000326,-0.39481572899999995,-0.23688943739999999,9.8751788702,0.35000000000000003,-1.4700000000000002,-2.45,-0.38141592243999994,-0.23952154225999997,9.875298511329998,-0.7175,-1.6169999999999998,-2.359000000000001
1.6264995740000359,-0.4235296002,-0.23449661479999998,9.889535805799998,0.6300000000000001,-1.4700000000000002,-2.31,-0.38321053938999994,-0.23988046564999999,9.876135999239999,-0.6930000000000001,-1.6134999999999997,-2.352000000000001
1.6371855319999895,-0.3780659708,-0.25124637299999997,9.896714273599999,0.42000000000000004,-1.61,-2.31,-0.3833301805199999,-0.2404786713,9.877810975059997,-0.6824999999999999,-1.6169999999999998,-2.348500000000001
1.6480694890000223,-0.3756731482,-0.22731814699999997,9.882357337999998,0.28,-1.61,-2.31,-0.38285161599999995,-0.24143580033999998,9.877930616189998,-0.6719999999999999,-1.6134999999999997,-2.327500000000001
1.6585324469999705,-0.3756731482,-0.23688943739999999,9.896714273599999,0.28,-1.4700000000000002,-2.31,-0.3820141280899999,-0.24203400599,9.87888774523,-0.6475000000000001,-1.5959999999999996,-2.3310000000000004
1.6689454060000344,-0.39720855159999996,-0.23210379219999996,9.8680004024,-0.42000000000000004,-1.7500000000000002,-2.31,-0.3826123337399999,-0.24119651808000003,9.877930616189996,-0.6685000000000001,-1.6029999999999998,-2.327500000000001
1.679410364999967,-0.38763726119999997,-0.24406790519999996,9.8919286284,0.0,-1.54,-2.31,-0.38392838616999997,-0.24059831242999996,9.879246668619997,-0.6965,-1.589,-2.327500000000001
1.690190322000035,-0.38763726119999997,-0.24167508259999998,9.887142983199999,0.35000000000000003,-1.61,-2.3800000000000003,-0.382851616,-0.24047867129999995,9.880443079919996,-0.6859999999999999,-1.5855,-2.3275000000000006
1.7008942799999431,-0.39242290639999994,-0.24885355039999998,9.896714273599999,0.42000000000000004,-1.61,-2.31,-0.38333018052,-0.24095723581999992,9.881639491219998,-0.6824999999999998,-1.5889999999999997,-2.320500000000001
1.711213239000017,-0.37328032559999996,-0.23210379219999996,9.8727860476,-0.14,-1.61,-2.3800000000000003,-0.38237305148,-0.24071795355999992,9.882596620259998,-0.6859999999999998,-1.5889999999999997,-2.313500000000001
1.721664197999985,-0.36610185780000004,-0.24167508259999998,9.884750160599998,0.0,-1.61,-2.45,-0.38273197487,-0.24119651807999992,9.884510878339999,-0.6929999999999998,-1.5994999999999995,-2.3205000000000005
1.731990157000041,-0.38763726119999997,-0.24406790519999996,9.882357337999998,0.14,-1.4700000000000002,-2.1,-0.38249269261,-0.24131615920999994,9.882237696869996,-0.6964999999999998,-1.5924999999999998,-2.3135000000000003
1.7423551159999988,-0.39720855159999996,-0.2679961312,9.8680004024,-0.14,-1.61,-2.31,-0.38416766843000005,-0.24203400598999997,9.881639491219996,0.17850000000000002,-1.5889999999999997,-2.3135000000000003
1.753116073000001,-0.3780659708,-0.22492532440000002,9.839286531199999,0.28,-1.61,-2.45,-0.38452659182000004,-0.24167508259999995,9.878648462969997,0.17850000000000005,-1.5924999999999998,-2.3275000000000006
1.7633500330000516,-0.39720855159999996,-0.23210379219999996,9.846464998999998,0.49000000000000005,-1.4000000000000001,-2.3800000000000003,-0.38512479747000006,-0.24095723581999998,9.876255640369997,0.19950000000000007,-1.5749999999999997,-2.338
1.7738639909999847,-0.3780659708,-0.24406790519999996,9.8751788702,0.07,-1.8200000000000003,-2.3800000000000003,-0.38560336199,-0.24059831242999996,9.876375281499996,0.19600000000000006,-1.5924999999999998,-2.3380000000000005
1.7844139489999407,-0.38045879339999994,-0.2225325018,9.8919286284,0.35000000000000003,-1.7500000000000002,-2.31,-0.3864408499,-0.23976082451999997,9.876614563759997,0.20300000000000007,-1.6029999999999998,-2.3415000000000004
1.7949209079999946,-0.38285161599999995,-0.26321048599999997,9.8608219346,0.21000000000000002,-1.54,-2.1,-0.38691941442,-0.24071795355999998,9.87685384602,0.19950000000000007,-1.6029999999999998,-2.3240000000000007
1.8052708669999902,-0.39242290639999994,-0.2225325018,9.884750160599998,0.28,-1.6800000000000002,-2.31,-0.3864408499,-0.24011974790999996,9.876614563759999,0.19600000000000004,-1.6064999999999998,-2.3170000000000006
1.815676825999958,-0.36370903520000003,-0.25124637299999997,9.882357337999998,-0.07,-1.61,-2.1,-0.38548372086000005,-0.24000010678,9.878648462969997,0.18900000000000003,-1.5924999999999998,-2.3135000000000003
1.825744785999973,-0.38524443859999996,-0.24167508259999998,9.853643466800001,0.14,-1.61,-2.1,-0.38500515634,-0.24023938903999995,9.877571692799998,0.17850000000000005,-1.5994999999999995,-2.2960000000000003
1.8362627440000097,-0.38045879339999994,-0.23928225999999997,9.8751788702,0.8400000000000001,-1.4700000000000002,-2.45,-0.382851616,-0.24047867129999992,9.876853846019998,0.189,-1.5994999999999997,-2.3030000000000004
1.846862701999953,-0.37088750299999995,-0.24646072779999997,9.839286531199999,0.21000000000000002,-1.8900000000000001,-2.3800000000000003,-0.38249269260999996,-0.24023938903999995,9.873982458899999,0.17850000000000002,-1.6134999999999997,-2.3065000000000007
1.8574416599999495,-0.38045879339999994,-0.22731814699999997,9.829715240799999,0.14,-1.7500000000000002,-2.3800000000000003,-0.38273197486999994,-0.24023938903999995,9.87135035404,0.17150000000000004,-1.6204999999999998,-2.3100000000000005
1.867847619000031,-0.3565305674,-0.22013967919999997,9.877571692799998,0.0,-1.4700000000000002,-2.1700000000000004,-0.38177484583,-0.23940190112999998,9.870393224999997,0.1575,-1.6204999999999998,-2.3030000000000004
1.8780885789999502,-0.38285161599999995,-0.23928225999999997,9.851250644199999,0.0,-1.4700000000000002,-2.24,-0.38105699905,-0.23976082451999997,9.86955573709,0.17850000000000005,-1.6064999999999998,-2.2995000000000005
1.8887815360000104,-0.40677984199999995,-0.24167508259999998,9.9038927414,0.14,-1.6800000000000002,-2.1700000000000004,-0.38201412808999996,-0.2396411833899999,9.870153942739998,0.18550000000000005,-1.6134999999999997,-2.2925000000000004
1.8995594939999592,-0.39720855159999996,-0.2560320182,9.870393224999999,0.14,-1.61,-2.31,-0.38249269260999996,-0.24035903016999996,9.869316454829997,0.17500000000000002,-1.6134999999999997,-2.2890000000000006
1.9102094520000037,-0.3900300838,-0.24406790519999996,9.896714273599999,0.07,-1.7500000000000002,-2.3800000000000003,-0.38237305148,-0.24011974790999996,9.869316454829997,0.15750000000000003,-1.6204999999999998,-2.292500000000001
1.9196554139999762,-0.39242290639999994,-0.2584248408,9.8680004024,0.14,-1.4700000000000002,-2.24,-0.38333018051999995,-0.24143580033999995,9.869077172569998,0.1715,-1.6134999999999997,-2.2855000000000008
1.9318763659999831,-0.39481572899999995,-0.24167508259999998,9.889535805799998,-0.07,-1.54,-2.1700000000000004,-0.38476587408,-0.24143580033999998,9.869316454829999,0.168,-1.6099999999999999,-2.2715000000000005
1.942122325000014,-0.39481572899999995,-0.23928225999999997,9.889535805799998,0.0,-2.1,-2.24,-0.38512479747,-0.24119651807999992,9.86967537822,0.16100000000000003,-1.6414999999999995,-2.2785000000000006
1.9528342830000156,-0.38045879339999994,-0.25124637299999997,9.8560362894,0.42000000000000004,-1.8200000000000003,-2.45,-0.38428730956,-0.24035903017,9.86907717257,0.189,-1.6519999999999997,-2.2855000000000008
1.963284241999986,-0.3756731482,-0.23928225999999997,9.8632147572,0.35000000000000003,-1.54,-2.45,-0.38416766843,-0.24107687694999996,9.870273583869999,0.19250000000000006,-1.6484999999999999,-2.2855000000000003
1.9739002000000028,-0.38524443859999996,-0.25124637299999997,9.8799645154,-17.92,-1.61,-2.45,-0.38356946278000004,-0.24203400598999997,9.871948559689999,-0.728,-1.659,-2.2890000000000006
1.9843221579999408,-0.36849468039999994,-0.24406790519999996,9.8727860476,0.42000000000000004,-1.4700000000000002,-2.31,-0.38309089826,-0.24203400598999997,9.871828918559999,-0.7105,-1.6415,-2.285500000000001
1.9950361160000512,-0.39242290639999994,-0.21296121140000002,9.853643466800001,-0.21000000000000002,-1.7500000000000002,-2.24,-0.38368910391,-0.24155544146999994,9.86991466048,-0.7385,-1.6415,-2.282000000000001
2.0056600740000476,-0.38045879339999994,-0.24406790519999996,9.853643466800001,0.21000000000000002,-1.33,-2.31,-0.38356946278,-0.24059831242999996,9.86955573709,-0.7385,-1.6309999999999998,-2.2925000000000013
2.016196032000039,-0.36610185780000004,-0.24167508259999998,9.882357337999998,0.21000000000000002,-1.4700000000000002,-2.1700000000000004,-0.38225341035,-0.2415554414699999,9.86943609596,-0.742,-1.6204999999999998,-2.2855000000000008
2.0270019900000307,-0.3900300838,-0.23210379219999996,9.884750160599998,0.42000000000000004,-1.61,-2.24,-0.38356946278000004,-0.24059831242999996,9.86955573709,-0.7175,-1.6204999999999998,-2.292500000000001
2.0372589490000337,-0.38524443859999996,-0.25124637299999997,9.896714273599999,0.35000000000000003,-1.6800000000000002,-2.3800000000000003,-0.38356946278,-0.24107687694999996,9.871709277429996,-0.7070000000000001,-1.6239999999999999,-2.3065000000000007
2.0485249040000326,-0.4019941968,-0.22731814699999997,9.9038927414,0.0,-1.6800000000000002,-2.3800000000000003,-0.38464623294999994,-0.2404786713,9.873144970989998,-0.749,-1.6344999999999998,-2.303000000000001
2.0590568630000234,-0.38285161599999995,-0.23210379219999996,9.8727860476,0.21000000000000002,-1.7500000000000002,-2.24,-0.3852444385999999,-0.23976082451999997,9.874819946809998,-0.749,-1.6275,-2.2960000000000007
2.069556820999992,-0.39960137419999997,-0.24646072779999997,9.896714273599999,0.28,-1.54,-2.1700000000000004,-0.38620156763999997,-0.24071795356,9.878169898449999,-0.7419999999999999,-1.6169999999999998,-2.2855000000000008
2.0809737759999507,-0.3780659708,-0.2560320182,9.882357337999998,0.21000000000000002,-1.4000000000000001,-2.1700000000000004,-0.38727833780999993,-0.24251257050999997,9.878409180709998,-0.7314999999999998,-1.6134999999999997,-2.2855000000000003
2.0916457339999397,-0.4019941968,-0.23928225999999997,9.8799645154,0.07,-1.61,-2.1700000000000004,-0.38823546684999993,-0.24251257051000003,9.879844874269997,-0.7279999999999999,-1.6204999999999998,-2.2820000000000005
2.1020996920000243,-0.38285161599999995,-0.2727817764,9.848857821599998,-0.07,-1.6800000000000002,-2.24,-0.3870390555499999,-0.24406790520000002,9.877093128279999,-0.7384999999999999,-1.6204999999999998,-2.2855000000000008
2.1124056520000067,-0.38285161599999995,-0.23449661479999998,9.894321451,0.21000000000000002,-1.61,-2.1,-0.38632120877,-0.24299113502999997,9.878289539579999,-0.7349999999999999,-1.6204999999999998,-2.2750000000000004
2.123022610000021,-0.39720855159999996,-0.23210379219999996,9.877571692799998,0.42000000000000004,-1.54,-2.24,-0.3866801321599999,-0.24239292938,9.877332410539996,-0.7174999999999998,-1.6099999999999999,-2.2680000000000002
2.1336925670000255,-0.38285161599999995,-0.22013967919999997,9.8727860476,0.14,-1.61,-2.24,-0.3862015676399999,-0.24047867129999995,9.877571692799997,-0.7174999999999998,-1.6169999999999998,-2.2680000000000007
2.144076526000049,-0.38763726119999997,-0.22492532440000002,9.884750160599998,0.07,-1.7500000000000002,-2.24,-0.3858426442499999,-0.23964118338999998,9.877332410539998,-0.7104999999999998,-1.6275,-2.2715000000000005
2.1543744860000515,-0.37328032559999996,-0.24406790519999996,9.8680004024,0.35000000000000003,-1.6800000000000002,-2.3800000000000003,-0.38476587407999996,-0.23988046564999993,9.87625564037,-0.6929999999999998,-1.6064999999999998,-2.278500000000001
2.1649074440000504,-0.3780659708,-0.2727817764,9.894321451,0.56,-1.6800000000000002,-2.24,-0.38464623294999994,-0.24095723581999992,9.878169898449997,-0.6859999999999996,-1.5994999999999997,-2.268000000000001
2.175248402999955,-0.3613162126,-0.2608176634,9.870393224999999,0.42000000000000004,-1.6800000000000002,-2.31,-0.38392838616999997,-0.24203400598999997,9.878528821839998,-0.6824999999999996,-1.6064999999999998,-2.261000000000001
2.1855513619999556,-0.3900300838,-0.2536391956,9.839286531199999,0.42000000000000004,-1.61,-2.31,-0.38416766843,-0.24215364712,9.876494922629997,0.23450000000000001,-1.6065,-2.2540000000000013
2.195568322999975,-0.38524443859999996,-0.24885355039999998,9.841679353799998,0.14,-1.4700000000000002,-2.5200000000000005,-0.38500515634,-0.24239292937999996,9.874939587939998,0.2205,-1.6065,-2.2645000000000013
2.2060192809999535,-0.39242290639999994,-0.23688943739999999,9.851250644199999,0.35000000000000003,-1.4000000000000001,-2.1700000000000004,-0.38500515634,-0.24358934067999996,9.874819946809998,0.2485,-1.5889999999999997,-2.2610000000000015
2.216470240000035,-0.36610185780000004,-0.22492532440000002,9.896714273599999,0.42000000000000004,-1.8900000000000001,-2.45,-0.38428730956,-0.24263221163999998,9.876973487149998,0.259,-1.6169999999999998,-2.268000000000001
2.2267661989999397,-0.39720855159999996,-0.2536391956,9.9014999188,0.21000000000000002,-1.4700000000000002,-2.3800000000000003,-0.38584264425000003,-0.24323041729,9.87793061619,0.259,-1.6169999999999998,-2.278500000000001
2.2371751580000137,-0.4019941968,-0.23449661479999998,9.870393224999999,0.42000000000000004,-1.6800000000000002,-2.5900000000000003,-0.3864408499,-0.24335005842,9.877212769409997,0.259,-1.6204999999999998,-2.2960000000000007
2.247402117999968,-0.37088750299999995,-0.23928225999999997,9.884750160599998,0.0,-1.6800000000000002,-2.24,-0.38572300312,-0.24275185277000003,9.876614563759999,0.2415,-1.6204999999999998,-2.2890000000000006
2.25782007600003,-0.39481572899999995,-0.2560320182,9.8608219346,-0.07,-1.7500000000000002,-2.31,-0.38536407973000003,-0.24418754633,9.87446102342,0.238,-1.6239999999999999,-2.2855000000000003
2.267710037000029,-0.37328032559999996,-0.24406790519999996,9.846464998999998,-17.78,-1.4700000000000002,-2.3800000000000003,-0.38488551521000003,-0.24478575198,9.87314497099,-0.6615,-1.6099999999999999,-2.2925000000000004
2.2790629920000356,-0.35892339,-0.22971096959999998,9.889535805799998,0.56,-1.4700000000000002,-2.5200000000000005,-0.382851616,-0.24394826406999998,9.872786047599998,-0.6475000000000001,-1.6064999999999998,-2.310000000000001
2.2893709510000235,-0.39481572899999995,-0.23688943739999999,9.853643466800001,0.56,-1.6800000000000002,-2.1,-0.38368910391,-0.24299113502999997,9.87135035404,-0.63,-1.6204999999999998,-2.3065000000000007
2.2997429099999636,-0.37328032559999996,-0.23928225999999997,9.889535805799998,0.14,-1.61,-2.3800000000000003,-0.38225341035000004,-0.24299113502999994,9.87182891856,-0.6265,-1.6204999999999998,-2.317000000000001
2.3132878569999775,-0.4019941968,-0.23688943739999999,9.896714273599999,-17.64,-1.54,-2.3800000000000003,-0.38321053938999994,-0.24119651808000003,9.87422174116,-1.5050000000000001,-1.6134999999999997,-2.3240000000000007
2.3236578160000363,-0.3900300838,-0.22731814699999997,9.8680004024,-17.78,-1.61,-2.31,-0.38356946278,-0.24083759469000005,9.87290568873,-2.4045,-1.6134999999999997,-2.334500000000001
2.3339527749999434,-0.36849468039999994,-0.25124637299999997,9.853643466800001,0.28,-2.0300000000000002,-2.5900000000000003,-0.3821337692199999,-0.24179472373000005,9.87170927743,-2.4115,-1.638,-2.3520000000000008
2.344583733000036,-0.430708068,-0.2584248408,9.906285564,0.42000000000000004,-1.4700000000000002,-2.3800000000000003,-0.38452659181999993,-0.24370898181,9.873384253249998,-2.3975,-1.6309999999999998,-2.359000000000001
2.355361689999995,-0.38763726119999997,-0.25124637299999997,9.853643466800001,0.35000000000000003,-1.61,-2.45,-0.38452659181999993,-0.24502503423999994,9.87182891856,-2.3834999999999997,-1.6239999999999999,-2.369500000000001
2.365840649000006,-0.36370903520000003,-0.27517459899999996,9.870393224999999,0.21000000000000002,-1.4700000000000002,-2.31,-0.3840480273,-0.24658036893,9.871948559689999,-2.3905,-1.6134999999999997,-2.3660000000000005
2.376283607000005,-0.3900300838,-0.22492532440000002,9.8919286284,0.56,-1.61,-2.31,-0.38464623295,-0.24418754632999998,9.871828918559999,-2.3905,-1.6099999999999999,-2.3695000000000013
2.385413570999958,-0.3756731482,-0.24406790519999996,9.8440721764,0.35000000000000003,-1.61,-2.31,-0.38536407973,-0.24335005841999996,9.87051286613,-2.3939999999999992,-1.6065,-2.369500000000001
2.3962775280000415,-0.39481572899999995,-0.23928225999999997,9.8608219346,0.28,-1.4700000000000002,-2.45,-0.38560336199,-0.24263221163999998,9.8715896363,-2.4009999999999994,-1.5994999999999997,-2.376500000000001
2.406916486,-0.36610185780000004,-0.23928225999999997,9.829715240799999,0.28,-1.7500000000000002,-2.24,-0.38464623295000006,-0.24215364711999995,9.87099143065,-2.3939999999999992,-1.6134999999999997,-2.3625000000000007
2.417642442999977,-0.38045879339999994,-0.23688943739999999,9.870393224999999,0.0,-1.4700000000000002,-2.24,-0.38404802730000004,-0.24215364711999995,9.871948559689999,-2.4114999999999993,-1.6169999999999998,-2.3660000000000005
2.4278784030000224,-0.39481572899999995,-0.2584248408,9.896714273599999,0.21000000000000002,-1.4000000000000001,-2.45,-0.38548372086000005,-0.24382862294000002,9.871948559689999,-2.4219999999999997,-1.5924999999999998,-2.3660000000000005
2.4388383589999876,-0.37088750299999995,-0.2225325018,9.889535805799998,17.71,-1.54,-2.3800000000000003,-0.38416766843000005,-0.24227328825,9.871350354039999,-1.5469999999999995,-1.5959999999999996,-2.3660000000000005
2.44968931599999,-0.38285161599999995,-0.24167508259999998,9.853643466800001,0.21000000000000002,-1.6800000000000002,-2.45,-0.38321053939,-0.24263221163999998,9.870512866130001,-1.5574999999999997,-1.5959999999999996,-2.359000000000001
2.4603542739999966,-0.3756731482,-0.24406790519999996,9.858429112,0.21000000000000002,-1.4000000000000001,-2.24,-0.38344982165,-0.24287149389999993,9.8691968137,-1.5469999999999995,-1.5819999999999996,-2.359000000000001
2.4709512319999476,-0.38524443859999996,-0.2536391956,9.887142983199999,0.28,-1.61,-2.31,-0.38297125713,-0.24275185276999994,9.87051286613,-1.5294999999999994,-1.5749999999999997,-2.359000000000001
2.481365191000009,-0.40438701939999994,-0.24885355039999998,9.834500885999999,0.28,-1.6800000000000002,-2.0300000000000002,-0.38452659182,-0.24299113502999994,9.86991466048,-0.6264999999999992,-1.5854999999999997,-2.341500000000001
2.491612150000037,-0.37328032559999996,-0.23688943739999999,9.889535805799998,0.14,-1.6800000000000002,-2.3800000000000003,-0.38524443859999996,-0.24335005842,9.86991466048,-0.6474999999999993,-1.5959999999999996,-2.334500000000001
2.5009751129999813,-0.3780659708,-0.24406790519999996,9.8560362894,0.28,-1.61,-2.45,-0.3844069506899999,-0.24370898181,9.870034301610001,-0.6614999999999994,-1.5924999999999998,-2.3520000000000008
2.5101140770000256,-0.36610185780000004,-0.23688943739999999,9.887142983199999,0.28,-1.54,-2.1,-0.38404802729999993,-0.24358934068,9.869914660480001,-0.6544999999999994,-1.5889999999999997,-2.338000000000001
2.519304040999941,-0.39481572899999995,-0.25124637299999997,9.906285564,0.28,-1.54,-2.5900000000000003,-0.38368910390999994,-0.24430718745999996,9.870393224999999,0.24150000000000027,-1.5889999999999997,-2.3485000000000005
2.5300039979999838,-0.4019941968,-0.25124637299999997,9.9014999188,0.21000000000000002,-1.4700000000000002,-2.31,-0.38428730955999996,-0.24550359875999997,9.87206820082,1.1410000000000005,-1.5819999999999996,-2.3485000000000005
2.541704952000032,-0.3756731482,-0.25124637299999997,9.8249295956,0.07,-1.54,-2.31,-0.3846462329499999,-0.24550359875999997,9.87063250726,1.1305000000000005,-1.5574999999999997,-2.3345000000000007
2.5517939119999937,-0.41156548719999997,-0.24885355039999998,9.865607579799999,0.35000000000000003,-1.54,-2.45,-0.38368910390999994,-0.24502503423999994,9.868598608049998,1.1270000000000007,-1.5609999999999997,-2.3380000000000005
2.562177871000017,-0.38285161599999995,-0.26321048599999997,9.889535805799998,0.21000000000000002,-1.2600000000000002,-2.24,-0.3834498216499999,-0.24562323988999996,9.870393224999997,1.1200000000000006,-1.5434999999999999,-2.3275000000000006
2.572661829000026,-0.39720855159999996,-0.27517459899999996,9.925428144799998,0.56,-1.54,-2.1700000000000004,-0.38512479746999995,-0.24562323988999996,9.87314497099,1.1375000000000006,-1.547,-2.3205000000000005
2.5818917929999543,-0.39481572899999995,-0.22492532440000002,9.884750160599998,0.14,-1.54,-2.45,-0.38536407973000003,-0.24562323988999996,9.872786047599998,1.1165000000000007,-1.5434999999999999,-2.327500000000001
2.593168748000039,-0.3756731482,-0.24885355039999998,9.882357337999998,0.56,-1.7500000000000002,-2.45,-0.38536407973000003,-0.24586252214999993,9.874700305679998,1.1270000000000004,-1.5505,-2.334500000000001
2.6024337110000033,-0.38763726119999997,-0.2536391956,9.896714273599999,-0.07,-1.6800000000000002,-2.31,-0.38500515634,-0.2465803689299999,9.876494922629998,1.1095000000000004,-1.5609999999999997,-2.327500000000001
2.6139866649999703,-0.38763726119999997,-0.24646072779999997,9.9086783866,0.56,-1.54,-2.3800000000000003,-0.38608192650999995,-0.24693929231999995,9.880443079919997,1.1235000000000004,-1.5504999999999998,-2.3345000000000007
2.6250266219999503,-0.38285161599999995,-0.2536391956,9.8799645154,0.35000000000000003,-1.6800000000000002,-2.1700000000000004,-0.38620156763999997,-0.24777678022999994,9.880921644439997,1.1410000000000005,-1.5609999999999997,-2.3310000000000004
2.6361535779999485,-0.38285161599999995,-0.22971096959999998,9.865607579799999,0.14,-1.54,-2.31,-0.38560336199,-0.24634108666999993,9.879366309749997,1.1375000000000006,-1.5679999999999998,-2.3240000000000007
2.6462845370000423,-0.38763726119999997,-0.2608176634,9.906285564,0.49000000000000005,-1.33,-2.31,-0.3864408499,-0.24825534474999994,9.880203797659998,0.2765,-1.5574999999999999,-2.320500000000001
2.6567974959999674,-0.39481572899999995,-0.2584248408,9.8991070962,0.14,-1.4700000000000002,-2.1700000000000004,-0.38703905555,-0.24909283265999999,9.882476979129997,0.27299999999999996,-1.547,-2.3065000000000007
2.6683684500000027,-0.38524443859999996,-0.215354034,9.8751788702,-0.07,-1.61,-2.1700000000000004,-0.38751762007,-0.24765713909999998,9.883314467039998,0.259,-1.5574999999999999,-2.303000000000001
2.6780754119999983,-0.3900300838,-0.24167508259999998,9.894321451,0.14,-1.7500000000000002,-2.31,-0.38775690233,-0.24705893344999996,9.883673390429998,0.252,-1.5645,-2.3030000000000004
2.6897603649999837,-0.39481572899999995,-0.24167508259999998,9.927820967399999,-0.07,-1.61,-2.24,-0.38727833781,-0.24670001005999995,9.888339394499997,0.2345,-1.5609999999999995,-2.3135000000000003
2.7005463220000365,-0.3900300838,-0.26321048599999997,9.896714273599999,0.6300000000000001,-1.7500000000000002,-2.3800000000000003,-0.38811582572000003,-0.24801606248999994,9.888698317889999,0.259,-1.5644999999999996,-2.313500000000001
2.71112228100003,-0.38763726119999997,-0.24406790519999996,9.870393224999999,0.49000000000000005,-1.7500000000000002,-2.1700000000000004,-0.38859439024000003,-0.24801606249,9.88941616467,0.26949999999999996,-1.5714999999999997,-2.2995000000000005
2.7216332389999707,-0.3900300838,-0.24646072779999997,9.829715240799999,0.07,-1.61,-2.31,-0.38979080154000006,-0.24849462700999997,9.886544777549997,0.2590000000000001,-1.5749999999999997,-2.3100000000000005
2.7321061970000073,-0.39242290639999994,-0.22971096959999998,9.8680004024,0.42000000000000004,-1.61,-2.24,-0.38967116041000005,-0.24741785684,9.884630519469999,0.2660000000000001,-1.5784999999999996,-2.2925000000000004
2.74266115599994,-0.39720855159999996,-0.215354034,9.8560362894,0.14,-1.61,-1.9600000000000002,-0.3894318781500001,-0.24562323988999996,9.882357337999998,0.26250000000000007,-1.5854999999999997,-2.275000000000001
2.7529611149999482,-0.38524443859999996,-0.24406790519999996,9.925428144799998,0.21000000000000002,-1.4000000000000001,-2.31,-0.3899104426700001,-0.2452643165,9.88738226546,0.2695000000000001,-1.5784999999999998,-2.275000000000001
2.7633730740000146,-0.3900300838,-0.22492532440000002,9.834500885999999,-0.35000000000000003,-1.7500000000000002,-2.31,-0.3888336725,-0.24406790519999996,9.88582693077,0.23450000000000007,-1.5889999999999997,-2.2680000000000007
2.7725710370000343,-0.39242290639999994,-0.23928225999999997,9.9014999188,-0.07,-1.6800000000000002,-2.1,-0.38931223702000006,-0.24287149389999999,9.88642513642,0.22050000000000006,-1.6099999999999999,-2.2610000000000006
2.782476997999993,-0.36610185780000004,-0.2584248408,9.882357337999998,0.14,-1.8200000000000003,-2.1700000000000004,-0.3877569023300001,-0.24203400599,9.884271596079998,0.19950000000000007,-1.6239999999999999,-2.2610000000000006
2.790961963999962,-0.40677984199999995,-0.24406790519999996,9.8991070962,0.35000000000000003,-1.54,-2.31,-0.38835510798000006,-0.24299113503000003,9.88498944286,0.21000000000000005,-1.6239999999999999,-2.2540000000000004
2.799271931000021,-0.3565305674,-0.22731814699999997,9.853643466800001,0.42000000000000004,-1.54,-2.1700000000000004,-0.38739797894000005,-0.24191436486000004,9.8835537493,0.203,-1.6134999999999997,-2.240000000000001
2.8075088990000268,-0.38524443859999996,-0.23688943739999999,9.8632147572,-0.07,-1.4000000000000001,-2.31,-0.3872783378100001,-0.24107687695000002,9.88187877348,0.203,-1.5994999999999997,-2.2400000000000007
2.8159628649999604,-0.36849468039999994,-0.23449661479999998,9.8991070962,0.07,-1.61,-2.24,-0.38632120877000004,-0.24047867130000006,9.881400208959999,0.17850000000000002,-1.6029999999999998,-2.2330000000000005
2.8242638320000424,-0.3756731482,-0.23210379219999996,9.836893708599998,0.07,-1.54,-2.1700000000000004,-0.38596228538,-0.23940190113000007,9.879246668619999,0.16450000000000004,-1.5959999999999996,-2.2330000000000005
2.83315879700001,-0.37088750299999995,-0.23928225999999997,9.870393224999999,0.21000000000000002,-1.6800000000000002,-2.31,-0.38536407973,-0.23988046565000004,9.87948595088,0.168,-1.6029999999999998,-2.233000000000001
2.841493764000006,-0.38285161599999995,-0.22971096959999998,9.8751788702,0.28,-1.61,-2.31,-0.38512479746999995,-0.23832513096,9.87793061619,0.15750000000000003,-1.6169999999999998,-2.2330000000000005
2.8497677310000427,-0.40917266459999996,-0.24885355039999998,9.8680004024,0.49000000000000005,-1.7500000000000002,-2.1700000000000004,-0.3858426442499999,-0.23784656643999996,9.876375281499998,0.175,-1.6309999999999998,-2.2330000000000005
2.858260697999981,-0.3565305674,-0.24885355039999998,9.896714273599999,0.07,-1.7500000000000002,-2.24,-0.3844069506899999,-0.23952154225999994,9.877452051669998,0.182,-1.638,-2.2365000000000004
2.866638663999993,-0.3756731482,-0.23928225999999997,9.8727860476,0.56,-1.6800000000000002,-2.31,-0.38368910390999994,-0.23940190112999993,9.876375281499998,0.20299999999999999,-1.6344999999999998,-2.236500000000001
2.8748826319999807,-0.3756731482,-0.2536391956,9.882357337999998,0.14,-1.61,-2.31,-0.3827319748699999,-0.24000010678,9.874102100029999,0.21349999999999997,-1.6344999999999998,-2.240000000000001
2.8831935990000375,-0.38285161599999995,-0.26321048599999997,9.8273224182,0.42000000000000004,-1.61,-2.31,-0.3823730514799999,-0.24000010678,9.870632507259998,0.203,-1.6275,-2.2365000000000004
2.8914815660000386,-0.38763726119999997,-0.23210379219999996,9.8799645154,0.14,-1.54,-2.5200000000000005,-0.3823730514799999,-0.23940190112999998,9.871111071779998,0.18550000000000003,-1.6169999999999998,-2.2540000000000004
2.8998605330000373,-0.3565305674,-0.23688943739999999,9.884750160599998,0.28,-1.61,-2.3800000000000003,-0.38069807565999997,-0.23892333661,9.873862817769998,0.19600000000000004,-1.6169999999999998,-2.2575000000000007
2.908297499000014,-0.38285161599999995,-0.25124637299999997,9.8632147572,0.0,-1.7500000000000002,-2.24,-0.38021951113999997,-0.24000010677999994,9.873623535509997,0.17500000000000004,-1.6239999999999999,-2.257500000000001
2.9166784660000076,-0.40677984199999995,-0.24885355039999998,9.8727860476,0.0,-1.7500000000000002,-2.45,-0.3806980756599999,-0.24167508259999998,9.874461023419999,0.168,-1.6309999999999998,-2.282000000000001
2.9251254329999483,-0.37328032559999996,-0.24885355039999998,9.913464031799998,0.28,-1.33,-2.1700000000000004,-0.38009987000999995,-0.2419143648599999,9.873862817769998,0.17150000000000004,-1.6275,-2.275000000000001
2.9334903999999824,-0.3900300838,-0.23449661479999998,9.822536773,-0.07,-1.9600000000000002,-2.1700000000000004,-0.3800998700099999,-0.24239292937999993,9.87326461212,0.18550000000000005,-1.638,-2.2680000000000002
2.9418163670000013,-0.3756731482,-0.22971096959999998,9.894321451,0.07,-1.8900000000000001,-2.3800000000000003,-0.37926238209999996,-0.24191436485999995,9.872905688729999,0.19250000000000003,-1.6484999999999999,-2.282000000000001
2.950204332999988,-0.39960137419999997,-0.22731814699999997,9.870393224999999,-17.71,-1.61,-2.1700000000000004,-0.3809373579199999,-0.24035903016999996,9.872307483079997,-0.7,-1.638,-2.282000000000001
2.9585932999999613,-0.3493520996,-0.22971096959999998,9.8273224182,-17.85,-1.8200000000000003,-2.1700000000000004,-0.37806597079999993,-0.23964118338999998,9.868718249179999,-1.61,-1.652,-2.2750000000000004
2.9670052669999905,-0.37328032559999996,-0.2560320182,9.884750160599998,-0.14,-1.4700000000000002,-2.1700000000000004,-0.3789034587099999,-0.24107687694999994,9.870273583869999,-1.6380000000000003,-1.6484999999999999,-2.275000000000001
2.975418234000017,-0.38524443859999996,-0.2536391956,9.870393224999999,0.07,-1.6800000000000002,-2.1700000000000004,-0.37890345870999986,-0.24191436485999995,9.870632507259996,-1.6309999999999998,-1.6625,-2.2680000000000002
2.9837492010000233,-0.36610185780000004,-0.23928225999999997,9.8440721764,0.07,-1.7500000000000002,-2.24,-0.3787838175799999,-0.24215364711999995,9.867880761269998,-1.6310000000000002,-1.6695,-2.2680000000000007
2.9925371660000337,-0.36610185780000004,-0.2608176634,9.858429112,0.14,-1.6800000000000002,-2.31,-0.37830525306,-0.24358934067999996,9.86895753144,-1.6275,-1.6765,-2.275000000000001
3.001282131000039,-0.3900300838,-0.23449661479999998,9.870393224999999,0.21000000000000002,-1.54,-2.1700000000000004,-0.37926238209999996,-0.24335005842,9.868957531439998,-1.6275000000000002,-1.6695,-2.2680000000000007
3.0095510979999744,-0.39481572899999995,-0.2608176634,9.887142983199999,0.35000000000000003,-1.54,-2.45,-0.37986058775,-0.24490539310999998,9.869555737089998,-1.6239999999999999,-1.666,-2.2750000000000012
3.018056064999996,-0.39720855159999996,-0.22492532440000002,9.829715240799999,-0.14,-1.54,-2.31,-0.37926238210000013,-0.24370898181,9.867641479009999,-1.6555,-1.6555,-2.282000000000001
3.026232031999939,-0.3900300838,-0.2560320182,9.851250644199999,0.21000000000000002,-1.6800000000000002,-2.45,-0.3809373579200001,-0.24406790520000002,9.865368297539998,-1.6484999999999999,-1.652,-2.2925000000000013
3.0348919980000346,-0.3780659708,-0.2536391956,9.896714273599999,0.07,-1.4700000000000002,-2.45,-0.38105699905000007,-0.24478575198,9.866564708839999,-1.6729999999999996,-1.6415,-2.299500000000001
3.04321796499994,-0.36849468039999994,-0.24646072779999997,9.858429112,-0.21000000000000002,-1.9600000000000002,-2.5200000000000005,-0.3806980756600001,-0.24442682858999998,9.865368297539998,-1.6904999999999997,-1.659,-2.310000000000001
3.0516419319999386,-0.39720855159999996,-0.24406790519999996,9.8727860476,0.21000000000000002,-1.61,-2.24,-0.38141592244000005,-0.24346969955,9.867641479009999,-1.7009999999999998,-1.659,-2.3065000000000007
3.059949899000003,-0.39481572899999995,-0.24646072779999997,9.882357337999998,0.14,-1.4700000000000002,-2.5200000000000005,-0.38177484583000004,-0.24418754632999992,9.867761120139999,-1.7009999999999998,-1.6555,-2.306500000000001
3.068895862999966,-0.38285161599999995,-0.2608176634,9.8799645154,0.14,-1.61,-2.45,-0.38309089826000003,-0.24538395762999995,9.867521837879998,-1.7079999999999997,-1.6555,-2.310000000000001
3.0839638029999605,-0.38285161599999995,-0.23928225999999997,9.8799645154,0.21000000000000002,-1.6800000000000002,-2.5900000000000003,-0.38309089826,-0.24478575197999994,9.86835932579,-1.6974999999999998,-1.652,-2.327500000000001
3.0957007570000314,-0.38285161599999995,-0.2608176634,9.889535805799998,0.07,-1.54,-2.45,-0.38189448696,-0.24538395763000004,9.869196813699997,-1.6939999999999997,-1.6415,-2.3275000000000006
3.105897716999948,-0.36849468039999994,-0.2536391956,9.853643466800001,-0.14,-1.61,-2.24,-0.3816552047,-0.24562323988999996,9.866205785449997,-1.7149999999999999,-1.6555,-2.331000000000001
3.1163806749999594,-0.38763726119999997,-0.24885355039999998,9.8560362894,0.28,-1.4700000000000002,-2.31,-0.38153556356999996,-0.24634108667,9.867880761269998,-1.6974999999999998,-1.6309999999999998,-2.3380000000000005
3.1271066330000394,-0.38763726119999997,-0.23928225999999997,9.882357337999998,-0.28,-1.54,-2.31,-0.38213376922,-0.24681965118999996,9.867282555619997,-1.7149999999999999,-1.6134999999999997,-2.334500000000001
3.137302591999969,-0.3780659708,-0.24406790519999996,9.8680004024,0.49000000000000005,-1.7500000000000002,-2.3800000000000003,-0.38105699905,-0.24765713910000003,9.867162914489999,-0.8049999999999999,-1.6204999999999998,-2.3450000000000006
3.1471385529999907,-0.3780659708,-0.2536391956,9.865607579799999,-0.14,-1.7500000000000002,-2.24,-0.38249269260999996,-0.24885355039999996,9.869077172569998,0.08050000000000002,-1.6169999999999998,-2.348500000000001
3.157723510999972,-0.38524443859999996,-0.26321048599999997,9.8751788702,0.42000000000000004,-1.7500000000000002,-2.5200000000000005,-0.38309089826,-0.24921247379000003,9.868598608049998,0.10850000000000001,-1.6309999999999998,-2.3660000000000005
3.1682464699999855,-0.3900300838,-0.22971096959999998,9.8560362894,0.21000000000000002,-1.4700000000000002,-2.1700000000000004,-0.38333018051999995,-0.24801606249,9.86788076127,0.11550000000000002,-1.6204999999999998,-2.3660000000000005
3.1783194299999877,-0.38524443859999996,-0.23928225999999997,9.841679353799998,0.21000000000000002,-1.61,-2.31,-0.38428730955999996,-0.24801606249,9.867761120139999,0.12250000000000001,-1.6134999999999997,-2.369500000000001
3.1895083849999537,-0.40438701939999994,-0.22492532440000002,9.8680004024,0.21000000000000002,-1.4000000000000001,-2.31,-0.3862015676399999,-0.24622144553999994,9.86823968466,0.126,-1.5994999999999997,-2.369500000000001
3.2000233439999874,-0.3756731482,-0.2584248408,9.894321451,0.28,-1.6800000000000002,-2.3800000000000003,-0.38548372085999993,-0.24741785683999998,9.869436095960001,0.1295,-1.6064999999999998,-2.380000000000001
3.210519301999966,-0.4019941968,-0.24406790519999996,9.836893708599998,0.28,-1.6800000000000002,-2.31,-0.3858426442499999,-0.24658036893,9.86692363223,0.12600000000000003,-1.6134999999999997,-2.373
3.2211342599999853,-0.38285161599999995,-0.24406790519999996,9.9086783866,0.21000000000000002,-1.8200000000000003,-2.24,-0.38512479746999995,-0.24753749796999996,9.870871789519999,0.14350000000000002,-1.6275,-2.3695000000000004
3.231397218999973,-0.38763726119999997,-0.2536391956,9.8919286284,0.28,-1.61,-2.31,-0.38500515634,-0.24741785683999992,9.87290568873,0.14700000000000002,-1.6239999999999999,-2.3625000000000003
3.241756177999946,-0.37328032559999996,-0.22492532440000002,9.8991070962,0.07,-1.61,-2.31,-0.3847658740799999,-0.24598216327999997,9.873025329859999,0.147,-1.6309999999999998,-2.3555
3.2523631359999854,-0.38524443859999996,-0.23449661479999998,9.846464998999998,0.21000000000000002,-1.8900000000000001,-2.7300000000000004,-0.3856033619899999,-0.24538395763,9.872427124209999,0.16800000000000004,-1.6275,-2.3660000000000005
3.2628100949999634,-0.3780659708,-0.24885355039999998,9.8919286284,0.0,-1.7500000000000002,-2.1700000000000004,-0.3846462329499999,-0.24562323989,9.87338425325,0.1575,-1.6344999999999998,-2.3625000000000007
3.2728550550000364,-0.38285161599999995,-0.2177468566,9.8249295956,0.21000000000000002,-1.61,-2.5200000000000005,-0.3840480272999999,-0.24418754633,9.87051286613,0.161,-1.6415,-2.3625000000000003
3.2830710150000186,-0.36849468039999994,-0.23928225999999997,9.884750160599998,0.21000000000000002,-1.61,-2.45,-0.3833301805199999,-0.24311077616,9.870752148389998,0.16449999999999998,-1.6415,-2.3625000000000003
3.293653973000005,-0.39481572899999995,-0.22013967919999997,9.8799645154,0.42000000000000004,-1.61,-2.45,-0.38392838616999997,-0.24215364712,9.870752148389998,0.175,-1.6380000000000003,-2.355500000000001
3.3041899309999962,-0.3780659708,-0.22971096959999998,9.839286531199999,0.21000000000000002,-1.54,-2.45,-0.38368910390999994,-0.24059831242999996,9.868239684659999,0.182,-1.638,-2.3555
3.313346894999995,-0.3900300838,-0.2584248408,9.8799645154,0.35000000000000003,-1.8200000000000003,-2.1700000000000004,-0.38476587407999996,-0.24083759468999996,9.86955573709,0.2065,-1.6484999999999999,-2.3520000000000008
3.3235788539999476,-0.38524443859999996,-0.23210379219999996,9.865607579799999,0.14,-1.4700000000000002,-2.31,-0.38464623294999994,-0.24000010678,9.870034301609996,0.19949999999999998,-1.6484999999999999,-2.3520000000000008
3.335574805999954,-0.38524443859999996,-0.24406790519999996,9.870393224999999,0.21000000000000002,-1.6800000000000002,-2.1700000000000004,-0.38452659182,-0.24023938903999995,9.869436095959998,0.22399999999999998,-1.6555,-2.3450000000000006
3.346387762999939,-0.38763726119999997,-0.24167508259999998,9.839286531199999,0.35000000000000003,-1.54,-2.1700000000000004,-0.38500515634,-0.2401197479099999,9.868000402399996,0.217,-1.645,-2.334500000000001
3.3561847250000483,-0.38763726119999997,-0.23928225999999997,9.865607579799999,0.6300000000000001,-1.54,-2.24,-0.38548372086,-0.23940190112999993,9.868000402399996,0.25549999999999995,-1.6344999999999998,-2.3345000000000007
3.367544679000048,-0.3900300838,-0.25124637299999997,9.8680004024,0.21000000000000002,-1.61,-2.24,-0.38572300311999996,-0.2388036954799999,9.867641479009999,0.24500000000000002,-1.6275,-2.3205000000000005
3.3766496429999506,-0.3780659708,-0.215354034,9.8321080634,0.28,-1.4700000000000002,-2.24,-0.38512479747,-0.23808584869999994,9.866445067709996,0.24850000000000003,-1.6275,-2.3240000000000007
3.3862846050000144,-0.3565305674,-0.23688943739999999,9.889535805799998,-0.07,-1.61,-2.24,-0.38368910391,-0.23796620756999998,9.868837890309997,0.23450000000000001,-1.6275,-2.320500000000001
3.3946115720000307,-0.39481572899999995,-0.2656033086,9.894321451,0.49000000000000005,-1.4000000000000001,-2.31,-0.38321053939,-0.24000010678000003,9.87015394274,0.24850000000000003,-1.6275,-2.3205000000000005
3.405284530000017,-0.38763726119999997,-0.22731814699999997,9.887142983199999,-0.21000000000000002,-1.8200000000000003,-2.3800000000000003,-0.38380874504,-0.23844477209000003,9.869795019349999,0.22400000000000003,-1.6344999999999998,-2.320500000000001
3.413641496999958,-0.39481572899999995,-0.23210379219999996,9.858429112,0.07,-1.8200000000000003,-2.24,-0.38344982165,-0.23784656644000002,9.87087178952,0.21350000000000002,-1.6415,-2.317000000000001
3.42439845399997,-0.39242290639999994,-0.23688943739999999,9.8991070962,-17.92,-1.8900000000000001,-2.45,-0.38392838617,-0.23748764305,9.870393225,-0.6930000000000001,-1.6449999999999996,-2.327500000000001
3.434859412000037,-0.38524443859999996,-0.2536391956,9.851250644199999,-0.14,-1.61,-2.31,-0.38380874504,-0.23748764305,9.86835932579,-0.7140000000000001,-1.645,-2.327500000000001
3.4449453720000065,-0.3900300838,-0.23449661479999998,9.896714273599999,-0.07,-1.8200000000000003,-2.31,-0.38464623295000006,-0.23796620757000003,9.86823968466,-0.7210000000000001,-1.6555,-2.3275000000000015
3.455689330000041,-0.3756731482,-0.23688943739999999,9.884750160599998,0.0,-1.7500000000000002,-2.3800000000000003,-0.38416766843000005,-0.23808584870000002,9.87015394274,-0.7315000000000002,-1.6484999999999999,-2.3100000000000014
3.4653312919999735,-0.40677984199999995,-0.24167508259999998,9.8727860476,0.0,-1.61,-2.31,-0.38560336199,-0.23772692531,9.869196813699999,-0.7315000000000002,-1.6415,-2.317000000000001
3.4762492480000446,-0.38763726119999997,-0.2536391956,9.896714273599999,0.07,-1.4700000000000002,-2.1700000000000004,-0.38584264425000003,-0.23952154225999997,9.872786047599998,-0.7385,-1.6344999999999998,-2.299500000000001
3.486268207999956,-0.38285161599999995,-0.2536391956,9.853643466800001,-0.14,-1.6800000000000002,-2.1700000000000004,-0.38656049103,-0.24023938903999995,9.871230712909998,-0.756,-1.638,-2.285500000000001
3.4953441720000455,-0.38524443859999996,-0.2536391956,9.8560362894,0.14,-1.6800000000000002,-2.45,-0.38608192651,-0.24191436485999995,9.87003430161,-0.7700000000000001,-1.6415,-2.2855000000000008
3.5062321289999545,-0.39720855159999996,-0.2584248408,9.8751788702,0.35000000000000003,-1.54,-2.31,-0.38703905555,-0.24335005841999996,9.871828918559997,-0.7630000000000001,-1.6415,-2.2785
3.5153580930000317,-0.38763726119999997,-0.24406790519999996,9.887142983199999,0.28,-1.4000000000000001,-2.31,-0.38691941442,-0.24263221163999993,9.872187841949998,-0.7665000000000001,-1.6204999999999998,-2.2855000000000003
3.5271950459999744,-0.36610185780000004,-0.26321048599999997,9.8751788702,0.21000000000000002,-1.7500000000000002,-2.3800000000000003,-0.38596228538,-0.24418754632999998,9.872666406469998,-0.7630000000000001,-1.6344999999999998,-2.2890000000000006
3.538527001000034,-0.38524443859999996,-0.23688943739999999,9.865607579799999,0.42000000000000004,-1.4700000000000002,-2.1700000000000004,-0.38596228538,-0.24382862293999996,9.872427124209997,-0.7525000000000002,-1.6239999999999999,-2.2890000000000006
3.548977960000002,-0.3780659708,-0.24646072779999997,9.8560362894,0.07,-1.6800000000000002,-2.45,-0.38548372086000005,-0.24406790519999996,9.873264612119998,-0.7665,-1.6309999999999998,-2.303000000000001
3.559652916999994,-0.4019941968,-0.24885355039999998,9.865607579799999,0.07,-1.61,-2.45,-0.38620156764,-0.24454646972,9.87326461212,-0.7944999999999999,-1.6344999999999998,-2.313500000000001
3.570218875000023,-0.38763726119999997,-0.2584248408,9.8727860476,0.35000000000000003,-1.4000000000000001,-2.45,-0.38608192651,-0.24490539310999998,9.873503894379997,-0.7874999999999999,-1.6239999999999999,-2.3240000000000007
3.5810048329999518,-0.39481572899999995,-0.24406790519999996,9.877571692799998,0.49000000000000005,-1.33,-2.24,-0.38691941442,-0.24634108666999993,9.87577707585,-0.7769999999999997,-1.6169999999999998,-2.3240000000000007
3.592160788000001,-0.38285161599999995,-0.24646072779999997,9.834500885999999,0.7000000000000001,-1.4700000000000002,-2.31,-0.38823546685,-0.24681965118999996,9.873025329859999,-0.7384999999999998,-1.6099999999999999,-2.327500000000001
3.6006137550000403,-0.39242290639999994,-0.24406790519999996,9.8727860476,0.0,-1.4000000000000001,-2.31,-0.38811582572000003,-0.24574288101999991,9.871948559689999,-0.7629999999999998,-1.6099999999999999,-2.327500000000001
3.6089447220000466,-0.39960137419999997,-0.23928225999999997,9.8751788702,-0.14,-1.4700000000000002,-2.3800000000000003,-0.38871403137,-0.24634108666999993,9.871350354039997,-0.7594999999999998,-1.5924999999999998,-2.327500000000001
3.6175426879999577,-0.3756731482,-0.24406790519999996,9.9014999188,0.7000000000000001,-1.4700000000000002,-2.1,-0.38775690233,-0.24693929231999992,9.873503894379997,-0.7279999999999999,-1.5749999999999997,-2.3205000000000005
3.625835654999946,-0.39720855159999996,-0.23449661479999998,9.851250644199999,0.35000000000000003,-1.4000000000000001,-2.31,-0.38799618459,-0.24681965119,9.871111071779996,0.18550000000000005,-1.5504999999999995,-2.3135000000000003
3.634414621000019,-0.3780659708,-0.24406790519999996,9.882357337999998,0.07,-1.4000000000000001,-2.24,-0.38763726119999997,-0.24634108667,9.872666406469998,0.19600000000000004,-1.5399999999999996,-2.3100000000000005
3.6427645879999773,-0.35892339,-0.24167508259999998,9.884750160599998,0.28,-1.4000000000000001,-2.24,-0.38608192651,-0.24670001005999995,9.872068200819998,0.21350000000000002,-1.5189999999999995,-2.3065000000000007
3.651127554000027,-0.3613162126,-0.24406790519999996,9.877571692799998,-0.56,-1.54,-2.45,-0.38536407973,-0.24705893344999996,9.871709277429996,0.18550000000000003,-1.5084999999999993,-2.3100000000000005
3.659474520999993,-0.3565305674,-0.23688943739999999,9.853643466800001,-0.21000000000000002,-1.61,-2.5200000000000005,-0.38285161600000006,-0.24681965118999996,9.870752148389998,0.17500000000000002,-1.5084999999999995,-2.320500000000001
3.668008486999952,-0.3900300838,-0.2177468566,9.884750160599998,0.07,-1.7500000000000002,-2.31,-0.38297125713,-0.24502503424,9.87015394274,0.17500000000000004,-1.5224999999999995,-2.3275000000000006
3.6763984540000365,-0.3756731482,-0.25124637299999997,9.877571692799998,0.49000000000000005,-1.61,-2.5200000000000005,-0.38261233374000003,-0.24490539310999998,9.871350354039999,0.20650000000000004,-1.5189999999999997,-2.3450000000000006
3.6848244210000303,-0.39481572899999995,-0.2536391956,9.853643466800001,-0.21000000000000002,-1.54,-2.5200000000000005,-0.38309089826,-0.24490539310999998,9.871230712909998,0.18900000000000006,-1.5119999999999996,-2.3485000000000005
3.693203388000029,-0.39481572899999995,-0.2536391956,9.8680004024,0.14,-1.33,-2.45,-0.38297125713,-0.24466611084999998,9.870871789519999,0.17850000000000005,-1.5014999999999996,-2.355500000000001
3.70160935399997,-0.38045879339999994,-0.2560320182,9.846464998999998,-0.35000000000000003,-1.6800000000000002,-2.1700000000000004,-0.38261233374000003,-0.24526431649999997,9.868837890309997,0.14700000000000002,-1.5154999999999998,-2.348500000000001
3.709997320999946,-0.38045879339999994,-0.2560320182,9.8560362894,0.35000000000000003,-1.4000000000000001,-2.1,-0.38333018052,-0.24490539310999995,9.867880761269998,0.15400000000000003,-1.4979999999999998,-2.334500000000001
3.718471286999943,-0.38524443859999996,-0.22731814699999997,9.8991070962,0.21000000000000002,-1.6800000000000002,-2.5200000000000005,-0.38333018051999995,-0.24442682858999998,9.86955573709,0.14350000000000002,-1.5084999999999997,-2.352000000000001
3.726895253999942,-0.38763726119999997,-0.24885355039999998,9.8799645154,0.35000000000000003,-1.4700000000000002,-2.24,-0.38380874503999995,-0.24454646972,9.87075214839,0.15750000000000003,-1.498,-2.341500000000001
3.735250221000001,-0.3756731482,-0.2536391956,9.870393224999999,0.21000000000000002,-1.6800000000000002,-2.1,-0.38249269260999996,-0.24478575197999994,9.870991430649998,0.1645,-1.5015,-2.3240000000000007
3.7436661870000307,-0.36849468039999994,-0.24406790519999996,9.8560362894,0.28,-1.54,-2.1700000000000004,-0.38153556356999996,-0.24406790519999993,9.87015394274,0.16100000000000003,-1.5084999999999997,-2.3100000000000005
3.752076153999951,-0.3900300838,-0.2225325018,9.846464998999998,0.21000000000000002,-1.4700000000000002,-2.5200000000000005,-0.38129628131,-0.24299113502999994,9.868598608049998,0.14700000000000002,-1.5154999999999998,-2.3240000000000007
3.7604461209999727,-0.4019941968,-0.23928225999999997,9.882357337999998,-0.07,-1.54,-2.31,-0.38225341035,-0.24263221163999998,9.870991430649998,0.10850000000000001,-1.5189999999999997,-2.3240000000000007
3.7689070870000023,-0.3780659708,-0.24167508259999998,9.889535805799998,0.56,-1.54,-2.1700000000000004,-0.3815355635699999,-0.24251257050999997,9.871828918559999,0.1365,-1.5259999999999998,-2.317000000000001
3.777301053999963,-0.38763726119999997,-0.23928225999999997,9.8799645154,-17.57,-1.61,-2.3800000000000003,-0.38093735791999994,-0.24251257051000003,9.87206820082,-0.735,-1.5329999999999997,-2.3170000000000006
3.78561602100001,-0.3756731482,-0.2656033086,9.8440721764,17.85,-1.54,-2.24,-0.3809373579199999,-0.24358934067999996,9.869196813699999,0.12250000000000005,-1.5364999999999998,-2.3240000000000007
3.793860988000006,-0.38285161599999995,-0.2225325018,9.9038927414,0.28,-1.8900000000000001,-2.24,-0.38021951113999986,-0.24299113502999997,9.871828918559999,0.11900000000000008,-1.5609999999999997,-2.320500000000001
3.8021589549999817,-0.38524443859999996,-0.2536391956,9.8440721764,0.07,-1.8200000000000003,-2.31,-0.3805784345299999,-0.24346969955,9.86991466048,0.11900000000000006,-1.5819999999999999,-2.324000000000001
3.8103239229999417,-0.3780659708,-0.24885355039999998,9.884750160599998,0.07,-1.4700000000000002,-2.31,-0.3815355635699999,-0.24382862293999996,9.869914660479997,0.1085,-1.5855,-2.327500000000001
3.8194408870000416,-0.37328032559999996,-0.23688943739999999,9.858429112,0.07,-1.8200000000000003,-2.5200000000000005,-0.38213376921999986,-0.24346969955,9.86895753144,0.1400000000000001,-1.5995,-2.331000000000001
3.8280448530000513,-0.37328032559999996,-0.24406790519999996,9.9110712092,-0.14,-1.61,-2.0300000000000002,-0.38297125712999985,-0.24382862294000002,9.87182891856,0.14350000000000004,-1.5994999999999997,-2.3065000000000007
3.8364678189999495,-0.36610185780000004,-0.22971096959999998,9.8632147572,0.35000000000000003,-1.7500000000000002,-2.24,-0.38177484583,-0.24442682858999998,9.87075214839,0.15750000000000003,-1.5995,-2.303000000000001
3.8447237860000314,-0.38524443859999996,-0.22971096959999998,9.8799645154,0.14,-1.6800000000000002,-2.31,-0.38225341034999993,-0.24335005841999996,9.870871789519999,0.14000000000000004,-1.6030000000000002,-2.292500000000001
3.8533437520000007,-0.37328032559999996,-0.24646072779999997,9.841679353799998,0.35000000000000003,-1.54,-2.1700000000000004,-0.38117664017999997,-0.24299113502999994,9.870273583869999,0.1680000000000001,-1.6030000000000002,-2.275000000000001
3.8617847189999566,-0.3900300838,-0.26321048599999997,9.846464998999998,0.21000000000000002,-1.7500000000000002,-2.5900000000000003,-0.38093735791999994,-0.24346969954999995,9.8691968137,0.17150000000000004,-1.6239999999999999,-2.282000000000001
3.8701946850000013,-0.39720855159999996,-0.25124637299999997,9.8680004024,0.28,-1.54,-2.45,-0.38177484583,-0.24323041728999995,9.870273583870002,0.203,-1.6169999999999998,-2.2960000000000007
3.878599652000048,-0.38045879339999994,-0.22971096959999998,9.8991070962,0.6300000000000001,-1.4700000000000002,-2.31,-0.38177484583,-0.24191436486,9.87242712421,0.21700000000000003,-1.6204999999999998,-2.3065000000000007
3.8869806190000418,-0.3756731482,-0.22971096959999998,9.870393224999999,0.14,-1.6800000000000002,-2.1700000000000004,-0.38129628130999993,-0.24203400599,9.87099143065,0.21349999999999997,-1.6204999999999998,-2.2890000000000006
3.8954605850000235,-0.38524443859999996,-0.2536391956,9.8919286284,0.21000000000000002,-1.61,-2.3800000000000003,-0.38117664017999997,-0.24227328825,9.871589636299998,0.20650000000000018,-1.6275,-2.2960000000000003
3.9062595420000434,-0.38524443859999996,-0.23928225999999997,9.8680004024,0.42000000000000004,-1.8200000000000003,-2.1,-0.38165520470000003,-0.24155544147,9.871469995169997,0.21700000000000014,-1.6344999999999998,-2.2960000000000003
3.918725493000011,-0.39242290639999994,-0.23210379219999996,9.8727860476,0.42000000000000004,-1.6800000000000002,-2.31,-0.38285161600000006,-0.24095723582,9.872307483079997,0.22400000000000006,-1.6415,-2.303000000000001
3.928288455000029,-0.41156548719999997,-0.23688943739999999,9.846464998999998,0.14,-1.54,-2.1700000000000004,-0.38392838616999997,-0.24167508260000004,9.872307483079998,0.2205,-1.645,-2.285500000000001
3.9382044159999623,-0.36610185780000004,-0.23928225999999997,9.8751788702,0.28,-1.33,-2.24,-0.38213376922000003,-0.24167508260000004,9.871948559689997,0.23800000000000004,-1.6344999999999998,-2.282000000000001
3.946873381000046,-0.3613162126,-0.23210379219999996,9.853643466800001,0.49000000000000005,-1.54,-2.5900000000000003,-0.38129628131000004,-0.24119651808000003,9.87015394274,0.2345000000000001,-1.6344999999999998,-2.303000000000001
3.957489338999949,-0.38285161599999995,-0.22971096959999998,9.882357337999998,0.28,-1.4700000000000002,-2.3800000000000003,-0.38105699905,-0.24071795355999998,9.870273583869999,1.1270000000000007,-1.6275,-2.303000000000001
3.967596298999979,-0.3565305674,-0.23210379219999996,9.877571692799998,0.35000000000000003,-1.54,-2.24,-0.38009987001000006,-0.23904297774,9.871948559689997,0.25200000000000006,-1.6275,-2.303000000000001
3.979149252999946,-0.37088750299999995,-0.24646072779999997,9.8919286284,0.56,-1.4700000000000002,-2.3800000000000003,-0.37950166436000005,-0.24023938904,9.871350354039997,0.266,-1.6064999999999998,-2.310000000000001
3.9898982099999785,-0.3756731482,-0.24406790519999996,9.846464998999998,0.0,-1.61,-2.3800000000000003,-0.37902309984000004,-0.23976082451999994,9.87146999517,0.2625,-1.5959999999999996,-2.313500000000001
4.00062216799995,-0.36610185780000004,-0.25124637299999997,9.8680004024,0.42000000000000004,-1.33,-2.5200000000000005,-0.37842489419,-0.2398804656499999,9.870632507259998,0.27999999999999997,-1.5889999999999997,-2.3240000000000007
4.01092912699994,-0.40438701939999994,-0.25124637299999997,9.8680004024,0.0,-1.6800000000000002,-2.1700000000000004,-0.37998022888,-0.2405983124299999,9.871111071779998,0.2765000000000001,-1.5819999999999996,-2.3065000000000007
4.021336086000019,-0.39242290639999994,-0.23688943739999999,9.8321080634,0.14,-1.61,-2.24,-0.38093735792,-0.24023938903999995,9.867162914489999,0.2905,-1.5819999999999996,-2.317000000000001
4.03164304500001,-0.3756731482,-0.23210379219999996,9.887142983199999,0.42000000000000004,-1.4700000000000002,-2.1700000000000004,-0.38141592243999994,-0.24035903017,9.86835932579,0.294,-1.5679999999999996,-2.313500000000001
4.042225002999999,-0.4019941968,-0.23449661479999998,9.865607579799999,0.42000000000000004,-1.4000000000000001,-2.5200000000000005,-0.38225341034999993,-0.24059831243000002,9.867641479009999,0.30799999999999994,-1.5539999999999996,-2.3240000000000007
4.053051959999948,-0.38524443859999996,-0.22492532440000002,9.896714273599999,0.07,-1.61,-2.5200000000000005,-0.3828516159999999,-0.23952154226000003,9.870393224999999,0.29400000000000004,-1.5574999999999997,-2.341500000000001
4.063439918999961,-0.38524443859999996,-0.24885355039999998,9.841679353799998,0.14,-1.8200000000000003,-2.5200000000000005,-0.3826123337399999,-0.23880369547999997,9.870153942739998,0.29050000000000004,-1.561,-2.338000000000001
4.074121876000049,-0.3780659708,-0.24167508259999998,9.8608219346,0.21000000000000002,-1.6800000000000002,-2.3800000000000003,-0.3816552046999999,-0.23832513095999994,9.86979501935,0.28700000000000003,-1.568,-2.3345000000000007
4.08478783399994,-0.39481572899999995,-0.24167508259999998,9.8919286284,0.21000000000000002,-1.33,-2.3800000000000003,-0.38237305148,-0.23892333660999993,9.869436095959998,0.266,-1.561,-2.3380000000000005
4.094646795000017,-0.38524443859999996,-0.22971096959999998,9.9014999188,0.7000000000000001,-1.61,-2.3800000000000003,-0.382851616,-0.23892333660999993,9.870991430650001,0.29400000000000004,-1.5574999999999999,-2.348500000000001
4.105083753000031,-0.38045879339999994,-0.24646072779999997,9.8560362894,0.6300000000000001,-1.4700000000000002,-2.45,-0.38261233374,-0.2385644132199999,9.8691968137,0.31500000000000006,-1.5505,-2.352000000000001
4.115294713000026,-0.3900300838,-0.23928225999999997,9.894321451,0.14,-1.54,-2.5200000000000005,-0.382851616,-0.23856441321999994,9.87051286613,0.301,-1.5364999999999998,-2.373000000000001
4.125354672999947,-0.38524443859999996,-0.23210379219999996,9.877571692799998,0.35000000000000003,-1.61,-2.45,-0.38249269260999996,-0.23856441321999994,9.87075214839,0.2975,-1.533,-2.3800000000000012
4.137268626000036,-0.40438701939999994,-0.2225325018,9.848857821599998,-0.14,-1.7500000000000002,-2.24,-0.38213376922,-0.23784656643999993,9.870871789519999,0.2835,-1.5434999999999999,-2.383500000000001
4.147461584999974,-0.39720855159999996,-0.23928225999999997,9.882357337999998,0.28,-1.6800000000000002,-2.1,-0.38368910391,-0.23784656643999993,9.871230712909998,0.2835,-1.561,-2.376500000000001
4.1580415429999675,-0.37088750299999995,-0.2009970984,9.8440721764,0.49000000000000005,-1.7500000000000002,-2.1,-0.38416766842999994,-0.23629123175000002,9.87075214839,0.28350000000000003,-1.5715,-2.3520000000000008
4.168454502000031,-0.38045879339999994,-0.24646072779999997,9.858429112,0.28,-1.8200000000000003,-2.3800000000000003,-0.3840480273,-0.23712871965999996,9.86955573709,0.28350000000000003,-1.589,-2.3520000000000008
4.17889746100002,-0.38763726119999997,-0.23688943739999999,9.8608219346,0.28,-1.6800000000000002,-2.1700000000000004,-0.38560336199,-0.23736800192000002,9.86871824918,0.28,-1.5959999999999996,-2.3485000000000005
4.189854416999992,-0.39720855159999996,-0.24885355039999998,9.853643466800001,0.49000000000000005,-1.4700000000000002,-2.24,-0.38691941442,-0.23748764305,9.866803991100001,0.2765000000000001,-1.5959999999999999,-2.3415000000000004
4.200827374000028,-0.38763726119999997,-0.23688943739999999,9.887142983199999,0.35000000000000003,-1.54,-2.31,-0.38751762007,-0.23712871966,9.868837890310001,0.29400000000000004,-1.5924999999999998,-2.338
4.21162533100005,-0.38524443859999996,-0.22971096959999998,9.858429112,0.0,-1.7500000000000002,-2.45,-0.38847474910999996,-0.23605194949000002,9.86835932579,0.273,-1.6134999999999997,-2.3345000000000007
4.221857290000003,-0.36849468039999994,-0.25124637299999997,9.8608219346,0.21000000000000002,-1.61,-2.31,-0.38668013215999997,-0.23605194949000002,9.868000402400002,0.28350000000000003,-1.61,-2.341500000000001
4.2324672480000345,-0.38763726119999997,-0.25124637299999997,9.848857821599998,0.8400000000000001,-1.4000000000000001,-2.31,-0.3864408499,-0.23676979626999994,9.868837890310001,0.31850000000000006,-1.5994999999999997,-2.345000000000001
4.243106205999993,-0.39481572899999995,-0.22731814699999997,9.848857821599998,0.35000000000000003,-1.61,-2.24,-0.38739797894,-0.23653051400999994,9.866923632230002,0.315,-1.6064999999999998,-2.3485000000000005
4.253460164999979,-0.39242290639999994,-0.22731814699999997,9.8799645154,0.42000000000000004,-1.4000000000000001,-2.3800000000000003,-0.38691941442,-0.23617159061999998,9.86764147901,0.315,-1.6064999999999998,-2.341500000000001
4.264202122000029,-0.40438701939999994,-0.2560320182,9.8608219346,0.56,-1.54,-2.5200000000000005,-0.38787654346,-0.23772692530999998,9.865846862060001,0.3395,-1.6029999999999998,-2.341500000000001
4.27435208199995,-0.3756731482,-0.24885355039999998,9.889535805799998,0.07,-1.4700000000000002,-2.1700000000000004,-0.38739797894,-0.23772692530999998,9.86823968466,0.336,-1.5854999999999997,-2.3240000000000007
4.2849200399999745,-0.37088750299999995,-0.23210379219999996,9.8799645154,0.42000000000000004,-1.4700000000000002,-2.0300000000000002,-0.38703905554999996,-0.23724836078999995,9.8691968137,0.3465,-1.5749999999999997,-2.3065000000000007
4.295430998000029,-0.38524443859999996,-0.22731814699999997,9.8727860476,0.49000000000000005,-1.61,-2.31,-0.3865604910299999,-0.23653051400999997,9.868239684659999,0.36050000000000004,-1.5889999999999995,-2.3030000000000004
4.305889956999977,-0.3900300838,-0.24646072779999997,9.8440721764,0.07,-1.6800000000000002,-2.31,-0.3867997732899999,-0.23736800191999996,9.865368297539998,0.32900000000000007,-1.5924999999999998,-2.2995000000000005
4.317002912000021,-0.38524443859999996,-0.23449661479999998,9.9014999188,0.28,-1.61,-2.1700000000000004,-0.38703905554999996,-0.23676979627,9.867641479009997,0.31150000000000005,-1.5994999999999995,-2.2855000000000008
4.327437871000029,-0.38285161599999995,-0.24167508259999998,9.870393224999999,0.28,-1.8200000000000003,-2.5200000000000005,-0.38668013215999997,-0.23688943739999996,9.866445067709996,0.3185000000000001,-1.6134999999999997,-2.2855000000000003
4.337886830000002,-0.39720855159999996,-0.23210379219999996,9.889535805799998,-17.71,-1.61,-2.31,-0.38727833781,-0.23688943739999996,9.867043273359997,-0.5845,-1.6134999999999997,-2.2785000000000006
4.34825978799995,-0.38045879339999994,-0.2536391956,9.8560362894,0.28,-1.7500000000000002,-2.31,-0.38608192650999995,-0.23844477208999995,9.867402196749998,-0.5635000000000001,-1.6134999999999997,-2.282000000000001
4.358725746999994,-0.37088750299999995,-0.23928225999999997,9.877571692799998,0.0,-1.61,-2.5200000000000005,-0.38476587407999996,-0.23844477208999998,9.867162914489999,-0.5774999999999999,-1.6099999999999999,-2.303000000000001
4.369393704000004,-0.3900300838,-0.215354034,9.853643466800001,-0.28,-1.6800000000000002,-2.45,-0.38572300311999996,-0.23916261886999995,9.867641479009999,-0.616,-1.6064999999999998,-2.320500000000001
4.3801786620000485,-0.36370903520000003,-0.24646072779999997,9.8680004024,0.14,-1.4700000000000002,-2.24,-0.38488551521000003,-0.23916261886999993,9.868120043529998,-0.623,-1.589,-2.313500000000001
4.389426624999942,-0.38285161599999995,-0.2584248408,9.887142983199999,0.14,-1.54,-2.1700000000000004,-0.38464623295,-0.24023938903999995,9.86943609596,-0.6299999999999999,-1.5819999999999999,-2.313500000000001
4.4012235779999855,-0.38763726119999997,-0.24406790519999996,9.870393224999999,0.35000000000000003,-1.54,-2.5200000000000005,-0.38416766843,-0.24000010677999994,9.870273583869999,-0.637,-1.5855,-2.327500000000001
4.411496536999948,-0.3780659708,-0.22492532440000002,9.8560362894,0.14,-1.54,-2.3800000000000003,-0.38368910391,-0.23940190112999998,9.86871824918,-0.6475,-1.5855,-2.331000000000001
4.421454498000003,-0.39242290639999994,-0.23210379219999996,9.896714273599999,0.21000000000000002,-1.61,-2.31,-0.3840480273,-0.23952154225999997,9.87063250726,-0.6369999999999999,-1.5784999999999996,-2.3240000000000007
4.432339454000044,-0.3613162126,-0.24167508259999998,9.889535805799998,0.21000000000000002,-1.4700000000000002,-2.31,-0.38368910391,-0.23904297773999997,9.872068200819998,-0.6369999999999998,-1.5714999999999997,-2.3240000000000007
4.442949411999962,-0.40438701939999994,-0.2536391956,9.8919286284,0.0,-1.61,-2.45,-0.38452659182,-0.23916261886999995,9.87422174116,-0.6789999999999998,-1.5819999999999996,-2.331000000000001
4.453513369999996,-0.38763726119999997,-0.23449661479999998,9.9086783866,0.14,-1.7500000000000002,-2.3800000000000003,-0.38416766843,-0.23952154226000003,9.877212769409999,-0.6894999999999999,-1.5889999999999997,-2.338000000000001
4.463670330000014,-0.39960137419999997,-0.24646072779999997,9.896714273599999,0.35000000000000003,-1.4700000000000002,-2.1700000000000004,-0.38452659182,-0.2404786713,9.878050257319998,-0.6929999999999998,-1.5924999999999998,-2.327500000000001
4.474337287000026,-0.38285161599999995,-0.24646072779999997,9.841679353799998,0.07,-1.61,-2.24,-0.38344982165,-0.24000010678,9.877093128279999,-0.7174999999999999,-1.5959999999999996,-2.313500000000001
4.484737246000009,-0.39720855159999996,-0.24885355039999998,9.865607579799999,0.07,-1.54,-2.24,-0.38452659182,-0.24000010677999994,9.87589671698,-0.7174999999999999,-1.5994999999999995,-2.317000000000001
4.494688206999967,-0.3780659708,-0.25124637299999997,9.858429112,0.07,-1.7500000000000002,-2.1700000000000004,-0.38488551521,-0.24095723581999992,9.874819946810002,-0.7349999999999998,-1.6134999999999997,-2.3240000000000007
4.503978169999982,-0.3756731482,-0.2584248408,9.887142983199999,0.14,-1.4700000000000002,-2.45,-0.38440695068999997,-0.24251257050999997,9.87553779359,-0.7524999999999997,-1.6064999999999998,-2.3310000000000004
4.515493124000045,-0.36610185780000004,-0.23688943739999999,9.896714273599999,0.49000000000000005,-1.4000000000000001,-2.1700000000000004,-0.38321053938999994,-0.24203400599,9.87816989845,-0.7314999999999998,-1.5924999999999996,-2.3240000000000007
4.526051081999981,-0.38285161599999995,-0.2225325018,9.848857821599998,0.21000000000000002,-1.33,-1.9600000000000002,-0.38309089826,-0.24143580033999998,9.875537793589999,-0.7349999999999997,-1.5784999999999996,-2.3135000000000003
4.536828038999943,-0.38763726119999997,-0.23449661479999998,9.8608219346,-0.21000000000000002,-1.7500000000000002,-2.1,-0.38333018052,-0.24107687694999996,9.87505922907,-0.7594999999999996,-1.5749999999999997,-2.2925000000000004
4.547384996999995,-0.3780659708,-0.2536391956,9.848857821599998,0.28,-1.8200000000000003,-2.24,-0.38237305148,-0.24215364712,9.87302532986,0.14000000000000004,-1.5854999999999997,-2.2890000000000006
4.5565249610000365,-0.39720855159999996,-0.2584248408,9.9038927414,0.0,-1.6800000000000002,-2.45,-0.38321053939,-0.24239292938,9.875418152460002,0.12600000000000003,-1.5819999999999996,-2.2960000000000007
4.566793920000009,-0.39960137419999997,-0.2679961312,9.839286531199999,0.35000000000000003,-1.8200000000000003,-2.1700000000000004,-0.38464623295000006,-0.24382862294000002,9.87350389438,0.14350000000000002,-1.5925,-2.278500000000001
4.575137886999983,-0.39960137419999997,-0.23688943739999999,9.8680004024,-17.360000000000003,-1.33,-2.45,-0.38512479746999995,-0.24490539311000004,9.87422174116,-0.7105000000000001,-1.575,-2.2785000000000006
4.583417854000004,-0.41156548719999997,-0.23688943739999999,9.8919286284,-0.28,-1.4700000000000002,-2.24,-0.38751762007,-0.24442682859000003,9.875418152460002,-0.7315000000000002,-1.5749999999999997,-2.278500000000001
4.591787821000025,-0.41635113239999993,-0.24646072779999997,9.848857821599998,0.07,-1.9600000000000002,-1.9600000000000002,-0.38919259589,-0.24382862294000002,9.87350389438,-0.7350000000000001,-1.5959999999999996,-2.268000000000001
4.600023788000044,-0.38763726119999997,-0.2536391956,9.906285564,0.14,-1.4000000000000001,-2.31,-0.38919259589,-0.24430718745999996,9.875298511329998,-0.7455,-1.589,-2.257500000000001
4.608688754000013,-0.3900300838,-0.23928225999999997,9.906285564,17.85,-1.61,-2.31,-0.3897908015399999,-0.24502503423999994,9.87781097506,0.14000000000000004,-1.5924999999999998,-2.2540000000000004
4.6170087210000474,-0.39242290639999994,-0.2608176634,9.870393224999999,-17.85,-1.6800000000000002,-2.24,-0.3897908015399999,-0.24646072779999995,9.876494922629998,-0.7630000000000001,-1.596,-2.2505000000000006
4.625355687000024,-0.39481572899999995,-0.22971096959999998,9.853643466800001,0.14,-1.54,-2.0300000000000002,-0.39146577736,-0.24586252215,9.874700305679998,-0.7665,-1.5994999999999997,-2.236500000000001
4.633745653999995,-0.38524443859999996,-0.25124637299999997,9.896714273599999,0.7000000000000001,-1.54,-2.24,-0.39050864832000004,-0.24574288101999997,9.87493958794,-0.7315,-1.596,-2.226000000000001
4.642119621000006,-0.38045879339999994,-0.24167508259999998,9.9349994352,0.6300000000000001,-1.61,-2.3800000000000003,-0.39014972493,-0.24610180440999993,9.876255640370001,-0.7070000000000001,-1.5889999999999997,-2.226000000000001
4.650510587999975,-0.3756731482,-0.215354034,9.906285564,-17.64,-1.8900000000000001,-2.3800000000000003,-0.38895331362999996,-0.24454646971999994,9.876734204889999,-1.6065,-1.6099999999999999,-2.2365000000000004
4.658913554000037,-0.37328032559999996,-0.24406790519999996,9.882357337999998,0.28,-1.4700000000000002,-2.3800000000000003,-0.38847474910999996,-0.24442682858999998,9.878768104099999,-1.596,-1.6029999999999998,-2.2435000000000005
4.667419519999953,-0.38524443859999996,-0.24885355039999998,9.889535805799998,0.0,-1.8200000000000003,-2.0300000000000002,-0.38787654345999995,-0.24442682858999992,9.8799645154,-1.5995000000000001,-1.6169999999999998,-2.233000000000001
4.675831486999982,-0.3493520996,-0.24646072779999997,9.896714273599999,17.78,-1.6800000000000002,-2.3800000000000003,-0.3864408499,-0.24418754632999998,9.881878773479999,-0.7140000000000001,-1.6134999999999997,-2.243500000000001
4.684793451000019,-0.37328032559999996,-0.22971096959999998,9.877571692799998,-0.07,-1.4700000000000002,-2.1700000000000004,-0.38632120877,-0.24275185276999997,9.881400208959999,-0.7245000000000001,-1.6135000000000002,-2.2295000000000007
4.693230417999985,-0.3613162126,-0.22971096959999998,9.8273224182,0.21000000000000002,-1.6800000000000002,-2.45,-0.38608192650999995,-0.24239292938,9.877930616189998,-0.7385000000000002,-1.6275,-2.2435000000000005
4.701642384000024,-0.3756731482,-0.24167508259999998,9.851250644199999,0.07,-1.4000000000000001,-2.0300000000000002,-0.38572300311999996,-0.24335005842,9.87805025732,-0.7454999999999998,-1.6309999999999998,-2.2470000000000008
4.709991350999985,-0.35174492220000003,-0.24406790519999996,9.882357337999998,0.42000000000000004,-1.61,-2.3800000000000003,-0.3839283861699999,-0.24382862293999996,9.879127027489996,-0.7140000000000002,-1.6239999999999999,-2.2610000000000006
4.718557316999977,-0.39960137419999997,-0.23449661479999998,9.8440721764,0.28,-1.4000000000000001,-2.24,-0.38500515633999993,-0.24287149389999999,9.87888774523,-0.7139999999999999,-1.6029999999999998,-2.2610000000000006
4.726923284000009,-0.39960137419999997,-0.22731814699999997,9.889535805799998,0.21000000000000002,-1.61,-2.24,-0.3851247974699999,-0.24131615921000002,9.878169898449999,-0.7034999999999998,-1.5994999999999997,-2.2505000000000006
4.7352942510000275,-0.3565305674,-0.2225325018,9.8632147572,-0.14,-1.54,-2.1700000000000004,-0.3829712571299999,-0.23904297774000005,9.87936630975,-0.728,-1.5854999999999997,-2.2505000000000006
4.743619218000049,-0.3780659708,-0.22492532440000002,9.8632147572,0.14,-1.6800000000000002,-2.24,-0.38189448695999995,-0.23844477209000003,9.87912702749,0.14699999999999994,-1.6029999999999998,-2.2400000000000007
4.751932184999987,-0.4139583098,-0.23688943739999999,9.9038927414,0.42000000000000004,-1.4700000000000002,-2.3800000000000003,-0.38201412808999996,-0.23844477208999998,9.879725233140002,0.18200000000000008,-1.6029999999999998,-2.2470000000000008
4.760279150999963,-0.40677984199999995,-0.24646072779999997,9.858429112,0.14,-1.54,-2.31,-0.3815355635699999,-0.23844477209000003,9.88020379766,0.18549999999999997,-1.5819999999999996,-2.264500000000001
4.76867611800003,-0.38524443859999996,-0.22971096959999998,9.8273224182,0.21000000000000002,-1.61,-2.31,-0.3814159224399999,-0.23724836079000006,9.876255640370001,0.18899999999999995,-1.5924999999999998,-2.264500000000001
4.776873086000023,-0.39242290639999994,-0.24167508259999998,9.8727860476,0.0,-1.7500000000000002,-2.31,-0.38153556356999996,-0.23736800191999996,9.874580664549999,-0.7034999999999999,-1.5994999999999997,-2.264500000000001
4.785867049999979,-0.39242290639999994,-0.24646072779999997,9.851250644199999,0.07,-1.7500000000000002,-2.31,-0.38153556356999996,-0.23665015513999993,9.873623535510001,0.19249999999999995,-1.6029999999999998,-2.268000000000001
4.7941860170000155,-0.39242290639999994,-0.24167508259999998,9.8680004024,0.35000000000000003,-1.4700000000000002,-2.24,-0.38141592244,-0.23724836078999992,9.874341382290002,0.20299999999999999,-1.5994999999999997,-2.278500000000001
4.802445983999974,-0.3756731482,-0.24167508259999998,9.858429112,0.07,-1.6800000000000002,-2.3800000000000003,-0.38093735792,-0.23676979626999994,9.87242712421,0.17150000000000004,-1.6064999999999998,-2.2855000000000008
4.811962945999994,-0.38285161599999995,-0.24646072779999997,9.8751788702,0.21000000000000002,-1.6800000000000002,-2.45,-0.38105699905,-0.23700907852999994,9.869436095960001,0.15050000000000008,-1.6099999999999999,-2.289000000000001
4.823911898999995,-0.38285161599999995,-0.2608176634,9.882357337999998,0.6300000000000001,-1.54,-1.9600000000000002,-0.38141592244,-0.23928225999999997,9.868239684659999,1.0640000000000005,-1.5924999999999998,-2.2680000000000007
4.834221857999978,-0.3900300838,-0.25124637299999997,9.889535805799998,0.21000000000000002,-1.4700000000000002,-2.31,-0.38225341035000004,-0.23964118338999998,9.868598608049997,1.0605000000000007,-1.5924999999999998,-2.264500000000001
4.843619819999958,-0.39242290639999994,-0.2584248408,9.896714273599999,-0.14,-1.61,-2.5200000000000005,-0.38261233374000003,-0.24011974791000004,9.868957531439998,1.0535000000000005,-1.5819999999999999,-2.2890000000000006
4.852667784000005,-0.38763726119999997,-0.23928225999999997,9.865607579799999,0.14,-1.61,-2.31,-0.38452659182,-0.23976082451999997,9.867402196749998,0.17149999999999999,-1.5784999999999998,-2.2855000000000003
4.861235749999992,-0.38524443859999996,-0.2536391956,9.8991070962,0.21000000000000002,-1.61,-2.3800000000000003,-0.38512479747,-0.24095723582,9.868478966919998,0.1855,-1.5855,-2.2960000000000003
4.869557717000021,-0.38285161599999995,-0.2560320182,9.889535805799998,0.14,-1.4700000000000002,-2.1,-0.38620156763999997,-0.24227328824999997,9.871589636299998,0.182,-1.5749999999999997,-2.2785
4.8779216839999435,-0.39960137419999997,-0.2967100024,9.9038927414,0.28,-1.4700000000000002,-2.31,-0.38739797894,-0.24502503424000005,9.874221741159996,0.19249999999999998,-1.5784999999999996,-2.292500000000001
4.886333650999973,-0.37088750299999995,-0.25124637299999997,9.887142983199999,-17.78,-1.61,-2.31,-0.38835510797999995,-0.24538395763,9.874461023419999,-0.7175,-1.5784999999999998,-2.2890000000000006
4.8989256009999735,-0.38524443859999996,-0.2679961312,9.9086783866,0.49000000000000005,-1.54,-2.3800000000000003,-0.3876372611999999,-0.24705893345000005,9.877691333929999,-0.7070000000000001,-1.5854999999999997,-2.2960000000000007
4.909747558000049,-0.33738798659999997,-0.23928225999999997,9.8799645154,0.35000000000000003,-1.7500000000000002,-2.3800000000000003,-0.38452659181999993,-0.24765713910000003,9.877212769409997,-0.7,-1.5924999999999998,-2.303000000000001
4.920346515999995,-0.39960137419999997,-0.2225325018,9.9206424996,0.14,-1.4000000000000001,-2.45,-0.38668013215999997,-0.24765713910000003,9.880084156529998,-0.686,-1.5854999999999997,-2.3170000000000006
4.930813474000047,-0.39960137419999997,-0.21296121140000002,9.8727860476,0.56,-1.7500000000000002,-2.5200000000000005,-0.38775690232999993,-0.24705893344999996,9.88056272105,-0.6649999999999999,-1.589,-2.3310000000000004
4.941184432999989,-0.37328032559999996,-0.21296121140000002,9.848857821599998,0.49000000000000005,-1.7500000000000002,-2.5900000000000003,-0.38572300311999985,-0.24586252214999993,9.87781097506,-0.6615,-1.6029999999999998,-2.341500000000001
4.951897389999999,-0.3900300838,-0.2105683888,9.8727860476,-0.14,-1.54,-2.31,-0.3848855152099998,-0.24406790519999993,9.878528821839998,-0.6755,-1.6029999999999998,-2.341500000000001
4.96213135000005,-0.38763726119999997,-0.2225325018,9.851250644199999,0.14,-1.8200000000000003,-2.3800000000000003,-0.3850051563399999,-0.24370898180999992,9.879725233139999,-0.679,-1.6134999999999997,-2.345000000000001
4.972745306999968,-0.3613162126,-0.23210379219999996,9.8799645154,-0.35000000000000003,-1.54,-2.5200000000000005,-0.38344982164999986,-0.24323041729,9.880084156529998,-0.6965,-1.6029999999999998,-2.355500000000001
4.98341626499996,-0.4019941968,-0.23928225999999997,9.9038927414,0.21000000000000002,-1.54,-2.3800000000000003,-0.3839283861699999,-0.24287149389999999,9.882716261389998,-0.6894999999999999,-1.5924999999999998,-2.359000000000001
4.993592225000043,-0.39720855159999996,-0.22492532440000002,9.8991070962,0.0,-1.54,-2.3800000000000003,-0.38416766842999994,-0.24203400599000005,9.884271596079998,-0.707,-1.5959999999999999,-2.3660000000000005
5.003297185999941,-0.3780659708,-0.2536391956,9.865607579799999,0.49000000000000005,-1.54,-2.45,-0.38428730956,-0.24263221164,9.884630519469999,-0.6859999999999999,-1.589,-2.369500000000001
5.014772139999991,-0.3900300838,-0.24885355039999998,9.8632147572,0.07,-1.7500000000000002,-2.1700000000000004,-0.38464623295,-0.24275185276999997,9.884032313819997,-0.693,-1.5924999999999998,-2.3555000000000006
5.025237099000037,-0.35892339,-0.26321048599999997,9.9086783866,0.56,-1.6800000000000002,-2.45,-0.38344982165,-0.24287149389999999,9.88534836625,-0.6964999999999999,-1.5995,-2.380000000000001
5.035572057999957,-0.38763726119999997,-0.26321048599999997,9.896714273599999,0.35000000000000003,-1.4700000000000002,-2.3800000000000003,-0.38333018052,-0.24346969955,9.88570728964,-0.6895,-1.5995,-2.3835000000000006
5.051955992999979,-0.3780659708,-0.25124637299999997,9.848857821599998,0.28,-1.7500000000000002,-2.1700000000000004,-0.38261233374,-0.24311077616,9.883314467039998,-0.6685,-1.6064999999999998,-2.3660000000000005
5.062064953000004,-0.36610185780000004,-0.22971096959999998,9.853643466800001,0.07,-1.7500000000000002,-2.31,-0.38153556357000007,-0.24263221163999998,9.88271626139,-0.6719999999999999,-1.6134999999999997,-2.3660000000000005
5.072127913000031,-0.36370903520000003,-0.24167508259999998,9.846464998999998,0.35000000000000003,-1.54,-2.24,-0.38045879340000005,-0.24203400598999997,9.88008415653,-0.6649999999999998,-1.6099999999999999,-2.359000000000001
5.0827128710000125,-0.40677984199999995,-0.23449661479999998,9.8608219346,0.21000000000000002,-1.54,-2.31,-0.38165520470000003,-0.24095723581999998,9.878648462970002,-0.6614999999999999,-1.6134999999999997,-2.3695000000000004
5.0929678300000205,-0.38763726119999997,-0.2105683888,9.865607579799999,0.14,-1.6800000000000002,-2.45,-0.38105699905,-0.23665015513999993,9.876734204890003,-0.6685,-1.6239999999999999,-2.3765000000000005
5.103284788999986,-0.39481572899999995,-0.23688943739999999,9.906285564,0.0,-1.6800000000000002,-2.3800000000000003,-0.38225341035000004,-0.23593230836,9.87769133393,0.2205,-1.6275,-2.380000000000001
5.113776746999974,-0.3900300838,-0.2536391956,9.8727860476,0.49000000000000005,-1.6800000000000002,-2.31,-0.38249269261,-0.23521446157999998,9.87589671698,0.2205,-1.6344999999999998,-2.376500000000001
5.124422705000029,-0.36610185780000004,-0.2536391956,9.9014999188,17.78,-1.54,-2.31,-0.3839283861700001,-0.23593230835999995,9.87697348715,1.092,-1.6239999999999999,-2.3730000000000007
5.135034662999942,-0.39481572899999995,-0.25124637299999997,9.896714273599999,0.07,-1.7500000000000002,-2.31,-0.38368910391000005,-0.23736800191999996,9.87577707585,1.0885000000000002,-1.6415,-2.366000000000001
5.14561462100005,-0.39242290639999994,-0.24646072779999997,9.906285564,0.28,-1.54,-2.45,-0.3833301805200001,-0.23904297773999997,9.877452051669998,1.0745,-1.6309999999999998,-2.362500000000001
5.156111579000026,-0.38045879339999994,-0.2584248408,9.8751788702,0.35000000000000003,-1.33,-2.5200000000000005,-0.38368910391000005,-0.24131615921,9.8787681041,1.0675000000000003,-1.6099999999999999,-2.359000000000001
5.16606853899998,-0.3756731482,-0.25124637299999997,9.8727860476,0.07,-1.4700000000000002,-2.5200000000000005,-0.38297125713,-0.24335005841999996,9.878768104099997,1.0780000000000003,-1.6064999999999998,-2.3695000000000013
5.176083500000004,-0.36370903520000003,-0.23210379219999996,9.8919286284,-0.07,-1.54,-2.1700000000000004,-0.38177484583000004,-0.24382862293999996,9.880802003309999,1.0675000000000003,-1.5924999999999998,-2.359000000000001
5.188334450999946,-0.38763726119999997,-0.23449661479999998,9.8727860476,0.35000000000000003,-1.61,-2.3800000000000003,-0.38309089826000003,-0.24394826406999998,9.880443079919996,1.1025000000000003,-1.5959999999999996,-2.3520000000000008
5.198056412000028,-0.4019941968,-0.2177468566,9.8440721764,17.71,-1.61,-2.45,-0.38309089826,-0.2428714939,9.877452051669998,1.9775000000000005,-1.5994999999999997,-2.3555
5.2079683729999715,-0.38524443859999996,-0.22013967919999997,9.865607579799999,0.21000000000000002,-1.54,-2.3800000000000003,-0.38249269260999996,-0.24263221163999998,9.87577707585,1.9880000000000007,-1.5994999999999997,-2.3555000000000006
5.2186383309999655,-0.3780659708,-0.27517459899999996,9.8680004024,0.28,-1.54,-2.31,-0.38249269260999996,-0.24370898180999995,9.875896716979998,1.9775000000000003,-1.5994999999999997,-2.3485000000000005
5.229124288999969,-0.39960137419999997,-0.24406790519999996,9.8751788702,0.7000000000000001,-1.54,-2.1700000000000004,-0.38297125713,-0.24346969954999995,9.876494922629998,2.009000000000001,-1.5889999999999997,-2.3485000000000005
5.240386243999978,-0.40438701939999994,-0.2560320182,9.877571692799998,0.56,-1.61,-2.45,-0.3852444385999999,-0.24311077615999993,9.874939587939998,2.009000000000001,-1.5854999999999997,-2.3485000000000005
5.249814206999986,-0.39720855159999996,-0.2536391956,9.8919286284,0.21000000000000002,-1.54,-2.5900000000000003,-0.38572300311999996,-0.24263221163999993,9.87470030568,2.0020000000000007,-1.5889999999999997,-2.359000000000001
5.259880167000006,-0.3900300838,-0.24167508259999998,9.853643466800001,0.14,-1.7500000000000002,-2.24,-0.38632120877,-0.24215364711999993,9.87493958794,1.995000000000001,-1.5889999999999997,-2.3625000000000007
5.268925130999946,-0.37088750299999995,-0.23210379219999996,9.877571692799998,-17.71,-1.8900000000000001,-2.45,-0.3865604910299999,-0.24227328824999997,9.876135999239999,1.1060000000000005,-1.5959999999999996,-2.369500000000001
5.277323097000021,-0.38524443859999996,-0.23688943739999999,9.8680004024,-0.21000000000000002,-1.54,-2.5900000000000003,-0.38763726119999986,-0.24203400599,9.877212769409999,1.0780000000000007,-1.5959999999999996,-2.387000000000001
5.288583053000025,-0.36610185780000004,-0.23688943739999999,9.865607579799999,0.42000000000000004,-1.6800000000000002,-2.3800000000000003,-0.38560336198999995,-0.24215364712,9.877452051669996,1.0885000000000005,-1.6029999999999998,-2.3905000000000007
5.297984014999997,-0.3756731482,-0.2584248408,9.8751788702,17.78,-1.54,-2.0300000000000002,-0.38500515634,-0.24454646972000002,9.877930616189996,1.9705000000000006,-1.5959999999999996,-2.369500000000001
5.307141978999994,-0.3780659708,-0.2584248408,9.889535805799998,-0.07,-1.7500000000000002,-2.1700000000000004,-0.38416766842999994,-0.24562323989,9.877093128279999,1.9670000000000005,-1.5994999999999997,-2.359000000000001
5.315535944999965,-0.39960137419999997,-0.25124637299999997,9.8919286284,0.07,-1.6800000000000002,-2.3800000000000003,-0.38464623294999994,-0.24550359876,9.87805025732,1.9460000000000008,-1.5994999999999997,-2.3625000000000007
5.327521897999986,-0.38285161599999995,-0.24646072779999997,9.8560362894,-0.49000000000000005,-1.61,-2.45,-0.38548372085999993,-0.24514467536999995,9.87577707585,1.0325000000000002,-1.6029999999999998,-2.369500000000001
5.337960855999995,-0.3756731482,-0.23688943739999999,9.9038927414,0.35000000000000003,-1.7500000000000002,-2.31,-0.38452659181999993,-0.24442682858999998,9.876135999239997,1.0465000000000004,-1.6029999999999998,-2.369500000000001
5.3485698140000295,-0.36610185780000004,-0.23928225999999997,9.8727860476,0.21000000000000002,-1.54,-2.3800000000000003,-0.38321053938999994,-0.24406790519999993,9.874461023419999,1.0430000000000004,-1.6029999999999998,-2.366000000000001
5.359109772000011,-0.38285161599999995,-0.23210379219999996,9.8799645154,0.21000000000000002,-1.54,-2.31,-0.38333018052,-0.24275185277000003,9.874700305679998,1.0360000000000005,-1.6134999999999997,-2.3555000000000006
5.36994472899994,-0.36610185780000004,-0.23210379219999996,9.8799645154,0.21000000000000002,-1.4000000000000001,-2.31,-0.382851616,-0.24179472373,9.875059229069999,1.0430000000000006,-1.6099999999999999,-2.3450000000000006
5.3803966870000295,-0.3756731482,-0.23928225999999997,9.882357337999998,0.21000000000000002,-1.54,-2.66,-0.38344982165,-0.24215364711999995,9.874580664549999,1.0570000000000006,-1.6099999999999999,-2.369500000000001
5.3897146499999735,-0.3780659708,-0.24167508259999998,9.887142983199999,0.42000000000000004,-1.61,-2.45,-0.38297125713,-0.24251257050999997,9.875298511329998,1.0605000000000007,-1.6099999999999999,-2.373000000000001
5.401090605000036,-0.41156548719999997,-0.24167508259999998,9.8751788702,0.07,-1.6800000000000002,-2.45,-0.38344982164999997,-0.24370898180999995,9.876853846019996,0.17849999999999994,-1.6134999999999997,-2.373000000000001
5.411668563000035,-0.39481572899999995,-0.23449661479999998,9.913464031799998,0.14,-1.54,-2.24,-0.3839283861699999,-0.24442682858999992,9.879246668619997,0.175,-1.6134999999999997,-2.3660000000000005
5.422120521000011,-0.37088750299999995,-0.2536391956,9.896714273599999,0.14,-1.6800000000000002,-2.5900000000000003,-0.3835694627799999,-0.24335005841999996,9.880682362179996,0.16799999999999995,-1.6204999999999998,-2.380000000000001
5.432232481000028,-0.36370903520000003,-0.2560320182,9.841679353799998,-0.35000000000000003,-1.61,-2.31,-0.38177484583,-0.24394826406999998,9.879007386359998,0.11550000000000007,-1.6239999999999999,-2.387000000000001
5.443798434999962,-0.40917266459999996,-0.24885355039999998,9.884750160599998,0.0,-1.6800000000000002,-2.24,-0.38201412809,-0.24358934067999996,9.879366309749997,0.08750000000000013,-1.6275,-2.376500000000001
5.4543493930000295,-0.4139583098,-0.27517459899999996,9.8727860476,0.35000000000000003,-1.6800000000000002,-2.3800000000000003,-0.382851616,-0.24466611084999995,9.878409180709998,0.0945000000000001,-1.6344999999999998,-2.3660000000000005
5.464828351000051,-0.3756731482,-0.27517459899999996,9.853643466800001,0.42000000000000004,-1.61,-2.1700000000000004,-0.3821337692199999,-0.2463410866699999,9.878409180709998,0.10850000000000007,-1.6275,-2.3625000000000007
5.475140310000029,-0.37328032559999996,-0.24646072779999997,9.853643466800001,0.14,-1.54,-2.5200000000000005,-0.38225341034999993,-0.2470589334499999,9.877212769409999,1.0010000000000008,-1.6099999999999999,-2.3660000000000005
5.485515268999961,-0.36370903520000003,-0.2584248408,9.882357337999998,0.49000000000000005,-1.7500000000000002,-2.5200000000000005,-0.38117664017999997,-0.2481357036199999,9.87793061619,1.0360000000000007,-1.6204999999999998,-2.3625000000000007
