time,aX,aY,aZ,gX,gY,gZ,faX,faY,faZ,fgX,fgY,fgZ
0.006486402000007274,-1.0265208954,-9.963713306399999,-0.8685946038,-13.790000000000001,-12.81,-5.390000000000001,-0.41060835816,-3.9854853225599998,-0.34743784152,-5.516000000000001,-5.1240000000000006,-2.156
0.0186201550000078,-2.7780670385999997,-10.777272990399998,-5.3431728658,-59.010000000000005,-45.010000000000005,-12.46,-1.357591830336,-6.702200389696,-2.345731851232,-26.91360000000001,-21.078400000000002,-6.277600000000001
0.030386885000012853,-1.0911271056,-10.0115697584,-0.9308079913999999,41.93000000000001,12.32,4.48,-1.2510059404415999,-8.0259481371776,-1.7797623072992002,0.6238399999999985,-7.719040000000001,-1.97456
0.04180159300000241,-1.1054840412,-10.021141048799999,-0.9355936366,12.180000000000001,1.1900000000000002,0.21000000000000002,-1.1927971807449598,-8.824025301826559,-1.4420948390195198,5.246304,-4.155424,-1.100736
0.05363532699999496,-1.1006983959999999,-10.028319516599998,-0.9332008139999999,0.56,-1.9600000000000002,-1.12,-1.155957666846976,-9.305742987735934,-1.2385372290117118,3.3717824000000003,-3.2772544,-1.1084416
0.06574907800001029,-1.1030912186,-10.013962581,-0.9810572659999999,-0.77,-2.1700000000000004,-1.12,-1.1348110875481854,-9.589030825041561,-1.135545243807027,1.71506944,-2.8343526399999996,-1.11306496
0.07909090500001525,-1.0935199281999999,-10.0115697584,-0.9906285563999999,-0.7000000000000001,-2.0300000000000002,-0.8400000000000001,-1.118294623808911,-9.758046398384936,-1.077578568844216,0.7490416639999998,-2.5126115839999996,-1.0038389760000002
0.09172368899999128,-1.088734283,-10.013962581,-0.9451649269999999,-0.6300000000000001,-2.1700000000000004,-0.9800000000000001,-1.1064704874853466,-9.86041287143096,-1.0246131121065296,0.19742499839999986,-2.3755669504,-0.9943033856
0.10461448800000994,-1.0959127508,-10.028319516599998,-1.0121639597999998,-1.12,-2.1700000000000004,-1.2600000000000002,-1.102247392811208,-9.927575529498576,-1.0196334511839178,-0.32954500096000017,-2.29334017024,-1.1005820313599999
0.1161882060000039,-1.0911271056,-10.045069274799998,-0.9595218625999999,-1.12,-2.0300000000000002,-1.05,-1.0977992779267247,-9.974573027619146,-0.9955888157503506,-0.6457270005760002,-2.188004102144,-1.080349218816
0.12804794199999492,-1.0839486377999998,-10.0115697584,-1.0097711372,-0.56,-2.1700000000000004,-0.9100000000000001,-1.0922590218760349,-9.989371719931487,-1.0012617443302103,-0.6114362003456001,-2.1808024612864,-1.0122095312896
0.13934864300000527,-1.0719845248,-10.009176935799998,-1.0145567824,-0.9100000000000001,-2.0300000000000002,-1.1900000000000002,-1.0841492230456211,-9.997293806278892,-1.006579759558126,-0.7308617202073601,-2.12048147677184,-1.08332571877376
0.1510813700000142,-1.0863414604,-10.037890806999998,-1.0121639597999998,-0.7000000000000001,-2.1700000000000004,-0.9800000000000001,-1.0850261179873726,-10.013532606567335,-1.0088134396548758,-0.7185170321244161,-2.140288886063104,-1.041995431264256
0.16196304499999314,-1.0767701699999999,-10.0474620974,-1.0241280728,-1.33,-2.0300000000000002,-1.05,-1.0817237387924235,-10.0271044029004,-1.0149392929129253,-0.9631102192746497,-2.0961733316378623,-1.0451972587585536
0.1741438010000138,-1.0863414604,-10.030712339199999,-1.0241280728,-0.9100000000000001,-2.1700000000000004,-0.9100000000000001,-1.083570827435454,-10.028547577420241,-1.018614804867755,-0.9418661315647899,-2.125703998982717,-0.9911183552551321
0.1850084749999894,-1.0983055734,-10.0163554036,-1.016949605,-1.12,-2.0300000000000002,-1.12,-1.0894647258212724,-10.023670707892144,-1.017948724920653,-1.0131196789388741,-2.0874223993896304,-1.0426710131530794
0.1975712539999961,-1.0839486377999998,-10.028319516599998,-1.0049854919999999,-0.9100000000000001,-1.8900000000000001,-1.05,-1.0872582906127635,-10.025530231375287,-1.0127634317523917,-0.9718718073633246,-2.008453439633778,-1.0456026078918477
0.20981701299999145,-1.088734283,-10.0235338714,-1.0001998468,-0.9100000000000001,-1.9600000000000002,-1.05,-1.087848687567658,-10.024731687385172,-1.007737997771435,-0.9471230844179948,-1.9890720637802668,-1.0473615647351087
0.21980663299999037,-1.0863414604,-10.0235338714,-0.9762716207999999,-1.1900000000000002,-2.24,-1.2600000000000002,-1.0872457967005948,-10.024252560991103,-0.9951514469828611,-1.044273850650797,-2.08944323826816,-1.1324169388410652
0.2315603620000104,-1.0671988796,-10.0354979844,-1.0289137179999999,-1.2600000000000002,-2.24,-0.9800000000000001,-1.079227029860357,-10.028750730354663,-1.0086563553897165,-1.1305643103904783,-2.149665942960896,-1.0714501633046392
0.24469717700000615,-1.0839486377999998,-10.0163554036,-1.0360921857999998,-1.4700000000000002,-2.24,-1.12,-1.0811156730362144,-10.023792599652797,-1.01963068755383,-1.2663385862342869,-2.185799565776538,-1.0908700979827837
0.25686793100001637,-1.0863414604,-10.004391290600001,-0.9858429111999999,-0.9100000000000001,-2.3800000000000003,-1.05,-1.0832059879817286,-10.016032076031676,-1.006115577012298,-1.1238031517405722,-2.263479739465923,-1.0745220587896702
0.26866966299999717,-1.0935199281999999,-10.025926693999999,-1.0313065406,-1.4000000000000001,-2.3800000000000003,-1.12,-1.087331564069037,-10.019989923219006,-1.0161919624473787,-1.2342818910443434,-2.310087843679554,-1.0927132352738023
0.2787892910000096,-1.0743773474,-10.021141048799999,-1.0001998468,-0.77,-2.0300000000000002,-0.9100000000000001,-1.082149877401422,-10.020450373451402,-1.009795116188427,-1.0485691346266062,-2.1980527062077324,-1.0196279411642812
0.2894029489999923,-1.0983055734,-10.0163554036,-1.0097711372,-1.1900000000000002,-1.9600000000000002,-1.1900000000000002,-1.0886121558008535,-10.018812385510842,-1.0097855245930563,-1.1051414807759639,-2.1028316237246396,-1.087776764698569
0.3022527459999935,-1.1054840412,-10.040283629599998,-0.9978070242,-0.77,-2.1700000000000004,-1.2600000000000002,-1.095360909960512,-10.027400883146504,-1.0049941244358338,-0.9710848884655784,-2.1296989742347843,-1.1566660588191413
0.31470251799999005,-1.0839486377999998,-10.0235338714,-1.0025926694,-1.12,-2.0300000000000002,-1.05,-1.0907960010963071,-10.025854078447903,-1.0040335424215003,-1.030650933079347,-2.0898193845408706,-1.1139996352914847
0.3268252700000005,-1.0863414604,-10.006784113199998,-0.9547362173999999,-0.9100000000000001,-2.1,-0.9800000000000001,-1.0890141848177841,-10.018226092348744,-0.9843146124129003,-0.9823905598476081,-2.0938916307245226,-1.0603997811748909
0.3384119890000079,-1.0935199281999999,-10.0163554036,-0.9954142015999999,-0.9100000000000001,-2.31,-1.1900000000000002,-1.0908164821706705,-10.017477816849246,-0.98875444808774,-0.9534343359085649,-2.1803349784347135,-1.1122398687049346
0.3503337280000096,-1.0959127508,-10.0235338714,-1.0384850084,-1.12,-1.9600000000000002,-1.05,-1.0928549896224022,-10.019900238669548,-1.008646672212644,-1.020060601545139,-2.0922009870608282,-1.0873439212229608
0.3620704559999979,-1.0671988796,-10.0354979844,-1.0025926694,-0.6300000000000001,-2.1,-0.9800000000000001,-1.0825925456134413,-10.02613933696173,-1.0062250710875862,-0.8640363609270834,-2.095320592236497,-1.0444063527337766
0.3734301610000159,-1.0959127508,-10.030712339199999,-0.9930213789999999,-0.9100000000000001,-2.24,-0.9800000000000001,-1.0879206276880646,-10.027968537857035,-1.0009435942525517,-0.88242181655625,-2.1531923553418983,-1.0186438116402659
0.38493887500001733,-1.0743773474,-10.0163554036,-1.0001998468,-1.12,-2.31,-1.2600000000000002,-1.0825033155728387,-10.02332328415422,-1.000646095271531,-0.97745308993375,-2.2159154132051393,-1.1151862869841596
0.3970346250000034,-1.0791629926,-10.013962581,-0.9786644433999999,-0.9100000000000001,-1.9600000000000002,-0.9100000000000001,-1.0811671863837031,-10.019579002892533,-0.9918534345229187,-0.9504718539602501,-2.1135492479230837,-1.0331117721904957
0.40875435200001675,-1.0815558152,-10.025926693999999,-0.9762716207999999,-1.05,-2.1700000000000004,-1.12,-1.0813226379102219,-10.022118079335518,-0.9856207090337511,-0.9902831123761501,-2.1361295487538503,-1.0678670633142975
0.4205230809999989,-1.064806057,-10.030712339199999,-0.9595218625999999,-0.9100000000000001,-2.3800000000000003,-1.12,-1.074716005546133,-10.02555578328131,-0.9751811704602504,-0.9581698674256901,-2.2336777292523102,-1.0887202379885785
0.4330508580000014,-1.0863414604,-10.0115697584,-0.9906285563999999,-0.6300000000000001,-1.9600000000000002,-1.1900000000000002,-1.0793661874876799,-10.019961373328787,-0.9813601248361504,-0.826901920455414,-2.1242066375513864,-1.129232142793147
0.4444605660000036,-1.0911271056,-10.006784113199998,-0.9786644433999999,-1.2600000000000002,-2.24,-0.9100000000000001,-1.0840705547326077,-10.014690469277271,-0.9802818522616902,-1.0001411522732484,-2.170523982530832,-1.0415392856758883
0.45710235000001376,-1.0863414604,-10.021141048799999,-0.9906285563999999,-0.8400000000000001,-2.0300000000000002,-0.9800000000000001,-1.0849789169995645,-10.01727070108636,-0.984420533917014,-0.9360846913639491,-2.114314389518499,-1.0169235714055331
0.46921310100000824,-1.0935199281999999,-10.0546405652,-0.9643075077999999,-0.9800000000000001,-2.1,-1.05,-1.0883953214797386,-10.032218646731815,-0.9763753234702085,-0.9536508148183696,-2.1085886337110993,-1.0301541428433199
0.48111683999999855,-1.0983055734,-10.006784113199998,-0.9714859755999999,-0.9800000000000001,-2.1,-0.9800000000000001,-1.0923594222478432,-10.02204483331909,-0.9744195843221249,-0.9641904888910219,-2.1051531802266594,-1.0100924857059919
0.4922615309999969,-1.0959127508,-9.992427177599998,-0.9858429111999999,-0.9100000000000001,-2.24,-0.9800000000000001,-1.0937807536687059,-10.010197771031454,-0.978988915073275,-0.9425142933346132,-2.159091908135996,-0.9980554914235952
0.5033332170000051,-1.0815558152,-10.028319516599998,-0.9619146851999999,-1.4000000000000001,-2.1700000000000004,-1.2600000000000002,-1.0888907782812234,-10.017446469258871,-0.9721592231239651,-1.1255085760007681,-2.1634551448815973,-1.1028332948541573
0.5155279740000083,-1.0743773474,-10.001998467999998,-0.9547362173999999,-0.9800000000000001,-2.1700000000000004,-0.77,-1.083085405928734,-10.011267268755322,-0.965190020834379,-1.0673051456004607,-2.1660730869289586,-0.9696999769124944
0.5273687080000116,-1.0983055734,-10.037890806999998,-0.9523433947999999,-1.1900000000000002,-2.0300000000000002,-0.9800000000000001,-1.0891734729172406,-10.021916684053192,-0.9600513704206273,-1.1163830873602767,-2.1116438521573753,-0.9738199861474968
0.5396984730000156,-1.0863414604,-10.0163554036,-0.9571290399999999,-1.1900000000000002,-2.0300000000000002,-1.1900000000000002,-1.0880406679103443,-10.019692171871915,-0.9588824382523764,-1.1458298524161659,-2.0789863112944253,-1.060291991688498
0.5514692030000106,-1.1078768637999998,-10.045069274799998,-0.9547362173999999,-1.12,-1.9600000000000002,-1.05,-1.0959751462662064,-10.029843013043148,-0.9572239499114258,-1.1354979114496995,-2.031391786776655,-1.0561751950130989
0.5629979180000078,-1.088734283,-10.021141048799999,-0.9906285563999999,-1.4700000000000002,-1.9600000000000002,-1.2600000000000002,-1.0930788009597239,-10.026362227345889,-0.9705857925068555,-1.2692987468698198,-2.0028350720659933,-1.1377051170078591
0.5750586659999897,-1.0935199281999999,-9.990034354999999,-0.9762716207999999,-0.9100000000000001,-2.1,-1.12,-1.0932552518558343,-10.011831078407534,-0.9728601238241134,-1.125579248121892,-2.041701043239596,-1.1306230702047155
0.5869024010000032,-1.0839486377999998,-10.009176935799998,-0.9930213789999999,-0.8400000000000001,-2.24,-0.9800000000000001,-1.0895326062335005,-10.01076942136452,-0.980924625894468,-1.0113475488731352,-2.121020625943758,-1.0703738421228293
0.5986741309999957,-1.0863414604,-10.033105161799998,-0.9643075077999999,-1.2600000000000002,-2.1700000000000004,-1.12,-1.0882561479001003,-10.019703717538713,-0.9742777786566807,-1.110808529323881,-2.140612375566255,-1.0902243052736975
0.6099138280000034,-1.0791629926,-10.052247742599999,-0.9738787981999999,-0.9800000000000001,-2.1,-0.77,-1.08461888578006,-10.032721327563225,-0.9741181864740084,-1.0584851175943286,-2.124367425339753,-0.9621345831642186
0.6216615559999923,-1.0839486377999998,-10.021141048799999,-0.9332008139999999,-1.1900000000000002,-2.24,-0.77,-1.084350786588036,-10.02808921605794,-0.957751237484405,-1.1110910705565973,-2.170620455203852,-0.8852807498985312
0.6335152919999985,-1.0863414604,-10.037890806999998,-0.9738787981999999,-1.12,-2.1,-1.2600000000000002,-1.0851470561128216,-10.032009852434761,-0.9642022617706429,-1.1146546423339583,-2.142372273122311,-1.0351684499391187
0.6455790400000012,-1.0911271056,-9.9972128228,-0.9619146851999999,-1.05,-2.1,-0.8400000000000001,-1.087539075907693,-10.018091040580858,-0.9632872311423859,-1.088792785400375,-2.1254233638733866,-0.9571010699634713
0.6577427940000007,-1.1078768637999998,-10.028319516599998,-0.9236295236,-1.05,-2.24,-0.9800000000000001,-1.0956741910646157,-10.022182430988513,-0.9474241481254314,-1.073275671240225,-2.171254018324032,-0.9662606419780829
0.6697105359999966,-1.0863414604,-10.028319516599998,-0.9571290399999999,-1.2600000000000002,-2.31,-1.1900000000000002,-1.0919410987987694,-10.024637265233109,-0.9513061048752587,-1.147965402744135,-2.2267524109944192,-1.0557563851868499
0.6811182440000039,-1.0911271056,-10.021141048799999,-0.9786644433999999,-1.2600000000000002,-2.0300000000000002,-0.9100000000000001,-1.0916155015192617,-10.023238778659863,-0.9622494402851552,-1.192779241646481,-2.148051446596652,-0.9974538311121098
0.6923429400000032,-1.1030912186,-9.9972128228,-0.9643075077999999,-1.05,-1.9600000000000002,-1.05,-1.096205788351557,-10.01282839631592,-0.9630726672910932,-1.1356675449878886,-2.072830867957991,-1.0184722986672659
0.7043156830000044,-1.0863414604,-10.042676452199998,-0.9260223461999999,-0.8400000000000001,-2.31,-1.12,-1.0922600571709342,-10.024767618669552,-0.9482525388546559,-1.0174005269927333,-2.1676985207747945,-1.0590833792003596
0.7164734369999906,-1.0959127508,-10.025926693999999,-0.9523433947999999,-0.8400000000000001,-2.0300000000000002,-1.05,-1.0937211346225604,-10.025231248801731,-0.9498888812327935,-0.94644031619564,-2.1126191124648765,-1.0554500275202157
0.7285431829999993,-1.0767701699999999,-10.028319516599998,-0.9212367009999999,-0.8400000000000001,-2.1,-0.8400000000000001,-1.0869407487735363,-10.026466555921036,-0.9384280091396762,-0.903864189717384,-2.107571467478926,-0.9692700165121295
0.7397368590000042,-1.0791629926,-10.0163554036,-0.9619146851999999,-0.56,-2.1,-0.9800000000000001,-1.0838296463041215,-10.022422094992622,-0.9478226795638056,-0.7663185138304304,-2.104542880487356,-0.9735620099072777
0.751107544000007,-1.0935199281999999,-10.040283629599998,-0.9619146851999999,-0.6300000000000001,-2.0300000000000002,-1.12,-1.0877057590624728,-10.029566708835574,-0.9534594818182834,-0.7117911082982583,-2.0747257282924134,-1.0321372059443665
0.7631752720000122,-1.0863414604,-10.025926693999999,-0.9403792817999999,-0.49000000000000005,-2.31,-0.77,-1.0871600395974839,-10.028110702901344,-0.9482274018109701,-0.623074664978955,-2.168835436975448,-0.92728232356662
0.774546958000002,-1.1006983959999999,-9.999605645399999,-0.9451649269999999,-0.9800000000000001,-2.24,-0.8400000000000001,-1.09257538215849,-10.016708679900804,-0.947002411886582,-0.765844798987373,-2.197301262185269,-0.8923693941399721
0.7867776960000015,-1.0959127508,-10.025926693999999,-0.9547362173999999,-0.9800000000000001,-2.1700000000000004,-0.9800000000000001,-1.0939103296150943,-10.020395885540482,-0.9500959340919491,-0.8515068793924238,-2.186380757311161,-0.9274216364839832
0.7977173559999926,-1.0863414604,-10.009176935799998,-0.9475577495999999,-0.56,-2.1,-0.9800000000000001,-1.0908827819290565,-10.015908305644288,-0.9490806602951695,-0.7349041276354543,-2.151828454386697,-0.94845298189039
0.8103681190000032,-1.0935199281999999,-10.025926693999999,-0.9834500885999999,-0.7000000000000001,-2.0300000000000002,-0.6300000000000001,-1.091937640437434,-10.019915660986571,-0.9628284316171016,-0.7209424765812725,-2.103097072632018,-0.8210717891342338
0.8222778370000015,-1.0983055734,-10.021141048799999,-0.9595218625999999,-0.77,-1.9600000000000002,-1.12,-1.0944848136224603,-10.020405816111943,-0.9615058040102609,-0.7405654859487636,-2.045858243579211,-0.9406430734805403
0.8341545540000084,-1.0863414604,-10.037890806999998,-0.9092725879999999,-0.9800000000000001,-2.3800000000000003,-0.9100000000000001,-1.0912274723334763,-10.027399812467165,-0.9406125176061564,-0.8363392915692582,-2.1795149461475267,-0.9283858440883241
0.8473183480000159,-1.0767701699999999,-10.0115697584,-0.9308079913999999,-0.9100000000000001,-2.1,-0.7000000000000001,-1.0854445514000857,-10.021067790840299,-0.936690707123694,-0.865803574941555,-2.147708967688516,-0.8370315064529945
0.8591710629999909,-1.0839486377999998,-9.985248709799999,-0.9212367009999999,-0.9800000000000001,-2.0300000000000002,-1.1900000000000002,-1.0848461859600511,-10.006740158424181,-0.9305091046742161,-0.9114821449649331,-2.10062538061311,-0.9782189038717968
0.8706587549999938,-1.1054840412,-10.0235338714,-0.9499505721999999,-0.56,-2.0300000000000002,-1.05,-1.0931013280560307,-10.013457643614508,-0.9382856916845298,-0.7708892869789599,-2.072375228367866,-1.0069313423230781
0.8826794809999967,-1.0743773474,-10.004391290600001,-0.9403792817999999,-0.49000000000000005,-2.0300000000000002,-0.9800000000000001,-1.0856117357936184,-10.009831102408704,-0.9391231277307178,-0.6585335721873758,-2.0554251370207197,-0.9961588053938468
0.8949062180000169,-1.1006983959999999,-9.990034354999999,-0.8997012976000001,-0.77,-2.0300000000000002,-0.8400000000000001,-1.091646399876171,-10.001912403445223,-0.9233543956784306,-0.7031201433124254,-2.045255082212432,-0.9336952832363081
0.9067879350000112,-1.0911271056,-10.0474620974,-0.9188438783999999,-0.9100000000000001,-2.31,-1.2600000000000002,-1.0914386821657025,-10.020132281027134,-0.9215501887670582,-0.7858720859874553,-2.1511530493274593,-1.0642171699417848
0.9186916529999962,-1.0767701699999999,-10.030712339199999,-0.9332008139999999,-0.8400000000000001,-2.0300000000000002,-0.9800000000000001,-1.0855712772994215,-10.024364304296281,-0.926210438860235,-0.8075232515924733,-2.1026918295964756,-1.030530301965071
0.9305003650000003,-1.0791629926,-10.0235338714,-0.9571290399999999,-1.12,-1.8900000000000001,-1.12,-1.0830079634196528,-10.02403213113777,-0.938577879316141,-0.9325139509554841,-2.0176150977578855,-1.0663181811790425
0.9420020590000036,-1.0863414604,-10.025926693999999,-0.9355936366,-1.05,-2.0300000000000002,-1.12,-1.0843413622117917,-10.024789956282662,-0.9373841822296844,-0.9795083705732904,-2.022569058654731,-1.0877909087074256
0.9541247900000087,-1.0791629926,-10.033105161799998,-0.9068797653999999,-1.05,-2.0300000000000002,-0.9800000000000001,-1.082270014367075,-10.028116038489596,-0.9251824154978108,-1.0077050223439743,-2.0255414351928387,-1.0446745452244555
0.9655744810000044,-1.0743773474,-10.013962581,-0.9092725879999999,-1.12,-1.7500000000000002,-1.12,-1.0791129475802448,-10.02245465549376,-0.9188184844986865,-1.0526230134063845,-1.9153248611157034,-1.0748047271346732
0.9771931809999899,-1.0911271056,-10.0163554036,-0.9188438783999999,-0.6300000000000001,-2.1700000000000004,-1.12,-1.0839186107881469,-10.020014954736256,-0.9188286420592117,-0.8835738080438307,-2.017194916669422,-1.092882836280804
0.9886468720000039,-1.088734283,-10.021141048799999,-0.9284151687999999,-1.4000000000000001,-2.0300000000000002,-1.12,-1.085844879672888,-10.020465392361753,-0.9226632527555271,-1.0901442848262985,-2.0223169500016533,-1.1037297017684824
0.9993855200000041,-1.0839486377999998,-10.040283629599998,-0.8949156524,-1.12,-2.1700000000000004,-1.1900000000000002,-1.0850863829237327,-10.02839268725705,-0.9115642126133161,-1.1020865708957792,-2.081390170000992,-1.1382378210610895
1.012806329,-1.0863414604,-10.025926693999999,-0.873380249,-1.1900000000000002,-2.0300000000000002,-0.8400000000000001,-1.0855884139142395,-10.02740628995423,-0.8962906271679896,-1.1372519425374674,-2.0608341020005954,-1.0189426926366536
1.025627103000005,-1.0863414604,-10.0163554036,-0.9403792817999999,-0.56,-1.9600000000000002,-1.1900000000000002,-1.0858896325085436,-10.022985935412539,-0.9139260890207938,-0.9063511655224805,-2.0205004612003576,-1.0873656155819922
1.036770775000008,-1.0624132344,-10.009176935799998,-0.9188438783999999,-0.7000000000000001,-2.31,-1.05,-1.0764990732651263,-10.017462335567524,-0.9158932047724762,-0.8238106993134884,-2.1363002767202146,-1.0724193693491952
1.0483814750000136,-1.1054840412,-10.052247742599999,-0.9116654106,-0.9100000000000001,-2.1700000000000004,-0.9100000000000001,-1.0880930604390757,-10.031376498380514,-0.9142020871034857,-0.858286419588093,-2.1497801660321287,-1.0074516216095173
1.0605642099999955,-1.1006983959999999,-10.0115697584,-0.9379864591999999,-1.12,-1.9600000000000002,-0.9100000000000001,-1.0931351946634453,-10.023453802388309,-0.9237158359420915,-0.9629718517528559,-2.0738680996192773,-0.9684709729657104
1.0719058939999968,-1.088734283,-10.028319516599998,-0.9308079913999999,-0.9100000000000001,-1.9600000000000002,-1.12,-1.091374829998067,-10.025400088072987,-0.9265526981252549,-0.9417831110517136,-2.0283208597715663,-1.0290825837794262
1.083671604000017,-1.0791629926,-10.045069274799998,-0.9188438783999999,-1.12,-2.1700000000000004,-1.12,-1.08649009503884,-10.03326776276379,-0.923469170235153,-1.0130698666310283,-2.08499251586294,-1.0654495502676558
1.0952833039999916,-1.0815558152,-10.0235338714,-0.9427721043999999,-0.9100000000000001,-1.8900000000000001,-0.9800000000000001,-1.084516383103304,-10.029374206218275,-0.9311903439010918,-0.9718419199786169,-2.0069955095177643,-1.0312697301605935
1.1069050050000158,-1.0815558152,-10.0235338714,-0.9116654106,-1.05,-2.0300000000000002,-0.9800000000000001,-1.0833321559419824,-10.027038072290962,-0.9233803705806551,-1.0031051519871703,-2.0161973057106586,-1.0107618380963561
1.1186797160000026,-1.1006983959999999,-10.037890806999998,-0.9188438783999999,-0.9800000000000001,-2.24,-1.2600000000000002,-1.0902786519651892,-10.031379166174577,-0.921565773708393,-0.9938630911923023,-2.105718383426395,-1.1104571028578136
1.1314504860000056,-1.1030912186,-10.083354436399997,-0.9475577495999999,-1.12,-2.1700000000000004,-1.05,-1.0954036786191135,-10.052169274264747,-0.9319625640650357,-1.0443178547153813,-2.1314310300558375,-1.086274261714688
1.1418881150000004,-1.0959127508,-9.966106128999998,-0.9116654106,-1.05,-2.24,-0.9800000000000001,-1.0956073074914683,-10.017744016158847,-0.9238437026790213,-1.0465907128292289,-2.1748586180335026,-1.0437645570288128
1.1550289079999914,-1.1246266219999999,-9.9828558872,-0.9523433947999999,-0.8400000000000001,-2.24,-1.54,-1.107215033294881,-10.003788764575306,-0.9352435795274129,-0.9639544276975373,-2.200915170820102,-1.2422587342172877
1.166976629000004,-1.0791629926,-10.0474620974,-0.8973084749999999,-0.49000000000000005,-1.9600000000000002,-0.77,-1.0959942170169283,-10.021258097705186,-0.9200695377164477,-0.7743726566185224,-2.104549102492061,-1.0533552405303728
1.1788743460000148,-1.0959127508,-9.980463064599999,-0.8829515394,-0.9800000000000001,-2.0300000000000002,-0.8400000000000001,-1.095961630530157,-10.00494008446311,-0.9052223383898684,-0.8566235939711135,-2.0747294614952367,-0.9680131443182237
1.1909970780000094,-1.0719845248,-10.013962581,-0.8949156524,-0.9100000000000001,-2.1700000000000004,-0.9800000000000001,-1.0863707882380942,-10.008549083077867,-0.901099663993921,-0.8779741563826681,-2.1128376768971417,-0.9728078865909342
1.2010146819999932,-1.1054840412,-10.04985492,-0.9379864591999999,-0.77,-2.1700000000000004,-0.9100000000000001,-1.0940160894228566,-10.02507141784672,-0.9158543820763527,-0.8347844938296008,-2.135702606138285,-0.9476847319545605
1.212919400000004,-1.0863414604,-10.006784113199998,-0.8949156524,-1.05,-2.24,-0.9100000000000001,-1.0909462378137138,-10.017756495988033,-0.9074788902058115,-0.9208706962977605,-2.1774215636829712,-0.9326108391727364
1.2256611680000162,-1.0767701699999999,-10.0115697584,-0.8901300072,-0.9800000000000001,-2.1700000000000004,-0.9100000000000001,-1.0852758106882283,-10.01528180095282,-0.900539337003487,-0.9445224177786563,-2.174452938209783,-0.9235665035036418
1.2369378490000145,-1.0839486377999998,-10.0187482262,-0.8853443619999999,-0.77,-2.1,-1.12,-1.0847449415329369,-10.016668371051693,-0.894461347002092,-0.8747134506671939,-2.14467176292587,-1.002139902102185
1.2500816410000084,-1.0839486377999998,-10.0594262104,-0.9020941201999999,-1.33,-2.1,-0.6300000000000001,-1.0844264200397622,-10.033771506791014,-0.8975144562812551,-1.0568280704003163,-2.126803057755522,-0.853283941261311
1.2618703520000167,-1.1030912186,-9.992427177599998,-0.9164510557999999,-0.6300000000000001,-2.0300000000000002,-0.9100000000000001,-1.0918923394638573,-10.017233775114606,-0.9050890960887531,-0.8860968422401898,-2.088081834653313,-0.8759703647567867
1.2746311220000166,-1.0959127508,-10.006784113199998,-0.8853443619999999,-0.8400000000000001,-2.1,-1.05,-1.0935005039983143,-10.013053910348763,-0.8971912024532518,-0.8676581053441139,-2.092849100791988,-0.945582218854072
1.2862788250000108,-1.0839486377999998,-10.001998467999998,-0.8997012976000001,-0.8400000000000001,-2.0300000000000002,-1.12,-1.0896797575189887,-10.008631733409256,-0.8981952405119512,-0.8565948632064684,-2.067709460475193,-1.015349331312443
1.2989385879999986,-1.0983055734,-10.033105161799998,-0.8925228297999999,-0.8400000000000001,-1.9600000000000002,-0.7000000000000001,-1.093130083871393,-10.018421104765554,-0.8959262762271707,-0.8499569179238811,-2.024625676285116,-0.8892095987874659
1.3103452759999925,-1.1150553316,-10.033105161799998,-0.8901300072,-0.77,-1.9600000000000002,-0.9800000000000001,-1.1019001829628359,-10.024294727579331,-0.8936077686163025,-0.8179741507543287,-1.9987754057710694,-0.9255257592724796
1.322387003000017,-1.0983055734,-10.0354979844,-0.8997012976000001,-1.1900000000000002,-2.24,-1.12,-1.1004623391377015,-10.028776030307599,-0.8960451802097813,-0.9667844904525974,-2.095265243462642,-1.0033154555634878
1.3343977270000096,-1.0600204117999998,-10.0187482262,-0.9020941201999999,-1.05,-2.24,-0.9800000000000001,-1.084285568202621,-10.024764908664558,-0.8984647562058689,-1.0000706942715585,-2.153159146077585,-0.9939892733380926
1.3460674309999945,-1.0839486377999998,-10.021141048799999,-0.9044869427999999,-1.12,-2.1700000000000004,-1.12,-1.0841507960415724,-10.023315364718734,-0.9008736308435213,-1.0480424165629352,-2.1598954876465513,-1.0443935640028557
1.3585941869999942,-1.0983055734,-10.0235338714,-0.9332008139999999,-0.56,-2.1700000000000004,-1.05,-1.0898127069849435,-10.02340276739124,-0.9138045041061127,-0.8528254499377611,-2.163937292587931,-1.0466361384017133
1.3705639089999977,-1.1006983959999999,-10.028319516599998,-0.9068797653999999,-0.6300000000000001,-2.1,-1.12,-1.0941669825909661,-10.025369467074741,-0.9110346086236677,-0.7636952699626567,-2.1383623755527585,-1.075981683041028
1.3819865979999975,-1.1078768637999998,-10.004391290600001,-0.9116654106,-0.77,-2.1,-1.2600000000000002,-1.0996509350745796,-10.016978196484844,-0.9112869294142005,-0.7662171619775939,-2.123017425331655,-1.1495890098246169
1.393838312000014,-1.0767701699999999,-10.0163554036,-0.8997012976000001,-0.9100000000000001,-2.1,-1.2600000000000002,-1.0904986290447476,-10.016729079330906,-0.9066526766885202,-0.8237302971865564,-2.113810455198993,-1.1937534058947703
1.404754971000017,-1.1102696864,-10.0163554036,-0.8901300072,-0.7000000000000001,-2.0300000000000002,-0.9100000000000001,-1.0984070519868485,-10.016579609038542,-0.9000436088931123,-0.7742381783119338,-2.080286273119396,-1.080252043536862
1.416289667000001,-1.0935199281999999,-10.013962581,-0.8973084749999999,-0.49000000000000005,-1.8900000000000001,-0.77,-1.096452202472109,-10.015532797823125,-0.8989495553358673,-0.6605429069871603,-2.0041717638716374,-0.9561512261221172
1.42822138599999,-1.1006983959999999,-10.006784113199998,-0.8805587167999999,-1.1900000000000002,-2.0300000000000002,-0.77,-1.0981506798832654,-10.012033323973876,-0.8915932199215205,-0.8723257441922962,-2.014503058322983,-0.8816907356732704
1.4401141040000027,-1.0839486377999998,-10.0163554036,-0.9116654106,-0.9800000000000001,-2.0300000000000002,-1.2600000000000002,-1.0924698630499592,-10.013762155824326,-0.8996220961929122,-0.9153954465153777,-2.02070183499379,-1.0330144414039621
1.4513887840000166,-1.0983055734,-10.028319516599998,-0.8709874264,-0.9100000000000001,-2.1,-1.1900000000000002,-1.0948041471899754,-10.019585100134593,-0.8881682282757474,-0.9132372679092267,-2.052421100996274,-1.0958086648423775
1.4629204789999903,-1.0839486377999998,-10.004391290600001,-0.8901300072,-0.6300000000000001,-2.0300000000000002,-0.9800000000000001,-1.0904619434339853,-10.013507576320757,-0.8889529398454483,-0.7999423607455359,-2.0434526605977643,-1.0494851989054266
1.4747151910000014,-1.0719845248,-10.004391290600001,-0.9260223461999999,-0.9100000000000001,-2.1,-0.9800000000000001,-1.083070975980391,-10.009861062032455,-0.903780702387269,-0.8439654164473216,-2.0660715963586584,-1.021691119343256
1.486721915000004,-1.0767701699999999,-10.0235338714,-0.8542376682,-0.6300000000000001,-2.0300000000000002,-0.9800000000000001,-1.0805506535882345,-10.015330185779472,-0.8839634887123615,-0.7583792498683929,-2.0516429578151953,-1.0050146716059538
1.4983936190000122,-1.1006983959999999,-10.021141048799999,-0.9284151687999999,-0.8400000000000001,-1.9600000000000002,-0.8400000000000001,-1.0886097505529404,-10.017654530987684,-0.901744160747417,-0.7910275499210359,-2.0149857746891175,-0.9390088029635723
1.5103733420000083,-1.0695917021999999,-10.045069274799998,-0.8829515394,-1.05,-2.1,-1.12,-1.0810025312117644,-10.02862042851261,-0.8942271122084501,-0.8946165299526215,-2.0489914648134704,-1.0114052817781434
1.5221750530000122,-1.1078768637999998,-10.0474620974,-0.9068797653999999,-0.8400000000000001,-2.24,-0.9800000000000001,-1.0917522642470585,-10.036157096067564,-0.8992881734850701,-0.872769917971573,-2.1253948788880823,-0.998843169066886
1.5338337569999965,-1.0767701699999999,-10.025926693999999,-0.8901300072,-0.56,-1.9600000000000002,-0.7000000000000001,-1.0857594265482349,-10.032064935240538,-0.8956249069710419,-0.7476619507829438,-2.0592369273328495,-0.8793059014401317
1.5458794829999931,-1.088734283,-10.0115697584,-0.9020941201999999,-1.4700000000000002,-2.3800000000000003,-1.05,-1.086949369128941,-10.023866864504322,-0.8982125922626252,-1.0365971704697663,-2.1875421563997097,-0.947583540864079
1.5578022020000049,-1.0791629926,-10.030712339199999,-0.8901300072,-0.9100000000000001,-2.0300000000000002,-1.12,-1.0838348185173643,-10.02660505438259,-0.8949795582375752,-0.9859583022818599,-2.124525293839826,-1.0165501245184476
1.569820926999995,-1.0863414604,-9.990034354999999,-0.9212367009999999,-0.9100000000000001,-2.0300000000000002,-1.1900000000000002,-1.0848374752704186,-10.011976774629556,-0.905482415342545,-0.955574981369116,-2.086715176303896,-1.0859300747110687
1.5820026620000078,-1.0791629926,-10.025926693999999,-0.8757730716000001,-0.77,-1.8900000000000001,-0.9100000000000001,-1.0825676822022512,-10.017556742377732,-0.893598677845527,-0.8813449888214697,-2.0080291057823376,-1.015558044826641
1.594163395999999,-1.1102696864,-9.9828558872,-0.8925228297999999,-1.12,-2.1,-0.7000000000000001,-1.0936484838813507,-10.00367640030664,-0.8931683386273163,-0.9768069932928819,-2.0448174634694025,-0.8893348268959846
1.6059551069999998,-1.1006983959999999,-10.030712339199999,-0.8781658942,-0.8400000000000001,-2.0300000000000002,-0.8400000000000001,-1.0964684487288103,-10.014490775863983,-0.8871673608563897,-0.9220841959757291,-2.0388904780816417,-0.8696008961375908
1.6175578069999972,-1.0983055734,-10.030712339199999,-0.8566304908,-0.8400000000000001,-2.31,-0.9800000000000001,-1.0972032985972862,-10.020979401198387,-0.8749526128338339,-0.8892505175854375,-2.1473342868489853,-0.9137605376825546
1.629292515000003,-1.1150553316,-10.009176935799998,-0.8853443619999999,-0.9800000000000001,-2.0300000000000002,-1.1900000000000002,-1.1043441117983717,-10.016258415039033,-0.8791093125003003,-0.9255503105512627,-2.1004005721093915,-1.024256322609533
1.6412452350000137,-1.1126625089999997,-9.8321080634,-0.9810572659999999,-1.12,-2.5900000000000003,-1.54,-1.1076714706790227,-9.94259827438342,-0.9198884939001801,-1.0033301863307575,-2.296240343265635,-1.2305537935657198
1.6533909679999965,-1.1820543644,-9.8249295956,-0.7944171031999999,-0.6300000000000001,-1.8900000000000001,-0.77,-1.1374246281674139,-9.89553080287005,-0.869699937620108,-0.8539981117984545,-2.133744205959381,-1.046332276139432
1.6652986859999999,-1.1246266219999999,-10.3657075032,-0.9882357337999998,-0.56,-2.3800000000000003,-0.77,-1.1323054257004483,-10.08360148300203,-0.9171142560920649,-0.7363988670790726,-2.232246523575629,-0.9357993656836592
1.6773234119999927,-1.1222337993999998,-9.9038927414,-0.8303094421999999,-0.9100000000000001,-2.31,-1.4700000000000002,-1.128276775180269,-10.01171798636122,-0.8823923305352389,-0.8058393202474436,-2.2633479141453776,-1.1494796194101955
1.694638456000007,-1.0911271056,-9.9086783866,-0.9332008139999999,-0.35000000000000003,-2.3800000000000003,-0.77,-1.1134169073481612,-9.970502146456731,-0.9027157239211433,-0.6235035921484662,-2.310008748487227,-0.9976877716461172
1.7057241250000175,-1.1294122671999998,-10.013962581,-0.9547362173999999,-0.9100000000000001,-1.8900000000000001,-0.49000000000000005,-1.1198150512888967,-9.987886320274036,-0.923523921312686,-0.7381021552890799,-2.1420052490923362,-0.7946126629876703
1.7158837370000128,-1.0839486377999998,-10.0905329042,-0.8159525066,-0.35000000000000003,-1.33,-0.14,-1.1054684858933381,-10.028944953844425,-0.8804953554276116,-0.5828612931734479,-1.8172031494554017,-0.5327675977926022
1.7286305039999945,-1.1222337993999998,-10.0905329042,-0.8470592004,-1.12,-2.45,-1.7500000000000002,-1.112174611296003,-10.053580133986655,-0.867120893416567,-0.7977167759040688,-2.070321889673241,-1.0196605586755614
1.74065521,-1.0935199281999999,-9.980463064599999,-0.8757730716000001,-0.9800000000000001,-2.24,-1.6800000000000002,-1.1047127380576016,-10.024333306231993,-0.8705817646899402,-0.8706300655424413,-2.1381931338039446,-1.2837963352053368
1.7523068929999965,-1.0384850084,-10.088140081599997,-0.9236295236,-0.77,-2.5900000000000003,-1.05,-1.0782216461945608,-10.049856016379193,-0.8918008682539641,-0.8303780393254648,-2.318915880282367,-1.1902778011232018
1.7635035499999958,-1.0791629926,-9.942177903,-0.8853443619999999,-0.6300000000000001,-1.7500000000000002,0.07,-1.0785981847567365,-10.006784771027519,-0.8892182657523784,-0.7502268235952789,-2.0913495281694203,-0.6861666806739211
1.7755962600000146,-1.0839486377999998,-10.1240324206,-0.8709874264,-0.8400000000000001,-1.1900000000000002,-0.21000000000000002,-1.080738365974042,-10.05368383085651,-0.881925930011427,-0.7861360941571673,-1.7308097169016523,-0.49570000840435263
1.7878349780000065,-1.1294122671999998,-9.999605645399999,-0.8303094421999999,-0.8400000000000001,-2.24,-1.6800000000000002,-1.1002079264644253,-10.032052556673907,-0.861279334886856,-0.8076816564943005,-1.9344858301409915,-0.9694200050426117
1.7997696779999899,-1.0959127508,-10.009176935799998,-0.8255237969999999,-0.9100000000000001,-2.7300000000000004,-2.1700000000000004,-1.0984898561986551,-10.022902308324344,-0.8469771197321136,-0.8486089938965803,-2.2526914980845953,-1.449652003025567
1.8116363740000168,-1.0719845248,-10.037890806999998,-0.8829515394,-0.9800000000000001,-2.87,-1.54,-1.0878877236391928,-10.028897707794606,-0.8613668875992682,-0.9011653963379482,-2.499614898850757,-1.4857912018153405
1.823155049999997,-1.0265208954,-9.992427177599998,-0.9403792817999999,-1.12,-1.61,0.28,-1.0633409923435155,-10.014309495716763,-0.8929718452795609,-0.988699237802769,-2.1437689393104544,-0.7794747210892043
1.8341656960000137,-1.0863414604,-9.978070242,-0.8877371846000001,-0.77,-1.2600000000000002,-0.21000000000000002,-1.0725411795661095,-9.999813794230057,-0.8908779810077364,-0.9012195426816615,-1.7902613635862727,-0.5516848326535226
1.846921444000003,-1.1222337993999998,-10.0163554036,-0.8709874264,-1.1900000000000002,-1.8200000000000003,-1.4000000000000001,-1.0924182274996657,-10.006430437978034,-0.8829217591646418,-1.016731725608997,-1.8021568181517635,-0.8910108995921137
1.859158162,-1.1006983959999999,-10.0546405652,-0.8973084749999999,-0.49000000000000005,-3.0100000000000002,-2.5200000000000005,-1.0957302948997993,-10.025714488866821,-0.8886764454987849,-0.8060390353653982,-2.285294090891058,-1.5426065397552684
1.870569832000001,-1.0576275892,-9.958927661199999,-0.8303094421999999,-1.33,-2.45,-1.7500000000000002,-1.0804892126198795,-9.998999757800092,-0.8653296441792709,-1.015623421219239,-2.3511764545346345,-1.625563923853161
1.8823315220000154,-1.0528419439999999,-10.042676452199998,-0.8997012976000001,-1.33,-1.7500000000000002,-0.07,-1.0694303051719276,-10.016470435560057,-0.8790783055475625,-1.1413740527315435,-2.110705872720781,-1.0033383543118966
1.894643244000008,-1.088734283,-9.9828558872,-0.8470592004,-1.05,-1.61,0.07,-1.0771518963031566,-10.003024616216033,-0.8662706634885374,-1.1048244316389262,-1.9104235236324687,-0.5740030125871379
1.906668948999993,-1.1270194446,-10.040283629599998,-0.8638089586000001,-0.77,-2.1,-0.8400000000000001,-1.097098915621894,-10.01792822156962,-0.8652859815331223,-0.9708946589833557,-1.9862541141794814,-0.6804018075522829
1.9181926250000174,-1.1222337993999998,-10.0115697584,-0.8542376682,-1.12,-2.9400000000000004,-2.45,-1.1071528691331363,-10.015384836301774,-0.8608666561998733,-1.0305367953900135,-2.367752468507689,-1.3882410845313697
1.929900312000001,-1.0480562988,-10.04985492,-0.8949156524,-0.8400000000000001,-3.2900000000000005,-1.2600000000000002,-1.083514240999882,-10.02917286978106,-0.874486254679924,-0.9543220772340081,-2.736651481104613,-1.3369446507188218
1.9419070170000055,-1.0384850084,-9.9708917742,-0.8566304908,-1.12,-1.4000000000000001,17.78,-1.0655025479599292,-10.005860431548637,-0.8673439491279544,-1.0205932463404048,-2.2019908886627677,6.309833209568708
1.9535086969999895,-1.064806057,-10.080961613799998,-0.8685946038,-0.56,-0.28,0.21000000000000002,-1.0652239515759574,-10.035900904449182,-0.8678442109967727,-0.8363559478042429,-1.4331945331976608,3.8698999257412248
1.9645893470000146,-1.1964112999999998,-10.025926693999999,-0.8207381517999999,-1.05,-3.1500000000000004,-2.45,-1.1176988909455743,-10.031911220269508,-0.8490017873180636,-0.9218135686825457,-2.1199167199185966,1.3419399554447347
1.9762610319999965,-1.1078768637999998,-10.0546405652,-0.8374879099999999,-0.77,-2.45,-1.8200000000000003,-1.1137700800873447,-10.041002958241705,-0.844396236390838,-0.8610881412095275,-2.251950031951158,0.0771639732668407
1.988043723000004,-1.0935199281999999,-9.980463064599999,-0.9619146851999999,-1.12,-3.43,-2.5900000000000003,-1.1056700193324067,-10.016787000785023,-0.8914036159145028,-0.9646528847257165,-2.723170019170695,-0.9897016160398958
1.999975422999995,-1.0935199281999999,-9.822536773,-0.8877371846000001,-0.49000000000000005,-1.8200000000000003,0.14,-1.100809982879444,-9.93908690967101,-0.8899370433887017,-0.77479173083543,-2.361902011502417,-0.5378209696239374
2.011571104000012,-1.0791629926,-10.1742816952,-0.9140582331999999,-0.6300000000000001,-0.14,0.8400000000000001,-1.0921511867676663,-10.033164823882606,-0.8995855193132211,-0.716875038501258,-1.4731412069014505,0.013307418225637637
2.0221117220000053,-1.1126625089999997,-10.234102260199998,-0.6675975054,-0.35000000000000003,0.07,-0.28,-1.1003557156605999,-10.113539798409564,-0.8067903137479325,-0.5701250231007549,-0.8558847241408702,-0.10401554906461744
2.0336874010000088,-1.1988041226,-10.061819032999999,-0.8757730716000001,-1.12,-4.69,-5.11,-1.1397350784363598,-10.092851492245737,-0.8343834168887596,-0.790075013860453,-2.3895308344845225,-2.1064093294387707
2.0466781629999957,-1.088734283,-9.839286531199999,-0.9619146851999999,-1.4700000000000002,-5.040000000000001,-3.5000000000000004,-1.1193347602618158,-9.991425507827444,-0.8853959242132557,-1.0620450083162718,-3.4497185006907136,-2.6638455976632627
2.057533800000016,-0.9786644433999999,-9.9517491934,-1.088734283,-1.6800000000000002,-3.22,0.35000000000000003,-1.0630666335170895,-9.975554982056465,-0.9667312677279531,-1.3092270049897632,-3.3578311004144283,-1.4583073585979573
2.0709205859999997,-1.0265208954,-9.882357337999998,-0.9116654106,-0.21000000000000002,0.56,5.74,-1.0484483382702536,-9.938275924433878,-0.9447049248767718,-0.869536202993858,-1.7906986602486572,1.421015584841226
2.082592269999992,-1.4668002538,-10.1479606466,-0.71784678,-0.42000000000000004,1.61,1.1900000000000002,-1.215789104482152,-10.022149813300327,-0.853961666926063,-0.6897217217963149,-0.4304191961491941,1.3286093509047359
2.0935819150000157,-1.2299108163999999,-9.9876415324,-0.6269195211999999,-0.21000000000000002,-2.1,-6.930000000000001,-1.2214377892492914,-10.008346500940196,-0.763144808635638,-0.49783303307778887,-1.0982515176895167,-1.974834389457159
2.1045475580000073,-0.9858429111999999,-10.179067340399998,-0.8303094421999999,-0.07,-8.610000000000001,-16.59,-1.1271998380295747,-10.07663483672412,-0.7900106620613826,-0.32669981984667334,-4.1029509106137105,-7.820900633674296
2.1152571869999974,-0.9667003303999999,-9.8273224182,-0.9882357337999998,-1.1900000000000002,-4.550000000000001,-2.66,-1.0630000349777446,-9.97690986931447,-0.8693006907568296,-0.672019891908004,-4.281770546368226,-5.756540380204577
2.128184945000015,-0.8973084749999999,-9.954142015999999,-1.0528419439999999,-1.33,1.12,5.74,-0.9967234109866467,-9.96780272798868,-0.9427171920540977,-0.9352119351448025,-2.121062327820936,-1.1579242281227462
2.1400346400000103,-1.3232308977999998,-9.8177511278,-0.8303094421999999,-1.4000000000000001,2.24,10.99,-1.127326405711988,-9.907782087913208,-0.8977540921124585,-1.1211271610868814,-0.37663739669256147,3.7012454631263534
2.1521533510000097,-1.2849457361999996,-10.3082797608,-0.8446663778,-0.56,-2.24,-4.2,-1.1903741379071928,-10.067981157067925,-0.8765190063874753,-0.8966762966521288,-1.121982438015537,0.5407472778758116
2.162911981999997,-1.1892328321999999,-10.009176935799998,-0.7896314579999999,0.21000000000000002,-7.210000000000001,-10.71,-1.1899176156243156,-10.044459468560756,-0.841763987032485,-0.4540057779912773,-3.5571894628093226,-3.9595516332745135
2.1740986389999932,-0.9044869427999999,-10.001998467999998,-0.7848458127999999,0.21000000000000002,-5.8100000000000005,-9.73,-1.0757453464945894,-10.027475068336452,-0.8189967173394911,-0.18840346679476633,-4.458313677685593,-6.267730979964709
2.185371300000014,-0.7824529901999999,-9.9493563708,-0.8398807326,-0.49000000000000005,-1.2600000000000002,1.6800000000000002,-0.9584284039767536,-9.996227589321872,-0.8273503234436946,-0.30904208007685985,-3.1789882066113564,-3.088638587978825
2.196870974999996,-0.9667003303999999,-10.1001041946,-0.8374879099999999,-0.56,2.3800000000000003,6.0200000000000005,-0.9617371745460522,-10.037778231433121,-0.8314053580662167,-0.4094252480461159,-0.9553929239668135,0.5548168472127053
2.2082636430000093,-1.3304093655999998,-9.999605645399999,-0.8805587167999999,-1.1900000000000002,-17.290000000000003,1.12,-1.1092060509676311,-10.022509197019874,-0.8510667015597302,-0.7216551488276696,-7.48923575438009,0.7808901083276233
2.2202303450000045,-1.2945170265999997,-10.061819032999999,-0.9092725879999999,-0.9100000000000001,-5.11,-6.790000000000001,-1.1833304412205787,-10.038233131411923,-0.8743490561358381,-0.7969930892966018,-6.537541452628053,-2.2474659350034267
2.2308229669999946,-1.0911271056,-10.042676452199998,-0.9810572659999999,0.07,-6.930000000000001,-7.630000000000001,-1.146449106972347,-10.040010459727151,-0.9170323400815027,-0.45019585357796105,-6.694524871576832,-4.400479561002057
2.24099656300001,-0.8829515394,-10.052247742599999,-0.8973084749999999,0.07,-3.0100000000000002,-3.08,-1.0410500799434081,-10.044905372876292,-0.9091427940489016,-0.24211751214677663,-5.2207149229461,-3.8722877366012343
2.252013210000001,-0.8853443619999999,-10.013962581,-0.8303094421999999,-0.56,0.35000000000000003,1.9600000000000002,-0.9787677927660449,-10.032528256125774,-0.8776094533093409,-0.369270507288066,-2.99242895376766,-1.53937264196074
2.2634658819999913,-1.088734283,-10.040283629599998,-0.7968099257999999,-1.1900000000000002,0.56,2.3800000000000003,-1.0227543888596269,-10.035630405515466,-0.8452896423056045,-0.6975623043728396,-1.571457372260596,0.028376414823556097
2.2744815279999955,-1.2658031554,-9.992427177599998,-0.8662017812,-1.61,-1.8200000000000003,-17.92,-1.119973895475776,-10.018349114349279,-0.8536544978633627,-1.062537382623704,-1.6708744233563575,-7.150974151105867
2.2862322169999914,-1.2011969452,-9.9469635482,-0.9116654106,-0.8400000000000001,-5.180000000000001,-4.83,-1.1524631153654654,-9.989794887889568,-0.8768588629580175,-0.9735224295742224,-3.0745246540138145,-6.222584490663521
2.29862194399999,-1.0097711372,-9.985248709799999,-0.9308079913999999,0.0,-3.2900000000000005,-3.3600000000000003,-1.0953863240992794,-9.98797641665374,-0.8984385143348106,-0.5841134577445334,-3.1607147924082892,-5.077550694398114
2.310368632999996,-0.9451649269999999,-10.073783145999998,-0.8685946038,-0.42000000000000004,-0.6300000000000001,0.42000000000000004,-1.0352977652595676,-10.022299108392245,-0.8865009501208863,-0.5184680746467201,-2.1484288754449734,-2.878530416638868
2.3219713139999953,-1.0983055734,-10.1048898398,-0.8374879099999999,-0.9800000000000001,0.35000000000000003,0.9800000000000001,-1.0605008885157408,-10.055335400955345,-0.8668957340725318,-0.7030808447880322,-1.149057325266984,-1.3351182499833205
2.333321979999994,-1.2107682356,-10.0187482262,-0.8303094421999999,-1.4700000000000002,-2.5900000000000003,-1.7500000000000002,-1.1206078273494444,-10.040700531053208,-0.8522612173235189,-1.0098485068728196,-1.7254343951601905,-1.5010709499899924
2.3449036590000105,-1.1461620253999998,-9.9828558872,-0.8997012976000001,-0.9100000000000001,-5.11,-3.08,-1.1308295065696665,-10.017562673511925,-0.8712372494341114,-0.9699091041236918,-3.0792606370961146,-2.1326425699939953
2.3568003569999973,-1.0121639597999998,-9.978070242,-0.9116654106,-0.9100000000000001,-3.43,-0.77,-1.0833632878617998,-10.001765700907153,-0.8874085139004669,-0.945945462474215,-3.219556382257669,-1.5875855419963971
2.368176024999997,-1.0265208954,-9.963713306399999,-0.7968099257999999,-0.77,-0.07,0.8400000000000001,-1.0606263308770798,-9.986544743104291,-0.8511690786602802,-0.875567277484529,-1.9597338293546012,-0.6165513251978382
2.3801267260000145,-1.1629117836,-10.033105161799998,-0.7848458127999999,-0.56,0.0,0.07,-1.1015405119662478,-10.005168910582572,-0.8246397723161681,-0.7493403664907173,-1.1758402976127607,-0.3419307951187029
2.391360385000013,-1.1892328321999999,-10.068997500799998,-0.8015955709999999,-0.77,-1.8900000000000001,-2.5900000000000003,-1.1366174400597486,-10.030700346669544,-0.8154220917897009,-0.7576042198944305,-1.4615041785676566,-1.241158477071222
2.403235080999991,-1.1102696864,-9.9828558872,-0.8422735552,-0.6300000000000001,-5.32,-4.2700000000000005,-1.126078338595849,-10.011562562881728,-0.8261626771538205,-0.7065625319366583,-3.004902507140594,-2.4526950862427332
2.4131106609999904,-0.9762716207999999,-9.994820000199999,-0.9499505721999999,-1.12,-4.0600000000000005,-1.2600000000000002,-1.0661556514775095,-10.004865537809035,-0.8756778351722923,-0.871937519161995,-3.4269415042843567,-1.97561705174564
2.4245043290000012,-0.9858429111999999,-9.9732845968,-0.9643075077999999,-1.61,-1.4000000000000001,1.1900000000000002,-1.0340305553665057,-9.992233161405421,-0.9111297042233755,-1.167162511497197,-2.6161649025706137,-0.7093702310473838
2.433814874999996,-1.0600204117999998,-10.033105161799998,-0.9236295236,-0.9100000000000001,0.42000000000000004,1.4000000000000001,-1.0444264979399034,-10.008581961563252,-0.9161296319740253,-1.0642975068983183,-1.4016989415423684,0.13437786137156976
2.444761518000007,-1.1940184774,-10.0594262104,-0.8805587167999999,-0.8400000000000001,-0.77,-0.49000000000000005,-1.104263289723942,-10.02891966109795,-0.901901265904415,-0.974578504138991,-1.1490193649254212,-0.1153732831770582
2.4561691870000004,-1.1868400096,-10.0187482262,-0.7441678286,-0.28,-3.5700000000000003,-4.2700000000000005,-1.137293977674365,-10.024851087138769,-0.8388078909826491,-0.6967471024833946,-2.117411618955253,-1.7772239699062353
2.4685599139999965,-1.0097711372,-10.006784113199998,-0.7680960546,-0.7000000000000001,-4.69,-3.9200000000000004,-1.086284841484619,-10.01762429756326,-0.8105231564295895,-0.6980482614900367,-3.146446971373152,-2.6343343819437415
2.4798275750000016,-0.9523433947999999,-9.9708917742,-0.8255237969999999,-0.6300000000000001,-2.24,0.28,-1.0327082628107713,-9.998931288217957,-0.8165234126577535,-0.6708289568940221,-2.783868182823891,-1.4686006291662446
2.490903225000011,-1.0360921857999998,-9.9972128228,-0.8853443619999999,-0.9100000000000001,-0.14,1.61,-1.0340618320064627,-9.998243902050776,-0.8440517923946522,-0.7664973741364134,-1.7263209096943346,-0.23716037749974656
2.502731919000013,-1.2059825903999999,-10.006784113199998,-0.9284151687999999,-0.9800000000000001,-0.42000000000000004,0.28,-1.1028301353638776,-10.001659986510465,-0.8777971429567913,-0.851898424481848,-1.203792545816601,-0.030296226499847898
2.5138805729999945,-1.1964112999999998,-10.04985492,-0.8973084749999999,-0.77,-2.8000000000000003,-2.87,-1.1402626012183266,-10.020937959906277,-0.8856016757740748,-0.8191390546891089,-1.8422755274899607,-1.166177735899909
2.5256562639999913,-1.1126625089999997,-10.013962581,-0.873380249,-0.49000000000000005,-3.99,-4.340000000000001,-1.1292225643309959,-10.018147808343763,-0.8807131050644448,-0.6874834328134654,-2.7013653164939764,-2.4357066415399458
2.5365859050000097,-1.0049854919999999,-10.021141048799999,-0.8279166196,-0.14,-3.2900000000000005,-1.8900000000000001,-1.0795277353985975,-10.019345104526257,-0.8595945108786668,-0.46849005968807916,-2.936819189896386,-2.2174239849239674
2.5486786140000106,-1.0097711372,-9.966106128999998,-0.849452023,-0.7000000000000001,-1.12,1.05,-1.0516250961191584,-9.998049514315754,-0.8555375157272,-0.5610940358128476,-2.2100915139378317,-0.9104543909543804
2.5598472690000165,-1.1102696864,-10.004391290600001,-0.8374879099999999,-1.2600000000000002,-0.6300000000000001,0.8400000000000001,-1.0750829322314952,-10.000586224829453,-0.84831767343632,-0.8406564214877086,-1.5780549083626991,-0.21027263457262818
2.571820972000012,-1.184447187,-10.009176935799998,-0.8111668613999999,-0.49000000000000005,-1.8900000000000001,-1.12,-1.1188286341388969,-10.004022509217672,-0.8334573486217919,-0.7003938528926252,-1.7028329450176196,-0.5741635807435769
2.583791673999997,-1.1533404932,-10.030712339199999,-0.873380249,-0.7000000000000001,-3.5700000000000003,-3.43,-1.1326333777633382,-10.014698441210601,-0.8494265087730751,-0.7002363117355751,-2.449699767010572,-1.7164981484461463
2.595229345000007,-1.0719845248,-10.0115697584,-0.9068797653999999,-0.49000000000000005,-2.66,-2.45,-1.108373836578003,-10.013446968086361,-0.8724078114238449,-0.6161417870413451,-2.5338198602063433,-2.0098988890676877
2.606604013000009,-1.0384850084,-10.042676452199998,-0.8685946038,-0.6300000000000001,-1.7500000000000002,-0.42000000000000004,-1.0804183053068017,-10.025138761731814,-0.870882528374307,-0.6216850722248071,-2.220291916123806,-1.3739393334406127
2.6182756970000014,-1.0959127508,-10.045069274799998,-0.8662017812,-0.7000000000000001,-1.33,0.21000000000000002,-1.086616083504081,-10.033110966959088,-0.8690102295045843,-0.6530110433348844,-1.8641751496742838,-0.7403636000643676
2.630050388000001,-1.1270194446,-10.030712339199999,-0.8398807326,-1.05,-1.7500000000000002,-0.49000000000000005,-1.1027774279424487,-10.032151515855453,-0.8573584307427504,-0.8118066260009306,-1.8185050898045703,-0.6402181600386205
2.641458056999994,-1.1318050897999998,-10.0115697584,-0.9140582331999999,-1.33,-2.5200000000000005,-1.54,-1.114388492685469,-10.023918812873271,-0.8800383517256503,-1.0190839756005583,-2.099103053882742,-1.0001308960231723
2.653618770999998,-1.0959127508,-9.978070242,-0.8327022647999999,-0.6300000000000001,-2.66,-1.8200000000000003,-1.1069981959312813,-10.005579384523964,-0.8611039169553901,-0.863450385360335,-2.3234618323296456,-1.3280785376139035
2.6655264690000138,-1.0624132344,-9.994820000199999,-0.8757730716000001,-1.33,-1.9600000000000002,-0.9800000000000001,-1.089164211318769,-10.001275630794376,-0.866971578813234,-1.050070231216201,-2.1780770993977874,-1.1888471225683421
2.677543173999993,-1.0767701699999999,-10.033105161799998,-0.8470592004,-0.6300000000000001,-1.8900000000000001,-0.35000000000000003,-1.0842065947912614,-10.014007443196626,-0.8590066274479403,-0.8820421387297205,-2.0628462596386723,-0.8533082735410052
2.6875397610000107,-1.0935199281999999,-10.025926693999999,-0.8422735552,-1.2600000000000002,-2.1,-0.9800000000000001,-1.0879319281547568,-10.018775143517972,-0.8523133985487642,-1.0332252832378324,-2.0777077557832033,-0.9039849641246032
2.6977213579999955,-1.1222337993999998,-10.030712339199999,-0.8925228297999999,-0.9800000000000001,-2.3800000000000003,-1.2600000000000002,-1.101652676652854,-10.023550021790784,-0.8683971710492585,-1.0119351699426995,-2.1986246534699223,-1.046390978474762
2.7103740999999957,-1.088734283,-10.0115697584,-0.8973084749999999,-1.1900000000000002,-2.1,-1.1900000000000002,-1.0964853191917123,-10.01875791643447,-0.8799616926295549,-1.0831611019656198,-2.159174792081953,-1.1038345870848574
2.7225428140000076,-1.0576275892,-10.025926693999999,-0.8805587167999999,-0.56,-1.8900000000000001,-0.77,-1.0809422271950273,-10.021625427460682,-0.880200502297733,-0.8738966611793718,-2.051504875249172,-0.9703007522509144
2.7343484959999955,-1.0791629926,-10.004391290600001,-0.8829515394,-0.8400000000000001,-1.8200000000000003,-0.9100000000000001,-1.0802305333570164,-10.01473177271641,-0.8813009171386396,-0.860337996707623,-1.9589029251495031,-0.9461804513505485
2.7456481410000038,-1.0935199281999999,-10.025926693999999,-0.7776673449999999,-0.77,-2.1700000000000004,-1.33,-1.0855462912942098,-10.019209741229846,-0.8398474882831838,-0.8242027980245739,-2.043341755089702,-1.0997082708103292
2.7577358300000014,-1.0935199281999999,-10.0163554036,-0.8135596839999999,-0.8400000000000001,-2.5900000000000003,-1.54,-1.0887357460565257,-10.018068006177906,-0.8293323665699103,-0.8305216788147444,-2.262005053053821,-1.2758249624861975
2.7688754659999972,-1.0791629926,-10.025926693999999,-0.8638089586000001,-0.77,-2.0300000000000002,-0.9100000000000001,-1.0849066446739153,-10.021211481306743,-0.843123003381946,-0.8063130072888467,-2.169203031832293,-1.1294949774917185
2.7806241369999896,-1.064806057,-9.992427177599998,-0.8685946038,-0.9800000000000001,-1.9600000000000002,-0.6300000000000001,-1.0768664096043492,-10.009697759824045,-0.8533116435491676,-0.875787804373308,-2.085521819099376,-0.9296969864950311
2.7926798249999933,-1.1150553316,-9.994820000199999,-0.8757730716000001,-0.35000000000000003,-1.7500000000000002,-1.12,-1.0921419784026094,-10.003746655974428,-0.8622962147695006,-0.6654726826239848,-1.9513130914596255,-1.0058181918970186
2.804460497000008,-1.1126625089999997,-10.0666046782,-0.9068797653999999,-0.6300000000000001,-2.1,-1.33,-1.1003501906415656,-10.028889864864658,-0.8801296350217002,-0.6512836095743909,-2.010787854875775,-1.1354909151382113
2.816606190000016,-1.088734283,-10.0163554036,-0.849452023,-0.9100000000000001,-2.3800000000000003,-1.6800000000000002,-1.0957038275849393,-10.023876080358793,-0.8678585902130201,-0.7547701657446345,-2.1584727129254655,-1.3532945490829267
2.8277818280000133,-1.0767701699999999,-10.030712339199999,-0.8662017812,-0.9800000000000001,-2.1,-0.9100000000000001,-1.0881303645509635,-10.026610583895275,-0.8671958666078121,-0.8448620994467808,-2.135083627755279,-1.1759767294497563
2.8390934729999913,-1.0695917021999999,-10.004391290600001,-0.861416136,-0.9100000000000001,-1.9600000000000002,-0.49000000000000005,-1.080714899610578,-10.017722866577165,-0.8648839743646872,-0.8709172596680685,-2.065050176653168,-0.9015860376698538
2.8519932100000176,-1.0935199281999999,-10.028319516599998,-0.8685946038,-0.49000000000000005,-1.6800000000000002,-0.56,-1.0858369110463468,-10.021961526586297,-0.8663682261388124,-0.718550355800841,-1.9110301059919008,-0.7649516226019122
2.863468863999998,-1.0911271056,-10.004391290600001,-0.8255237969999999,-0.8400000000000001,-2.24,-1.33,-1.087952988867808,-10.014933432191778,-0.8500304544832874,-0.7671302134805047,-2.0426180635951408,-0.9909709735611474
2.8756865619999985,-1.0456634761999999,-10.040283629599998,-0.8685946038,-0.56,-2.31,-1.7500000000000002,-1.0710371838006847,-10.025073511155064,-0.8574561142099724,-0.6842781280883029,-2.1495708381570844,-1.2945825841366887
2.8871652170000175,-1.0528419439999999,-10.021141048799999,-0.8709874264,-0.6300000000000001,-2.24,-1.12,-1.0637590878804106,-10.023500526213041,-0.8628686390859832,-0.6625668768529818,-2.185742502894251,-1.2247495504820132
2.8988078810000104,-1.0600204117999998,-9.9828558872,-0.873380249,-1.05,-1.9600000000000002,-0.56,-1.0622636174482463,-10.007242670607823,-0.8670732830515899,-0.8175401261117892,-2.0954455017365503,-0.9588497302892081
2.9108805700000175,-1.088734283,-10.0115697584,-0.8925228297999999,-1.33,-1.7500000000000002,-0.42000000000000004,-1.0728518836689478,-10.008973505724695,-0.8772531017509541,-1.0225240756670737,-1.9572673010419304,-0.7433098381735248
2.9226632430000166,-1.1078768637999998,-10.013962581,-0.8111668613999999,0.0,-1.9600000000000002,-1.12,-1.0868618757213686,-10.010969135834815,-0.8508186056105723,-0.6135144454002442,-1.9583603806251582,-0.8939859029041148
2.935104953000007,-1.0983055734,-10.045069274799998,-0.8949156524,-0.6300000000000001,-2.1,-1.4700000000000002,-1.0914393547928212,-10.02460919142089,-0.8684574243263432,-0.6201086672401466,-2.015016228375095,-1.124391541742469
2.9462005860000033,-1.1030912186,-9.9828558872,-0.8518448456000001,-0.56,-2.24,-1.2600000000000002,-1.0961001003156927,-10.007907869732533,-0.861812392835806,-0.5960652003440879,-2.1050097370250573,-1.1786349250454815
2.958793304000011,-1.0695917021999999,-10.0354979844,-0.861416136,-0.7000000000000001,-2.0300000000000002,-0.9800000000000001,-1.0854967410694156,-10.01894391559952,-0.8616538901014836,-0.6376391202064529,-2.0750058422150346,-1.0991809550272889
2.9692419010000037,-1.0935199281999999,-10.040283629599998,-0.8662017812,-1.4700000000000002,-1.9600000000000002,-0.7000000000000001,-1.0887060159216493,-10.02747980119971,-0.8634730465408902,-0.9705834721238717,-2.0290035053290207,-0.9395085730163734
2.9790444600000114,-1.1102696864,-10.030712339199999,-0.8350950873999999,-1.1900000000000002,-2.0300000000000002,-0.9800000000000001,-1.0973314841129895,-10.028772816399828,-0.8521218628845342,-1.0583500832743231,-2.0294021031974125,-0.955705143809824
2.9876439509999955,-1.1006983959999999,-9.994820000199999,-0.8685946038,-0.8400000000000001,-2.31,-1.05,-1.0986782488677937,-10.015191689919895,-0.8587109592507205,-0.971010049964594,-2.1416412619184477,-0.9934230862858944
2.9962614430000087,-1.0743773474,-10.006784113199998,-0.8590233134,-0.77,-2.5200000000000005,-1.2600000000000002,-1.0889578882806763,-10.011828659231938,-0.8588359009104322,-0.8906060299787563,-2.2929847571510686,-1.1000538517715366
3.004962938999995,-1.0743773474,-10.021141048799999,-0.8279166196,-0.42000000000000004,-2.1,-0.9800000000000001,-1.0831256719284057,-10.01555361505916,-0.8464681883862594,-0.7023636179872538,-2.2157908542906415,-1.052032311062922
3.0143914770000038,-1.0480562988,-9.994820000199999,-0.8518448456000001,-0.9800000000000001,-1.8900000000000001,-0.6300000000000001,-1.0690979226770434,-10.007260169115495,-0.8486188512717557,-0.8134181707923522,-2.0854745125743848,-0.8832193866377532
3.023035971000013,-1.0959127508,-10.013962581,-0.8255237969999999,-0.77,-1.9600000000000002,-0.9800000000000001,-1.0798238539262262,-10.009941133869296,-0.8393808295630535,-0.7960509024754114,-2.0352847075446308,-0.9219316319826519
3.034545627,-1.0743773474,-10.045069274799998,-0.8422735552,-1.12,-2.1700000000000004,-1.2600000000000002,-1.0776452513157357,-10.023992390241576,-0.8405379198178321,-0.9256305414852469,-2.0891708245267786,-1.0571589791895912
3.0467583239999954,-1.0983055734,-10.0115697584,-0.8087740387999999,-0.9800000000000001,-2.0300000000000002,-1.1900000000000002,-1.0859093801494415,-10.019023337504946,-0.8278323674106992,-0.9473783248911481,-2.065502494716067,-1.110295387513755
3.058103971999998,-1.0863414604,-10.006784113199998,-0.8638089586000001,-0.77,-2.31,-0.8400000000000001,-1.0860822122496647,-10.014127647782969,-0.8422230038864195,-0.876426994934689,-2.1633014968296402,-1.002177232508253
3.0700546540000175,-1.0839486377999998,-9.9756774194,-0.8590233134,-0.77,-1.9600000000000002,-1.05,-1.0852287824697988,-9.99874755642978,-0.8489431276918518,-0.8338561969608135,-2.0819808980977843,-1.0213063395049518
3.0815853120000156,-1.0935199281999999,-10.006784113199998,-0.8470592004,-1.12,-1.8900000000000001,-0.77,-1.0885452407618794,-10.001962179137868,-0.8481895567751109,-0.9483137181764882,-2.0051885388586705,-0.9207838037029711
3.0936710020000078,-1.0815558152,-10.033105161799998,-0.8231309743999999,-0.8400000000000001,-2.0300000000000002,-1.2600000000000002,-1.0857494705371273,-10.01441937220272,-0.8381661238250666,-0.904988230905893,-2.0151131233152024,-1.0564702822217826
3.105066652000005,-1.0911271056,-9.9876415324,-0.8063812161999999,-0.56,-1.9600000000000002,-1.05,-1.0879005245622766,-10.003708236281632,-0.8254521607750399,-0.7669929385435358,-1.9930678739891214,-1.0538821693330698
3.1168823259999954,-1.0863414604,-10.030712339199999,-0.8183453291999999,-0.7000000000000001,-2.24,-1.12,-1.087276898897366,-10.01450987744898,-0.822609428145024,-0.7401957631261216,-2.091840724393473,-1.0803293015998419
3.1299040689999913,-1.0719845248,-10.004391290600001,-0.861416136,-0.6300000000000001,-1.8900000000000001,-0.8400000000000001,-1.0811599492584194,-10.010462442709386,-0.8381321112870144,-0.6961174578756729,-2.011104434636084,-0.9841975809599052
3.142076763999995,-1.088734283,-10.013962581,-0.849452023,-0.7000000000000001,-1.7500000000000002,-0.6300000000000001,-1.0841896827550515,-10.011862498025632,-0.8426600759722086,-0.6976704747254037,-1.9066626607816504,-0.842518548575943
3.153874437000013,-1.0935199281999999,-9.9876415324,-0.873380249,-0.56,-2.0300000000000002,-1.12,-1.087921780933031,-10.002174111775378,-0.8549481451833251,-0.6426022848352422,-1.9559975964689902,-0.9535111291455658
3.1652450859999988,-1.1174481541999999,-10.040283629599998,-0.8446663778,-0.8400000000000001,-1.9600000000000002,-1.05,-1.0997323302398185,-10.017417918905227,-0.850835438229995,-0.7215613709011455,-1.9575985578813944,-0.9921066774873395
3.1754696700000125,-1.088734283,-10.004391290600001,-0.861416136,-0.49000000000000005,-2.1,-1.33,-1.0953331113438909,-10.012207267583136,-0.855067717337997,-0.6289368225406873,-2.0145591347288367,-1.1272640064924038
3.186035273000016,-1.0600204117999998,-10.021141048799999,-0.8829515394,-0.9100000000000001,-2.0300000000000002,-1.33,-1.0812080315263346,-10.01578078006988,-0.8662212461627982,-0.7413620935244124,-2.020735480837302,-1.2083584038954422
3.1968508900000074,-1.0863414604,-10.001998467999998,-0.8662017812,-0.8400000000000001,-1.9600000000000002,-0.9800000000000001,-1.0832614030758008,-10.01026785524193,-0.8662134601776789,-0.7808172561146475,-1.9964412885023815,-1.1170150423372653
3.208728567999998,-1.0552347666,-10.045069274799998,-0.8566304908,-0.42000000000000004,-1.9600000000000002,-0.6300000000000001,-1.0720507484854804,-10.024188423065155,-0.8623802724266072,-0.6364903536687885,-1.9818647731014287,-0.9222090254023592
3.220316228999991,-1.0815558152,-10.030712339199999,-0.8303094421999999,-1.33,-1.8900000000000001,-0.8400000000000001,-1.0758527751712883,-10.026797989519093,-0.8495519403359644,-0.9138942122012732,-1.9451188638608574,-0.8893254152414155
3.232452921999993,-1.0911271056,-10.0115697584,-0.8638089586000001,-0.7000000000000001,-2.24,-1.33,-1.0819625073427728,-10.020706697071455,-0.8552547476415786,-0.828336527320764,-2.0630713183165144,-1.0655952491448493
3.244483607999996,-1.0935199281999999,-10.033105161799998,-0.8518448456000001,-0.8400000000000001,-1.9600000000000002,-0.8400000000000001,-1.0865854756856637,-10.025666082962871,-0.8538907868249471,-0.8330019163924585,-2.021842790989909,-0.9753571494869097
3.2560982710000133,-1.0935199281999999,-9.932606612599997,-0.8709874264,-0.9800000000000001,-2.1700000000000004,-1.1900000000000002,-1.089359256691398,-9.988442294817723,-0.8607294426549684,-0.8918011498354751,-2.081105674593945,-1.061214289692146
3.2676949330000014,-1.0815558152,-10.013962581,-0.8303094421999999,-0.49000000000000005,-1.8200000000000003,-0.7000000000000001,-1.086237880094839,-9.998650409290633,-0.8485614424729808,-0.731080689901285,-1.9766634047563671,-0.9167285738152875
3.2797356199999967,-1.1030912186,-10.071390323399998,-0.8662017812,-0.7000000000000001,-1.8900000000000001,-0.9100000000000001,-1.0929792154969031,-10.02774637493438,-0.8556175779637886,-0.7186484139407711,-1.9419980428538204,-0.9140371442891726
3.291331282000016,-1.0839486377999998,-10.0163554036,-0.8255237969999999,-0.77,-2.31,-1.2600000000000002,-1.0893669844181417,-10.023189986400626,-0.8435800655782733,-0.7391890483644626,-2.0891988257122924,-1.0524222865735036
3.3028879409999945,-1.0959127508,-10.064211855599998,-0.8973084749999999,-1.05,-2.45,-1.1900000000000002,-1.0919852909708851,-10.039598734080375,-0.8650714293469637,-0.8635134290186776,-2.2335192954273757,-1.1074533719441022
3.3144045989999995,-1.0839486377999998,-9.9373922578,-0.8446663778,-0.8400000000000001,-2.1,-0.9100000000000001,-1.088770629702531,-9.998716143568224,-0.8569094087281782,-0.8541080574112067,-2.1801115772564255,-1.0284720231664612
3.3282933910000168,-1.0671988796,-10.061819032999999,-0.8518448456000001,-0.7000000000000001,-1.4700000000000002,-0.42000000000000004,-1.0801419296615185,-10.023957299340934,-0.854883583476907,-0.792464834446724,-1.8960669463538553,-0.7850832138998767
3.339131010000017,-1.1030912186,-9.9397850804,-0.8566304908,-0.56,-1.9600000000000002,-0.9100000000000001,-1.0893216452369112,-9.99028841176456,-0.8555823464061442,-0.6994789006680344,-1.9216401678123132,-0.8350499283399261
3.3509036810000055,-1.0791629926,-10.0594262104,-0.8518448456000001,-0.6300000000000001,-1.8200000000000003,-1.12,-1.0852581841821467,-10.017943531218735,-0.8540873460836865,-0.6716873404008207,-1.880984100687388,-0.9490299570039558
3.3623183329999904,-1.1102696864,-9.958927661199999,-0.8135596839999999,-0.7000000000000001,-2.66,-1.9600000000000002,-1.095262785069288,-9.994337183211242,-0.837876281250212,-0.6830124042404924,-2.192590460412433,-1.3534179742023738
3.372728926999997,-1.0336993632,-10.080961613799998,-0.8685946038,-0.49000000000000005,-2.5200000000000005,-1.12,-1.0706374163215728,-10.028986955446744,-0.8501636102701271,-0.6058074425442954,-2.3235542762474597,-1.2600507845214242
3.3838835640000013,-1.0432706536,-10.068997500799998,-0.8422735552,-0.56,-1.4700000000000002,0.14,-1.0596907112329437,-10.044991173588048,-0.8470075882420762,-0.5874844655265772,-1.982132565748476,-0.7000304707128545
3.394819188000014,-1.1246266219999999,-10.001998467999998,-0.8542376682,-0.9800000000000001,-1.61,-0.7000000000000001,-1.085665075539766,-10.027794091352826,-0.8498996202252458,-0.7444906793159464,-1.833279539449086,-0.7000182824277128
3.4063428450000117,-1.1078768637999998,-10.04985492,-0.8327022647999999,-0.8400000000000001,-2.24,-1.54,-1.0945497908438597,-10.036618422811697,-0.8430206780551475,-0.782694407589568,-1.9959677236694515,-1.0360109694566277
3.4171324609999942,-1.0743773474,-10.006784113199998,-0.861416136,-0.42000000000000004,-2.5900000000000003,-1.33,-1.0864808134663158,-10.024684698967018,-0.8503788612330886,-0.6376166445537408,-2.233580634201671,-1.153606581673977
3.4285441119999973,-1.0624132344,-9.9972128228,-0.873380249,-0.8400000000000001,-2.24,-1.4000000000000001,-1.0768537818397894,-10.01369594850021,-0.8595794163398531,-0.7185699867322446,-2.2361483805210027,-1.2521639490043859
3.439294726000014,-1.064806057,-10.0546405652,-0.8207381517999999,-0.9800000000000001,-1.9600000000000002,-0.35000000000000003,-1.0720346919038737,-10.030073795180126,-0.8440429105239118,-0.8231419920393468,-2.1256890283126015,-0.8912983694026315
3.4506173720000106,-1.0983055734,-10.0474620974,-0.849452023,-0.9100000000000001,-1.54,-0.7000000000000001,-1.0825430445023243,-10.037029116068075,-0.8462065555143469,-0.8578851952236081,-1.8914134169875612,-0.814779021641579
3.4615089929999954,-1.0959127508,-10.0354979844,-0.8374879099999999,-0.77,-2.24,-1.12,-1.0878909270213946,-10.036416663400844,-0.8427190973086082,-0.8227311171341649,-2.030848050192537,-0.9368674129849475
3.4727846369999895,-1.0863414604,-10.045069274799998,-0.8566304908,-0.9100000000000001,-2.1,-0.9800000000000001,-1.0872711403728366,-10.039877707960507,-0.848283654705165,-0.857638670280499,-2.0585088301155223,-0.9541204477909686
3.483415244000014,-1.1006983959999999,-10.009176935799998,-0.8638089586000001,-0.56,-2.24,-1.12,-1.092642042623702,-10.027597399096305,-0.854493776263099,-0.7385832021682995,-2.1311052980693135,-1.0204722686745813
3.4948998989999893,-1.064806057,-10.021141048799999,-0.8949156524,-0.77,-2.1700000000000004,-1.05,-1.0815076483742212,-10.025014858977784,-0.8706625267178592,-0.7511499213009797,-2.1466631788415884,-1.0322833612047488
3.5055815089999953,-1.0767701699999999,-9.9972128228,-0.8350950873999999,-0.6300000000000001,-1.4700000000000002,-0.28,-1.0796126570245326,-10.013894044506669,-0.8564355509907154,-0.7026899527805878,-1.8759979073049529,-0.7313700167228493
3.51685315200001,-1.0863414604,-10.004391290600001,-0.8638089586000001,-1.2600000000000002,-2.5200000000000005,-1.12,-1.0823041783747196,-10.010092942944,-0.8593849140344293,-0.9256139716683527,-2.133598744382972,-0.8868220100337095
3.52764376799999,-1.0935199281999999,-10.021141048799999,-0.8542376682,-0.28,-2.45,-1.12,-1.0867904783048319,-10.014512185286401,-0.8573260157006575,-0.6673683830010115,-2.260159246629783,-0.9800932060202258
3.5390634190000014,-1.0624132344,-10.013962581,-0.8685946038,-1.05,-2.24,-1.2600000000000002,-1.077039580742899,-10.014292343571839,-0.8618334509403944,-0.8204210298006069,-2.25209554797787,-1.0920559236121357
3.549810033,-1.0528419439999999,-10.030712339199999,-0.8446663778,-1.2600000000000002,-1.8900000000000001,-0.6300000000000001,-1.0673605260457395,-10.020860341823106,-0.8549666216842368,-0.9962526178803642,-2.107257328786722,-0.9072335541672812
3.560382636000014,-1.0839486377999998,-10.004391290600001,-0.8446663778,-0.7000000000000001,-2.0300000000000002,-1.05,-1.0739957707474435,-10.014272721333864,-0.8508465241305421,-0.8777515707282185,-2.0763543972720333,-0.9643401325003688
3.571884291999993,-1.1102696864,-10.0354979844,-0.8925228297999999,-0.77,-1.9600000000000002,-0.77,-1.088505337008466,-10.022762826560315,-0.8675170463983253,-0.834650942436931,-2.0298126383632202,-0.8866040795002212
3.5833809480000127,-1.0983055734,-9.9972128228,-0.861416136,-0.9100000000000001,-2.1700000000000004,-1.33,-1.0924254315650797,-10.01254282505619,-0.8650766822389949,-0.8647905654621586,-2.085887583017932,-1.0639624477001328
3.5942695699999945,-1.1030912186,-9.999605645399999,-0.8398807326,-0.77,-2.24,-1.2600000000000002,-1.0966917463790478,-10.007367953193713,-0.854998302383397,-0.8268743392772951,-2.1475325498107596,-1.1423774686200796
3.605694222000011,-1.0576275892,-10.004391290600001,-0.8327022647999999,-0.6300000000000001,-2.1,-0.7000000000000001,-1.0810660835074288,-10.006177288156227,-0.8460798873500383,-0.7481246035663771,-2.1285195298864554,-0.9654264811720478
3.6163418300000103,-1.0791629926,-10.004391290600001,-0.8350950873999999,-0.56,-2.1,-0.77,-1.0803048471444572,-10.005462889133737,-0.8416859673700229,-0.6728747621398262,-2.1171117179318735,-0.8872558887032287
3.627580471000016,-1.1126625089999997,-10.021141048799999,-0.8015955709999999,-1.2600000000000002,-1.7500000000000002,-0.56,-1.0932479118866743,-10.011734153000242,-0.8256498088220137,-0.9077248572838958,-1.970267030759124,-0.7563535332219372
3.638342085000005,-1.0959127508,-10.030712339199999,-0.8279166196,-0.42000000000000004,-1.9600000000000002,-1.33,-1.0943138474520044,-10.019325427480144,-0.8265565331332082,-0.7126349143703375,-1.9661602184554747,-0.9858121199331625
3.649626729000005,-1.064806057,-10.042676452199998,-0.8542376682,-0.6300000000000001,-2.66,-1.12,-1.0825107312712028,-10.028665837368086,-0.8376289871599247,-0.6795809486222025,-2.243696131073285,-1.0394872719598975
3.6603673420000007,-1.0576275892,-9.9732845968,-0.861416136,-0.7000000000000001,-1.8900000000000001,-0.8400000000000001,-1.0725574744427215,-10.00651334114085,-0.8471438466959548,-0.6877485691733215,-2.1022176786439712,-0.9596923631759385
3.671744990999997,-1.0911271056,-10.037890806999998,-0.8303094421999999,-0.9100000000000001,-2.1700000000000004,-0.7000000000000001,-1.0799853269056328,-10.019064327484509,-0.840410084897573,-0.7766491415039929,-2.129330607186383,-0.855815417905563
3.6824786040000106,-1.0959127508,-10.009176935799998,-0.8374879099999999,-0.9100000000000001,-1.8200000000000003,-0.56,-1.0863562964633797,-10.015109370810706,-0.8392412149385438,-0.8299894849023958,-2.00559836431183,-0.7374892507433379
3.6939542590000087,-1.1150553316,-10.013962581,-0.861416136,-0.7000000000000001,-1.9600000000000002,-0.9800000000000001,-1.0978359105180278,-10.014650654886422,-0.8481111833631262,-0.7779936909414374,-1.987359018587098,-0.8344935504460028
3.7045318620000103,-1.0743773474,-10.006784113199998,-0.8374879099999999,-0.7000000000000001,-2.31,-1.54,-1.0884524852708168,-10.011504038211854,-0.8438618740178757,-0.7467962145648626,-2.116415411152259,-1.1166961302676017
3.715990516000005,-1.0719845248,-10.013962581,-0.8470592004,-0.6300000000000001,-2.24,-0.9800000000000001,-1.08186530108249,-10.012487455327113,-0.8451408045707254,-0.7000777287389175,-2.1658492466913555,-1.062017678160561
3.7273221629999966,-1.064806057,-10.001998467999998,-0.849452023,-0.7000000000000001,-1.7500000000000002,-0.7000000000000001,-1.0750416034494938,-10.008291860396268,-0.8468652919424351,-0.7000466372433504,-1.9995095480148133,-0.9172106068963366
3.7383787770000083,-1.064806057,-9.980463064599999,-0.873380249,-0.7000000000000001,-2.0300000000000002,-0.77,-1.0709473848696962,-9.99716034207776,-0.8574712747654611,-0.7000279823460103,-2.011705728808888,-0.8583263641378021
3.7491403740000067,-1.1006983959999999,-10.0354979844,-0.8566304908,-1.12,-2.1700000000000004,-1.1900000000000002,-1.0828477893218178,-10.012495399006658,-0.8571349611792767,-0.8680167894076062,-2.0750234372853327,-0.9909958184826813
3.7603759980000007,-1.1006983959999999,-9.999605645399999,-0.8279166196,-1.05,-2.3800000000000003,-1.61,-1.0899880319930904,-10.007339497563994,-0.845447624547566,-0.9408100736445637,-2.1970140623712,-1.2385974910896087
3.770735572999996,-1.0863414604,-9.992427177599998,-0.861416136,-0.9800000000000001,-2.5900000000000003,-1.33,-1.0885294033558544,-10.001374569578394,-0.8518350291285397,-0.9564860441867384,-2.35420843742272,-1.2751584946537653
3.7821792089999917,-1.0528419439999999,-9.994820000199999,-0.8853443619999999,-1.05,-2.24,-1.12,-1.0742544196135124,-9.998752741827037,-0.8652387622771238,-0.9938916265120431,-2.3085250624536324,-1.2130950967922591
3.7928187990000026,-1.0600204117999998,-10.0354979844,-0.8398807326,-1.12,-1.8900000000000001,-0.42000000000000004,-1.0685608164881073,-10.013450838856222,-0.8550955504062742,-1.0443349759072258,-2.1411150374721797,-0.8958570580753555
3.8041184269999917,-1.1030912186,-10.021141048799999,-0.8398807326,-0.9100000000000001,-1.61,-0.6300000000000001,-1.0823729773328645,-10.016526922833734,-0.8490096232837643,-0.9906009855443355,-1.9286690224833076,-0.7895142348452133
3.8148770239999976,-1.0911271056,-10.0354979844,-0.8350950873999999,-0.9100000000000001,-2.0300000000000002,-1.1900000000000002,-1.0858746286397187,-10.024115347460238,-0.8434438089302587,-0.9583605913266013,-1.9692014134899847,-0.949708540907128
3.8264546670000072,-1.0983055734,-9.980463064599999,-0.8303094421999999,-1.1900000000000002,-2.5900000000000003,-1.7500000000000002,-1.0908470065438312,-10.006654434316143,-0.8381900622381553,-1.0510163547959608,-2.217520848093991,-1.2698251245442769
3.837005253000001,-1.0695917021999999,-10.021141048799999,-0.8781658942,-0.9800000000000001,-2.5900000000000003,-1.4700000000000002,-1.0823448848062986,-10.012449080109686,-0.8541803950228931,-1.0226098128775765,-2.3665125088563945,-1.3498950747265661
3.8490649219999966,-1.0719845248,-9.992427177599998,-0.8350950873999999,-0.77,-1.8200000000000003,-0.35000000000000003,-1.0782007408037793,-10.004440319105813,-0.8465462719737359,-0.9215658877265459,-2.147907505313837,-0.9499370448359397
3.8600615329999926,-1.0935199281999999,-10.009176935799998,-0.8566304908,-0.35000000000000003,-1.4000000000000001,-0.21000000000000002,-1.0843284157622675,-10.006334965783484,-0.8505799595042415,-0.6929395326359276,-1.848744503188302,-0.6539622269015638
3.871399162000017,-1.1174481541999999,-10.0546405652,-0.8207381517999999,-0.77,-1.6800000000000002,-1.1900000000000002,-1.0975763111373604,-10.025657205550093,-0.8386432364225448,-0.7237637195815566,-1.7812467019129814,-0.8683773361409384
3.8820607540000083,-1.0911271056,-10.040283629599998,-0.8231309743999999,-0.35000000000000003,-2.45,-1.7500000000000002,-1.0949966289224162,-10.031507775170054,-0.8324383316135268,-0.5742582317489339,-2.048748021147789,-1.2210264016845631
3.8938234070000135,-1.0863414604,-10.001998467999998,-0.8279166196,-0.49000000000000005,-2.66,-1.7500000000000002,-1.0915345615134497,-10.019704052302032,-0.830629646808116,-0.5405549390493604,-2.2932488126886734,-1.432615841010738
3.904331990000003,-1.064806057,-10.0115697584,-0.861416136,-0.6300000000000001,-2.0300000000000002,-0.77,-1.0808431597080697,-10.016450334741219,-0.8429442424848697,-0.5763329634296163,-2.187949287613204,-1.167569504606443
3.915779626000017,-1.0743773474,-9.9828558872,-0.8662017812,-0.77,-1.4700000000000002,0.07,-1.0782568347848418,-10.00301255572473,-0.8522472579709218,-0.6537997780577698,-1.9007695725679226,-0.6725417027638656
3.926698232000007,-1.1126625089999997,-10.0115697584,-0.8446663778,-0.56,-1.4700000000000002,-0.28,-1.0920191044709049,-10.006435436794838,-0.8492149059025531,-0.6162798668346618,-1.7284617435407537,-0.5155250216583194
3.93780984899999,-1.1030912186,-10.0235338714,-0.7920242806,-0.42000000000000004,-1.9600000000000002,-1.4000000000000001,-1.0964479501225428,-10.0132748106369,-0.8263386557815318,-0.5377679201007971,-1.8210770461244525,-0.8693150129949917
3.9485904480000045,-1.1030912186,-10.0115697584,-0.8159525066,-0.35000000000000003,-2.45,-2.1700000000000004,-1.0991052575135256,-10.012592789742142,-0.822184196108919,-0.4626607520604783,-2.0726462276746718,-1.3895890077969952
3.9596700630000043,-1.0743773474,-10.04985492,-0.849452023,-0.42000000000000004,-2.7300000000000004,-1.4700000000000002,-1.0892140934681154,-10.027497641845285,-0.8330913268653515,-0.445596451236287,-2.3355877366048037,-1.4217534046781972
3.9695926139999926,-1.0552347666,-9.9756774194,-0.8398807326,-1.1900000000000002,-2.1,-0.56,-1.0756223627208692,-10.00676955286717,-0.8358070891592108,-0.7433578707417724,-2.241352641962882,-1.0770520428069184
3.9816702840000175,-1.0863414604,-10.0474620974,-0.8446663778,-0.9800000000000001,-1.6800000000000002,-0.07,-1.0799100017925214,-10.023046570680302,-0.8393508046155266,-0.8380147224450635,-2.0168115851777295,-0.6742312256841511
3.992458883000012,-1.1054840412,-9.9684989516,-0.7968099257999999,-0.49000000000000005,-1.8200000000000003,-0.28,-1.0901396175555127,-10.00122752304818,-0.822334453089316,-0.698808833467038,-1.9380869511066376,-0.5165387354104907
4.003859516000006,-1.0719845248,-10.1288180658,-0.8542376682,-0.49000000000000005,-1.8200000000000003,-0.9800000000000001,-1.0828775804533075,-10.052263740148907,-0.8350957391335894,-0.6152853000802229,-1.890852170663983,-0.7019232412462946
4.014677116999991,-1.1030912186,-9.978070242,-0.7848458127999999,-0.56,-2.5900000000000003,-1.9600000000000002,-1.0909630357119846,-10.022586340889344,-0.8149957686001537,-0.5931711800481336,-2.1705113023983897,-1.2051539447477768
4.026297762000013,-1.0241280728,-10.1024970172,-0.8207381517999999,-0.8400000000000001,-2.24,-1.61,-1.0642290505471907,-10.054550611413609,-0.817292721880092,-0.6919027080288802,-2.198306781439034,-1.367092366848666
4.036358320000005,-1.0695917021999999,-9.9828558872,-0.8111668613999999,-0.49000000000000005,-1.9600000000000002,-0.6300000000000001,-1.0663741112083145,-10.025872721728167,-0.8148423776880553,-0.6111416248173281,-2.1029840688634205,-1.0722554201091996
4.047825957000015,-1.0576275892,-10.052247742599999,-0.8303094421999999,-0.77,-1.7500000000000002,-0.35000000000000003,-1.0628755024049887,-10.036422730076898,-0.8210292034928333,-0.674684974890397,-1.9617904413180522,-0.7833532520655198
4.058728561999999,-1.1222337993999998,-9.966106128999998,-0.8470592004,-0.77,-1.9600000000000002,-0.77,-1.0866188212029932,-10.008296089646139,-0.8314412022556998,-0.7128109849342382,-1.9610742647908312,-0.778011951239312
4.069552162999997,-1.1078768637999998,-10.0546405652,-0.873380249,-0.8400000000000001,-1.9600000000000002,-1.1900000000000002,-1.095122038241796,-10.026833879867683,-0.8482168209534199,-0.763686590960543,-1.9606445588744987,-0.9428071707435873
4.078225645000003,-1.0911271056,-10.021141048799999,-0.8566304908,-0.8400000000000001,-2.0300000000000002,-1.2600000000000002,-1.0935240651850777,-10.02455674744061,-0.8515822888920518,-0.794211954576326,-1.9883867353246993,-1.0696843024461524
4.0868461240000045,-1.0911271056,-10.042676452199998,-0.873380249,-0.21000000000000002,-2.0300000000000002,-1.54,-1.0925652813510467,-10.031804629344364,-0.8603014729352311,-0.5605271727457956,-2.00503204119482,-1.2578105814676916
4.095525605000006,-1.088734283,-10.042676452199998,-0.8087740387999999,-0.56,-2.1700000000000004,-1.2600000000000002,-1.0910328820106279,-10.036153358486619,-0.8396904992811386,-0.5603163036474773,-2.071019224716892,-1.258686348880615
4.104976130000011,-1.0695917021999999,-10.0354979844,-0.8327022647999999,-0.7000000000000001,-2.24,-1.1900000000000002,-1.0824564100863767,-10.035891208851972,-0.836895205488683,-0.6161897821884864,-2.1386115348301353,-1.231211809328369
4.1138096210000015,-1.0719845248,-10.0187482262,-0.8422735552,-1.05,-2.1700000000000004,-1.12,-1.078267655971826,-10.029034015791183,-0.8390465453732099,-0.7897138693130918,-2.1511669208980813,-1.1867270855970213
4.122477102000005,-1.0719845248,-10.001998467999998,-0.8422735552,-0.77,-2.0300000000000002,-0.77,-1.0757544035030957,-10.018219796674709,-0.840337349303926,-0.7818283215878552,-2.1027001525388487,-1.0200362513582129
4.131174584999997,-1.0671988796,-10.045069274799998,-0.8183453291999999,-1.33,-1.9600000000000002,-0.07,-1.0723321939418573,-10.028959587924824,-0.8315405412623555,-1.0010969929527131,-2.0456200915233094,-0.6400217508149277
4.139897069,-1.1198409767999997,-10.004391290600001,-0.8470592004,-1.2600000000000002,-1.8900000000000001,-0.8400000000000001,-1.0913357070851144,-10.019132268994895,-0.8377480049174133,-1.104658195771628,-1.9833720549139857,-0.7200130504889568
4.148615553000013,-1.1150553316,-10.0594262104,-0.8279166196,-0.8400000000000001,-1.8200000000000003,-1.1900000000000002,-1.1008235568910687,-10.035249845556937,-0.833815450790448,-0.9987949174629768,-1.9180232329483913,-0.9080078302933742
4.157293035000009,-1.0863414604,-10.025926693999999,-0.8350950873999999,-0.8400000000000001,-1.9600000000000002,-1.4700000000000002,-1.0950307182946413,-10.031520584934162,-0.8343273054342687,-0.9352769504777863,-1.9348139397690347,-1.1328046981760245
4.166158526999993,-1.088734283,-10.013962581,-0.8470592004,-0.42000000000000004,-2.45,-1.8900000000000001,-1.0925121441767847,-10.024497383360496,-0.8394200634205612,-0.7291661702866716,-2.140888363861421,-1.4356828189056148
4.174970016000003,-1.0624132344,-10.001998467999998,-0.873380249,-0.77,-2.5900000000000003,-1.9600000000000002,-1.0804725802660708,-10.0154978172163,-0.8530041376523366,-0.745499702172003,-2.3205330183168527,-1.645409691343369
4.183742502999991,-1.0480562988,-10.009176935799998,-0.849452023,-0.8400000000000001,-2.1700000000000004,-0.77,-1.0675060676796424,-10.012969464649778,-0.851583291791402,-0.7832998213032019,-2.2603198109901115,-1.2952458148060213
4.192585994000012,-1.0504491214,-10.004391290600001,-0.8327022647999999,-1.05,-1.8200000000000003,-0.07,-1.0606832891677855,-10.009538195029867,-0.844030880994841,-0.8899798927819211,-2.084191886594067,-0.8051474888836129
4.201267475999998,-1.1030912186,-10.0187482262,-0.8757730716000001,-0.8400000000000001,-1.4700000000000002,0.07,-1.0776464609406715,-10.013222207497922,-0.8567277572369046,-0.8699879356691527,-1.8385151319564403,-0.45508849333016765
4.210050964000004,-1.1150553316,-10.033105161799998,-0.8135596839999999,-0.9100000000000001,-1.7500000000000002,-0.6300000000000001,-1.0926100092044029,-10.021175389218751,-0.8394605279421428,-0.8859927614014917,-1.8031090791738642,-0.5250530959981007
4.218792449000006,-1.1054840412,-10.025926693999999,-0.8255237969999999,-0.77,-2.1700000000000004,-1.7500000000000002,-1.0977596220026418,-10.02307591113125,-0.8338858355652855,-0.8395956568408951,-1.9498654475043187,-1.0150318575988604
4.227544934999997,-1.1078768637999998,-10.052247742599999,-0.8590233134,-0.6300000000000001,-2.45,-2.1,-1.101806518721585,-10.034744643718753,-0.8439408266991711,-0.755757394104537,-2.149919268502591,-1.4490191145593163
4.236178413999994,-1.1006983959999999,-10.006784113199998,-0.849452023,-0.8400000000000001,-2.3800000000000003,-1.6800000000000002,-1.101363269632951,-10.02356043151125,-0.8461453052195027,-0.7894544364627223,-2.2419515611015552,-1.5414114687355902
4.2450269059999926,-1.040877831,-10.028319516599998,-0.8805587167999999,-0.9800000000000001,-1.9600000000000002,-1.12,-1.0771690941797705,-10.02546406554675,-0.8599106698517016,-0.8656726618776335,-2.129170936660933,-1.3728468812413541
4.25373338899999,-1.0624132344,-9.999605645399999,-0.8255237969999999,-0.9100000000000001,-1.7500000000000002,-0.07,-1.0712667502678623,-10.015120697488051,-0.8461559207110209,-0.8834035971265801,-1.9775025619965598,-0.8517081287448125
4.262441872000011,-1.1174481541999999,-10.0354979844,-0.8063812161999999,-0.7000000000000001,-1.4700000000000002,-0.28,-1.0897393118407173,-10.023271612252827,-0.8302460389066125,-0.8100421582759482,-1.774501537197936,-0.6230248772468875
4.271060351000017,-1.1054840412,-10.045069274799998,-0.8422735552,-0.49000000000000005,-1.61,-0.56,-1.0960372035844304,-10.031990677271695,-0.8350570454239674,-0.6820252949655689,-1.7087009223187617,-0.5978149263481325
4.281039905,-1.1030912186,-10.033105161799998,-0.8662017812,-0.7000000000000001,-1.9600000000000002,-1.33,-1.0988588095906582,-10.032436471083017,-0.8475149397343803,-0.6892151769793413,-1.809220553391257,-0.8906889558088796
4.291366478000015,-1.1054840412,-10.028319516599998,-0.8255237969999999,-0.6300000000000001,-2.45,-1.61,-1.101508902234395,-10.030789689289811,-0.8387184826406282,-0.6655291061876047,-2.0655323320347545,-1.178413373485328
4.303662161000005,-1.064806057,-10.0546405652,-0.8422735552,-0.14,-2.1700000000000004,-0.9800000000000001,-1.0868277641406368,-10.040330039653886,-0.8401405116643769,-0.4553174637125628,-2.1073193992208528,-1.0990480240911966
4.314586767000009,-1.0600204117999998,-10.0163554036,-0.8159525066,-0.49000000000000005,-1.7500000000000002,-0.8400000000000001,-1.0761048232043822,-10.030740185232332,-0.8304653096386261,-0.4691904782275378,-1.9643916395325118,-0.9954288144547181
4.325432370000016,-1.088734283,-10.028319516599998,-0.8542376682,-0.77,-1.8200000000000003,-0.6300000000000001,-1.0811566071226293,-10.029771917779398,-0.8399742530631756,-0.5895142869365227,-1.9066349837195073,-0.8492572886728308
4.336959010000015,-1.0815558152,-10.030712339199999,-0.8231309743999999,-0.7000000000000001,-2.1,-0.8400000000000001,-1.0813162903535773,-10.030148086347639,-0.8332369415979055,-0.6337085721619137,-1.9839809902317045,-0.8455543732036984
4.347797611000004,-1.1006983959999999,-9.992427177599998,-0.8973084749999999,-0.56,-2.24,-1.33,-1.0890691326121464,-10.015059722848582,-0.8588655549587432,-0.6042251432971482,-2.086388594139023,-1.0393326239222191
4.359166242000015,-1.0743773474,-10.037890806999998,-0.873380249,-0.7000000000000001,-2.24,-1.1900000000000002,-1.0831924185272876,-10.02419215650915,-0.8646714325752459,-0.6425350859782889,-2.1478331564834137,-1.0995995743533316
4.369799833000002,-1.0624132344,-10.004391290600001,-0.8398807326,-0.7000000000000001,-1.9600000000000002,-0.8400000000000001,-1.0748807448763726,-10.01627181014549,-0.8547551525851476,-0.6655210515869734,-2.0726998938900483,-0.9957597446119989
4.3810464569999965,-1.088734283,-9.9876415324,-0.7896314579999999,-0.9800000000000001,-2.1,-0.7000000000000001,-1.0804221601258235,-10.004819699047294,-0.8287056747510884,-0.7913126309521841,-2.083619936334029,-0.8774558467671993
4.3910410120000165,-1.1054840412,-10.0474620974,-0.8135596839999999,-0.6300000000000001,-1.8900000000000001,-0.56,-1.090446912555494,-10.021876658388376,-0.8226472784506531,-0.7267875785713105,-2.0061719618004177,-0.7504735080603195
4.403276691000002,-1.0935199281999999,-10.009176935799998,-0.8327022647999999,-0.56,-1.8900000000000001,-0.9100000000000001,-1.0916761188132964,-10.016796769353025,-0.8266692729903918,-0.6600725471427863,-1.9597031770802504,-0.8142841048361917
4.413677269000004,-1.088734283,-10.0187482262,-0.7992027483999999,-0.42000000000000004,-2.1700000000000004,-1.54,-1.0904993844879778,-10.017577352091815,-0.8156826631542352,-0.5640435282856718,-2.0438219062481506,-1.104570462901715
4.425207908999994,-1.0983055734,-10.0115697584,-0.8374879099999999,-0.6300000000000001,-2.1,-0.9100000000000001,-1.0936218600527867,-10.015174314615088,-0.8244047618925412,-0.5904261169714031,-2.0662931437488905,-1.0267422777410289
4.4359455050000065,-1.0695917021999999,-9.9828558872,-0.8662017812,-1.2600000000000002,-1.8900000000000001,-1.1900000000000002,-1.084009796911672,-10.002246943649054,-0.8411235696155246,-0.8582556701828419,-1.9957758862493344,-1.0920453666446175
4.447677157000015,-1.088734283,-10.030712339199999,-0.8350950873999999,-1.12,-1.8900000000000001,-0.6300000000000001,-1.085899591347003,-10.01363310186943,-0.8387121767293146,-0.9629534021097051,-1.9534655317496006,-0.9072272199867705
4.458754771999992,-1.0767701699999999,-10.042676452199998,-0.8039883936,-1.1900000000000002,-1.7500000000000002,-0.77,-1.0822478228082018,-10.025250442001658,-0.8248226634775887,-1.0537720412658231,-1.8720793190497604,-0.8523363319920624
4.469886389999999,-1.0839486377999998,-10.04985492,-0.861416136,-1.1900000000000002,-2.1,-1.1900000000000002,-1.0829281488049212,-10.035092233200995,-0.8394600524865533,-1.108263224759494,-1.9632475914298562,-0.9874017991952374
4.480721990999996,-1.0671988796,-9.992427177599998,-0.8662017812,-0.56,-2.1700000000000004,-0.9100000000000001,-1.0766364411229525,-10.018026210960596,-0.8501567439719319,-0.8889579348556963,-2.045948554857914,-0.9564410795171425
4.492205629000011,-1.0815558152,-10.001998467999998,-0.8303094421999999,-1.05,-2.1,-0.8400000000000001,-1.0786041907537716,-10.01161511377636,-0.8422178232631591,-0.9533747609134179,-2.0675691329147483,-0.9098646477102855
4.502797216999994,-1.1006983959999999,-10.021141048799999,-0.8039883936,-0.8400000000000001,-1.9600000000000002,-0.6300000000000001,-1.0874418728522628,-10.015425487785814,-0.8269260513978955,-0.9080248565480508,-2.0245414797488492,-0.7979187886261713
4.514322856999996,-1.0911271056,-10.0235338714,-0.8446663778,-0.8400000000000001,-1.9600000000000002,-0.8400000000000001,-1.0889159659513576,-10.01866884123149,-0.8340221819587372,-0.8808149139288305,-1.9987248878493096,-0.8147512731757028
4.525022451000012,-1.088734283,-10.006784113199998,-0.8542376682,-1.05,-2.1,-1.4700000000000002,-1.0888432927708147,-10.013914950018894,-0.8421083764552424,-0.9484889483572984,-2.039234932709586,-1.076850763905422
4.5364280839999935,-1.0863414604,-10.013962581,-0.8279166196,-0.8400000000000001,-2.24,-0.9800000000000001,-1.0878425598224888,-10.013934002411338,-0.8364316737131454,-0.9050933690143791,-2.1195409596257515,-1.0381104583432532
4.54725568500001,-1.0695917021999999,-10.0235338714,-0.8709874264,-1.05,-2.24,-1.05,-1.0805422167734933,-10.0177739500068,-0.8502539747878871,-0.9630560214086274,-2.167724575775451,-1.0428662750059519
4.558548311999999,-1.0839486377999998,-10.033105161799998,-0.8709874264,-0.77,-1.9600000000000002,-0.77,-1.081904785184096,-10.023906434724081,-0.8585473554327323,-0.8858336128451765,-2.0846347454652707,-0.9337197650035712
4.56926490699999,-1.088734283,-10.025926693999999,-0.8446663778,-0.35000000000000003,-1.7500000000000002,-0.56,-1.0846365843104575,-10.024714538434448,-0.8529949643796394,-0.6715001677071059,-1.9507808472791626,-0.7842318590021429
4.580724543000002,-1.0935199281999999,-9.994820000199999,-0.8255237969999999,-0.8400000000000001,-1.9600000000000002,-1.12,-1.0881899218662745,-10.012756723140667,-0.8420064974277834,-0.7389001006242636,-1.9544685083674975,-0.9185391154012857
4.591359134000015,-1.088734283,-10.028319516599998,-0.8231309743999999,-0.6300000000000001,-2.1,-1.2600000000000002,-1.0884076663197646,-10.018981840524399,-0.8344562882166701,-0.6953400603745582,-2.0126811050204987,-1.0551234692407714
4.602073729000011,-1.088734283,-9.999605645399999,-0.8279166196,-0.9800000000000001,-2.1700000000000004,-1.4000000000000001,-1.0885383129918587,-10.011231362474641,-0.8318404207700021,-0.8092040362247349,-2.075608663012299,-1.193074081544463
4.614783434000003,-1.0480562988,-9.992427177599998,-0.8063812161999999,-0.8400000000000001,-1.8900000000000001,-0.8400000000000001,-1.0723455073151151,-10.003709688524783,-0.8216567389420012,-0.821522421734841,-2.0013651978073796,-1.0518444489266778
4.624974000000009,-1.088734283,-9.9828558872,-0.8542376682,-0.9800000000000001,-1.8900000000000001,-0.9800000000000001,-1.078901017589069,-9.99536816799487,-0.8346891106452006,-0.8849134530409047,-1.9568191186844277,-1.0231066693560067
4.637147676000012,-1.0911271056,-10.030712339199999,-0.849452023,-0.77,-2.1700000000000004,-1.12,-1.0837914527934414,-10.009505836476922,-0.8405942755871204,-0.8389480718245428,-2.042091471210657,-1.061864001613604
4.648043281000014,-1.1054840412,-10.021141048799999,-0.8303094421999999,-0.9100000000000001,-2.1700000000000004,-0.9100000000000001,-1.092468488156065,-10.014159921406154,-0.8364803422322723,-0.8673688430947257,-2.0932548827263946,-1.0011184009681624
4.659588922000012,-1.0935199281999999,-10.0235338714,-0.8662017812,-0.9100000000000001,-2.0300000000000002,-0.9800000000000001,-1.0928890641736388,-10.017909501403693,-0.8483689178193634,-0.8844213058568354,-2.0679529296358368,-0.9926710405808975
4.670123507,-1.0743773474,-10.030712339199999,-0.8159525066,-0.77,-1.9600000000000002,-0.6300000000000001,-1.0854843774641834,-10.023030636522215,-0.835402353331618,-0.8386527835141013,-2.024771757781502,-0.8476026243485384
4.681018111000014,-1.0791629926,-10.0354979844,-0.8518448456000001,-0.9100000000000001,-1.9600000000000002,-0.9800000000000001,-1.08295582351851,-10.02801757567333,-0.8419793502389707,-0.8671916701084609,-1.9988630546689012,-0.9005615746091231
4.691960719000008,-1.0791629926,-9.990034354999999,-0.8231309743999999,-0.42000000000000004,-1.8200000000000003,-0.9800000000000001,-1.0814386911511058,-10.012824287403998,-0.8344399999033824,-0.6883150020650766,-1.9273178328013407,-0.932336944765474
4.703360352000004,-1.0791629926,-10.006784113199998,-0.8111668613999999,-0.77,-2.0300000000000002,-0.9800000000000001,-1.0805284117306635,-10.0104082177224,-0.8251307445020294,-0.720989001239046,-1.9683906996808045,-0.9514021668592845
4.713339906000016,-1.0911271056,-10.0354979844,-0.8207381517999999,-0.42000000000000004,-2.24,-1.12,-1.0847678892783983,-10.020444124393439,-0.8233737074212175,-0.6005934007434277,-2.077034419808483,-1.0188413001155707
4.7263316270000075,-1.0600204117999998,-10.028319516599998,-0.8422735552,-0.49000000000000005,-2.1,-0.8400000000000001,-1.0748688982870387,-10.023594281276063,-0.8309336465327305,-0.5563560404460567,-2.08622065188509,-0.9473047800693425
4.737210215999994,-1.1222337993999998,-9.999605645399999,-0.8255237969999999,-0.8400000000000001,-1.7500000000000002,-0.6300000000000001,-1.0938148587322234,-10.013998826925638,-0.8287697067196383,-0.6698136242676341,-1.9517323911310538,-0.8203828680416054
4.748302816000006,-1.1030912186,-9.9876415324,-0.8470592004,-0.7000000000000001,-2.0300000000000002,-0.8400000000000001,-1.0975254026793337,-10.003455909115383,-0.8360855041917831,-0.6818881745605805,-1.9830394346786324,-0.8282297208249633
4.759123399999993,-1.0935199281999999,-10.033105161799998,-0.873380249,-0.35000000000000003,-2.1,-1.33,-1.0959232128876002,-10.015315610189228,-0.8510034021150696,-0.5491329047363482,-2.0298236608071796,-1.028937832494978
4.7705760190000035,-1.0935199281999999,-10.025926693999999,-0.8279166196,-0.8400000000000001,-2.31,-1.1900000000000002,-1.0949618990125602,-10.01956004371354,-0.8417686891090417,-0.6654797428418091,-2.1418941964843077,-1.093362699496987
4.7813115989999915,-1.0791629926,-10.021141048799999,-0.8207381517999999,-0.6300000000000001,-1.9600000000000002,-0.9100000000000001,-1.088642336447536,-10.020192445748123,-0.8333564741854251,-0.6512878457050855,-2.0691365178905845,-1.0200176196981923
4.7929422269999975,-1.0719845248,-10.037890806999998,-0.7872386353999999,-0.77,-1.8200000000000003,-0.6300000000000001,-1.0819792117885216,-10.027271790248871,-0.814909338671255,-0.6987727074230513,-1.9694819107343509,-0.8640105718189153
4.803746810999996,-1.0504491214,-10.0115697584,-0.8422735552,-0.6300000000000001,-1.8200000000000003,-0.9800000000000001,-1.069367175633113,-10.020990977509323,-0.825855025282753,-0.6712636244538308,-1.9096891464406107,-0.9104063430913492
4.815464444000014,-1.1102696864,-10.0187482262,-0.7920242806,-0.9800000000000001,-2.0300000000000002,-0.9100000000000001,-1.0857281799398677,-10.020093876985595,-0.8123227274096517,-0.7947581746722986,-1.9578134878643665,-0.9102438058548095
4.826416034999994,-1.1102696864,-9.9972128228,-0.8231309743999999,-0.6300000000000001,-2.24,-1.4700000000000002,-1.0955447825239206,-10.010941455311356,-0.8166460262057909,-0.7288549048033791,-2.07068809271862,-1.134146283512886
4.837314624000015,-1.0624132344,-10.0163554036,-0.8470592004,-0.42000000000000004,-2.1700000000000004,-1.33,-1.0822921632743523,-10.013107034626813,-0.8288112958834746,-0.6053129428820275,-2.110412855631172,-1.2124877701077317
4.851731403000002,-1.0743773474,-10.037890806999998,-0.8207381517999999,-0.6300000000000001,-1.9600000000000002,-0.8400000000000001,-1.0791262369246113,-10.023020543576088,-0.8255820382500848,-0.6151877657292165,-2.050247713378703,-1.063492662064639
4.862592989000007,-1.0815558152,-10.006784113199998,-0.8446663778,-0.77,-1.8900000000000001,-0.56,-1.0800980682347667,-10.016525971425652,-0.833215774070051,-0.67711265943753,-1.9861486280272218,-0.8620955972387835
4.873763593000007,-1.1270194446,-10.0235338714,-0.8111668613999999,-0.77,-2.0300000000000002,-1.05,-1.0988666187808602,-10.019329131415391,-0.8243962090020305,-0.714267595662518,-2.003689176816333,-0.9372573583432701
4.8845721769999955,-1.1102696864,-10.042676452199998,-0.8255237969999999,-0.77,-1.9600000000000002,-0.9100000000000001,-1.1034278458285163,-10.028668059729233,-0.8248472442012182,-0.7365605573975108,-1.9862135060897999,-0.9263544150059619
4.895896788000016,-1.088734283,-10.006784113199998,-0.8135596839999999,-1.1900000000000002,-1.8900000000000001,-1.33,-1.0975504206971098,-10.01991448111754,-0.8203322201207307,-0.9179363344385064,-1.94772810365388,-1.0878126490035773
4.90655336399999,-1.1030912186,-9.994820000199999,-0.8183453291999999,-0.77,-2.1,-1.12,-1.0997667398582656,-10.009876688750523,-0.8195374637524385,-0.8587618006631039,-2.008636862192328,-1.1006875894021464
4.917931979000002,-1.0911271056,-9.9828558872,-0.8685946038,-0.6300000000000001,-2.0300000000000002,-0.9800000000000001,-1.0963108861549593,-9.999068368130315,-0.8391603197714632,-0.7672570803978624,-2.017182117315397,-1.0524125536412878
4.928555552999995,-1.088734283,-10.0474620974,-0.8063812161999999,-0.77,-1.8200000000000003,-0.9800000000000001,-1.0932802448929757,-10.018425859838187,-0.826048678342878,-0.7683542482387175,-1.9383092703892384,-1.023447532184773
4.93931013400001,-1.0959127508,-10.021141048799999,-0.8709874264,-0.6300000000000001,-1.9600000000000002,-0.8400000000000001,-1.0943332472557854,-10.019511935422912,-0.8440241775657267,-0.7130125489432304,-1.9469855622335432,-0.9500685193108639
4.950017712000005,-1.0863414604,-10.001998467999998,-0.8087740387999999,-0.8400000000000001,-1.9600000000000002,-1.05,-1.0911365325134712,-10.012506548453748,-0.829924122059436,-0.7638075293659383,-1.952191337340126,-0.9900411115865184
4.96153533399999,-1.0911271056,-10.052247742599999,-0.8374879099999999,-0.7000000000000001,-2.31,-1.4000000000000001,-1.0911327617480826,-10.02840302611225,-0.8329496372356615,-0.738284517619563,-2.0953148024040753,-1.1540246669519112
4.972001900000009,-1.0863414604,-10.006784113199998,-0.8518448456000001,-0.6300000000000001,-2.3800000000000003,-1.12,-1.0892162412088495,-10.01975546094735,-0.8405077205813968,-0.6949707105717379,-2.2091888814424454,-1.1404148001711467
4.983208504999993,-1.064806057,-10.013962581,-0.8590233134,-0.7000000000000001,-1.9600000000000002,-0.7000000000000001,-1.0794521675253097,-10.01743830896841,-0.8479139577088382,-0.6969824263430429,-2.109513328865467,-0.964248880102688
4.994111094000004,-1.0911271056,-10.0235338714,-0.8279166196,-0.6300000000000001,-2.0300000000000002,-0.6300000000000001,-1.0841221427551855,-10.019876533941046,-0.8399150224653028,-0.6701894558058257,-2.0777079973192802,-0.8305493280616127
5.005596714000006,-1.1222337993999998,-10.030712339199999,-0.8303094421999999,-0.77,-1.8900000000000001,-0.8400000000000001,-1.0993668054131114,-10.024210856044629,-0.8360727903591816,-0.7101136734834955,-2.0026247983915684,-0.8343295968369677
5.016186285999993,-1.1030912186,-10.025926693999999,-0.849452023,-0.9100000000000001,-2.24,-0.9800000000000001,-1.1008565706878668,-10.024897191226778,-0.8414244834155089,-0.7900682040900973,-2.097574879034941,-0.8925977581021807
5.027924920000004,-1.0815558152,-10.033105161799998,-0.8327022647999999,-0.7000000000000001,-1.9600000000000002,-1.12,-1.09313626849272,-10.028180379456067,-0.8379355959693053,-0.7540409224540584,-2.042544927420965,-0.9835586548613084
5.03832348200001,-1.0839486377999998,-9.9972128228,-0.8662017812,-0.6300000000000001,-2.0300000000000002,-0.9100000000000001,-1.089461216215632,-10.01579335679364,-0.8492420700615834,-0.704424553472435,-2.037526956452579,-0.9541351929167852
5.049523087000011,-1.0791629926,-10.0187482262,-0.8590233134,-0.8400000000000001,-2.1700000000000004,-1.12,-1.0853419267693791,-10.016975304556185,-0.85315456739695,-0.758654732083461,-2.090516173871548,-1.0204811157500713
5.060311670000004,-1.0935199281999999,-10.013962581,-0.8183453291999999,-0.6300000000000001,-1.9600000000000002,-0.9800000000000001,-1.0886131273416273,-10.01577021513371,-0.83923087211817,-0.7071928392500766,-2.0383097043229284,-1.0042886694500428
5.071785290000008,-1.0671988796,-9.9972128228,-0.7872386353999999,-0.7000000000000001,-2.1700000000000004,-1.05,-1.0800474282449766,-10.008347258200226,-0.8184339774309018,-0.7043157035500459,-2.0909858225937574,-1.0225732016700257
5.082536870000013,-1.0767701699999999,-10.033105161799998,-0.8422735552,-0.9100000000000001,-2.31,-1.1900000000000002,-1.0787365249469858,-10.018250419640134,-0.8279698085385412,-0.7865894221300276,-2.1785914935562545,-1.0895439210020155
5.093601468000003,-1.0791629926,-10.033105161799998,-0.849452023,-0.9800000000000001,-1.9600000000000002,-0.9100000000000001,-1.0789071120081914,-10.024192316504083,-0.8365626943231247,-0.8639536532780167,-2.091154896133753,-1.0177263526012092
5.104515058000004,-1.0935199281999999,-10.025926693999999,-0.8183453291999999,-0.49000000000000005,-1.8900000000000001,-0.9100000000000001,-1.0847522384849149,-10.024886067502448,-0.8292757482738748,-0.71437219196681,-2.010692937680252,-0.9746358115607255
5.116066681999996,-1.0863414604,-10.004391290600001,-0.8231309743999999,-0.7000000000000001,-2.31,-1.4000000000000001,-1.085387927250949,-10.016688156741468,-0.8268178387243248,-0.7086233151800861,-2.1304157626081515,-1.1447814869364354
5.126993271999993,-1.0911271056,-10.009176935799998,-0.8231309743999999,-1.12,-2.31,-1.4000000000000001,-1.0876835985905695,-10.013683668364882,-0.8253430929945947,-0.8731739891080518,-2.202249457564891,-1.2468688921618614
5.1387019040000155,-1.0743773474,-10.0354979844,-0.8662017812,-0.77,-2.0300000000000002,-0.77,-1.0823610981143417,-10.02240939477893,-0.8416865682767568,-0.8319043934648311,-2.133349674538935,-1.0561213352971168
5.149415483000013,-1.0815558152,-10.030712339199999,-0.8231309743999999,-1.05,-1.6800000000000002,-0.7000000000000001,-1.082038984948605,-10.02573057254736,-0.8342643307260541,-0.9191426360788987,-1.952009804723361,-0.9136728011782701
5.160895103000001,-1.0935199281999999,-10.025926693999999,-0.8279166196,-0.21000000000000002,-2.0300000000000002,-0.8400000000000001,-1.086631362249163,-10.025809021128415,-0.8317252462756324,-0.6354855816473391,-1.9832058828340167,-0.8842036807069621
5.171381670000017,-1.088734283,-10.0354979844,-0.8709874264,-0.6300000000000001,-2.1700000000000004,-1.2600000000000002,-1.0874725305494977,-10.029684606437048,-0.8474301183253794,-0.6332913489884034,-2.05792352970041,-1.0345222084241772
