time,aX,aY,aZ,gX,gY,gZ,faX,faY,faZ,fgX,fgY,fgZ
0.13352527799997915,-0.4139583098,-0.2584248408,9.846464998999998,0.14,-1.8200000000000003,-2.24,-0.3926621886599999,-0.24023938903999995,9.889655446929996,1.7430000000000003,-1.6800000000000002,-2.2785000000000006
0.14346129900002325,-0.39242290639999994,-0.23688943739999999,9.858429112,-0.56,-1.4000000000000001,-2.1,-0.39385859995999994,-0.24059831242999996,9.88810011224,1.7185,-1.673,-2.275000000000001
0.1523143169999912,-0.38045879339999994,-0.22971096959999998,9.887142983199999,0.14,-1.8200000000000003,-2.31,-0.3930211120499999,-0.23964118338999998,9.888817959019999,1.7395,-1.6905000000000001,-2.282000000000001
0.16133333599998423,-0.3900300838,-0.24406790519999996,9.8608219346,-0.42000000000000004,-1.61,-2.31,-0.39338003543999994,-0.23916261886999995,9.888698317889999,1.7325,-1.6835,-2.2855000000000008
0.17017535500002623,-0.39481572899999995,-0.24646072779999997,9.894321451,0.0,-1.7500000000000002,-2.24,-0.39349967656999996,-0.23976082451999997,9.889655446929998,1.7465,-1.7009999999999998,-2.2820000000000005
0.17957837400001608,-0.4019941968,-0.23928225999999997,9.8919286284,-0.14,-1.7500000000000002,-2.31,-0.39326039431,-0.24047867129999992,9.88857867676,1.7289999999999999,-1.7080000000000002,-2.2715000000000005
0.1886813930000244,-0.37328032559999996,-0.2560320182,9.870393224999999,-0.07,-1.8200000000000003,-2.24,-0.39266218866,-0.24131615920999994,9.88738226546,1.7395,-1.7115000000000002,-2.264500000000001
0.19775541199999225,-0.37088750299999995,-0.25124637299999997,9.9038927414,-0.07,-1.54,-2.24,-0.39122649509999996,-0.24251257051000003,9.887980471109998,1.7254999999999998,-1.6940000000000002,-2.261000000000001
0.2069304309999893,-0.4019941968,-0.21296121140000002,9.858429112,-0.42000000000000004,-1.8900000000000001,-2.1700000000000004,-0.39218362413999996,-0.24191436485999995,9.88582693077,1.7079999999999997,-1.701,-2.2610000000000006
0.21587445000000116,-0.36610185780000004,-0.2225325018,9.877571692799998,-0.14,-1.61,-2.1700000000000004,-0.38967116040999994,-0.24179472372999994,9.885468007379998,1.6834999999999998,-1.6904999999999997,-2.2610000000000006
0.22569547099999454,-0.36610185780000004,-0.24167508259999998,9.9158568544,-0.21000000000000002,-1.8900000000000001,-2.31,-0.38787654345999995,-0.24083759468999996,9.885946571899998,1.6939999999999997,-1.7045000000000001,-2.264500000000001
0.23472348900003226,-0.39720855159999996,-0.23688943739999999,9.8727860476,0.35000000000000003,-1.4700000000000002,-2.3800000000000003,-0.38859439024,-0.24059831243000002,9.883673390429998,1.7079999999999997,-1.6974999999999998,-2.2785000000000006
0.24361750799999982,-0.35174492220000003,-0.2608176634,9.8991070962,0.0,-1.7500000000000002,-2.45,-0.38727833780999993,-0.24203400599,9.884151954949997,1.7114999999999998,-1.7115000000000002,-2.2855000000000008
0.25270652699998664,-0.35413774480000004,-0.2656033086,9.8680004024,-0.35000000000000003,-1.7500000000000002,-2.31,-0.38608192650999995,-0.24215364712,9.88319482591,1.6799999999999997,-1.7150000000000003,-2.2855000000000008
0.26197654600002807,-0.3900300838,-0.24406790519999996,9.9038927414,-0.49000000000000005,-1.8900000000000001,-2.1700000000000004,-0.38524443859999996,-0.24251257051000003,9.884750160599998,1.6519999999999997,-1.7185000000000001,-2.275000000000001
0.2717125670000087,-0.36370903520000003,-0.24167508259999998,9.889535805799998,-0.35000000000000003,-1.6800000000000002,-2.3800000000000003,-0.38344982165,-0.24287149389999993,9.886305495289998,0.7454999999999999,-1.7254999999999998,-2.268000000000001
0.28094258599998057,-0.38524443859999996,-0.2560320182,9.884750160599998,-0.28,-1.7500000000000002,-2.24,-0.38404802730000004,-0.24323041728999995,9.885946571899998,-0.14700000000000002,-1.7254999999999998,-2.2785000000000006
0.2899496050000039,-0.39960137419999997,-0.24167508259999998,9.9158568544,-0.28,-1.61,-2.24,-0.3840480273000001,-0.24394826406999992,9.887262624329999,0.7314999999999999,-1.7115000000000002,-2.2855000000000008
0.2990236240000286,-0.3900300838,-0.23928225999999997,9.894321451,-0.07,-1.54,-2.31,-0.3838087450400001,-0.24346969954999995,9.887262624329999,-0.16450000000000004,-1.6975000000000002,-2.285500000000001
0.310979648,-0.39481572899999995,-0.24885355039999998,9.887142983199999,-0.28,-1.4000000000000001,-2.5200000000000005,-0.38392838617,-0.24370898180999995,9.884032313819997,-0.17500000000000004,-1.687,-2.282000000000001
0.32071066899999323,-0.3900300838,-0.22492532440000002,9.841679353799998,-0.28,-1.54,-2.31,-0.38273197487000005,-0.24203400598999997,9.88379303156,-0.19600000000000004,-1.673,-2.2855000000000008
0.3310376900000165,-0.38524443859999996,-0.2584248408,9.896714273599999,-0.49000000000000005,-1.8200000000000003,-2.24,-0.38237305148,-0.24311077616,9.88570728964,-0.19250000000000003,-1.6939999999999997,-2.2925000000000004
0.34135871199998746,-0.40438701939999994,-0.23928225999999997,9.906285564,-0.14,-1.61,-2.31,-0.38356946278000004,-0.24358934068,9.88666441868,-0.2065,-1.6835,-2.292500000000001
0.3507367309999836,-0.4019941968,-0.23928225999999997,9.8608219346,-17.92,-1.7500000000000002,-2.1700000000000004,-0.38416766843,-0.2433500584199999,9.88666441868,-1.0815000000000001,-1.6905000000000001,-2.2855000000000008
0.36414475899999843,-0.39481572899999995,-0.24406790519999996,9.851250644199999,-17.85,-1.61,-2.1,-0.38416766843000005,-0.24323041728999995,9.884510878339999,-1.9740000000000002,-1.6834999999999998,-2.2785000000000006
0.37615878399998337,-0.39242290639999994,-0.24406790519999996,9.894321451,-0.42000000000000004,-1.61,-2.3800000000000003,-0.38368910391,-0.24346969954999995,9.88463051947,-1.9880000000000002,-1.6765,-2.282000000000001
0.3905798150000237,-0.38285161599999995,-0.23449661479999998,9.851250644199999,17.85,-1.6800000000000002,-2.3800000000000003,-0.38416766843000005,-0.24239292937999996,9.883673390430001,-1.092,-1.6695,-2.2890000000000006
0.40091983600001413,-0.38285161599999995,-0.24885355039999998,9.9014999188,0.21000000000000002,-1.54,-2.3800000000000003,-0.38476587408,-0.24227328824999997,9.8835537493,-1.078,-1.6695,-2.2960000000000003
0.4093758540000181,-0.36849468039999994,-0.22971096959999998,9.865607579799999,-0.21000000000000002,-1.7500000000000002,-2.1700000000000004,-0.38309089826,-0.24311077616,9.883912672689998,-1.0675000000000001,-1.6625,-2.2960000000000007
0.42089187700003095,-0.37328032559999996,-0.2608176634,9.882357337999998,-0.14,-1.6800000000000002,-2.24,-0.3834498216499999,-0.24502503424,9.884151954950001,-1.0675000000000001,-1.6659999999999997,-2.2995000000000005
0.43164789799999426,-0.39960137419999997,-0.23688943739999999,9.887142983199999,-0.21000000000000002,-1.6800000000000002,-2.31,-0.38512479746999995,-0.24478575198000002,9.882716261389998,-1.0675000000000003,-1.6555,-2.2995000000000005
0.44323992099998577,-0.40438701939999994,-0.22971096959999998,9.896714273599999,-0.07,-1.8900000000000001,-2.31,-0.38548372085999993,-0.24442682859000003,9.883912672689998,-1.0885000000000002,-1.6764999999999997,-2.2960000000000007
0.4557039460000283,-0.41874395499999995,-0.2703889538,9.851250644199999,-0.07,-1.4700000000000002,-2.1,-0.38883367249999995,-0.24490539311000004,9.881519850089997,-1.092,-1.6625,-2.2785000000000006
0.46741196900001114,-0.38045879339999994,-0.22013967919999997,9.8751788702,17.85,-1.8200000000000003,-2.1,-0.39014972493,-0.24263221164,9.881878773479997,-0.18200000000000038,-1.6659999999999997,-2.2680000000000007
0.4774169890000053,-0.3900300838,-0.24406790519999996,9.9158568544,-0.21000000000000002,-1.54,-2.31,-0.39014972492999994,-0.24263221163999998,9.882476979129997,-0.1680000000000003,-1.6484999999999999,-2.275000000000001
0.48698100799998656,-0.38045879339999994,-0.23688943739999999,9.8919286284,-0.07,-1.6800000000000002,-2.31,-0.3909872128399999,-0.24239292938,9.882596620259998,-0.1540000000000002,-1.6484999999999999,-2.2715000000000005
0.49577102500001047,-0.38763726119999997,-0.24885355039999998,9.877571692799998,0.0,-1.7500000000000002,-2.1700000000000004,-0.3911068539699999,-0.24203400598999997,9.882237696869996,-0.14000000000000015,-1.6484999999999999,-2.2680000000000007
0.5044770430000085,-0.39242290639999994,-0.2584248408,9.9086783866,0.0,-1.6800000000000002,-2.31,-0.39074793057999996,-0.24287149389999999,9.881878773479997,-0.12600000000000008,-1.652,-2.2715000000000005
0.5139670620000061,-0.40677984199999995,-0.24406790519999996,9.894321451,-0.35000000000000003,-1.6800000000000002,-2.45,-0.39158541848999995,-0.24311077616,9.881878773479999,-0.14000000000000043,-1.659,-2.2785000000000006
0.5226500790000159,-0.39720855159999996,-0.2536391956,9.913464031799998,-0.07,-1.61,-2.3800000000000003,-0.39170505961999996,-0.24335005842,9.88319482591,-0.12950000000000036,-1.6695,-2.271500000000001
0.5316090970000005,-0.38524443859999996,-0.25124637299999997,9.9014999188,-0.49000000000000005,-1.8200000000000003,-2.31,-0.39146577736,-0.24466611084999995,9.886185854159999,-0.14000000000000032,-1.6835,-2.2715000000000005
0.5436491209999872,-0.36370903520000003,-0.26321048599999997,9.8919286284,-0.49000000000000005,-1.61,-2.3800000000000003,-0.39038900719,-0.24490539310999998,9.885946571899998,-0.14000000000000026,-1.673,-2.2785000000000006
0.5547701429999847,-0.38524443859999996,-0.24646072779999997,9.896714273599999,0.14,-1.7500000000000002,-2.1700000000000004,-0.38943187815,-0.24526431649999997,9.885468007379998,-0.12600000000000022,-1.6800000000000002,-2.2715000000000005
0.565362164000021,-0.38045879339999994,-0.24406790519999996,9.884750160599998,-0.42000000000000004,-2.0300000000000002,-2.31,-0.38835510798,-0.24550359875999997,9.886664418679999,0.7489999999999998,-1.6940000000000002,-2.2785000000000006
0.5749891830000138,-0.39242290639999994,-0.2536391956,9.8727860476,-0.28,-1.61,-2.1700000000000004,-0.38823546685000004,-0.24598216327999994,9.887741188849997,1.6274999999999995,-1.6939999999999997,-2.282000000000001
0.5847822019999853,-0.38524443859999996,-0.2536391956,9.8799645154,-0.49000000000000005,-1.54,-2.24,-0.38787654346,-0.24646072779999995,9.887023342069998,1.6239999999999994,-1.6905000000000001,-2.2750000000000004
0.5948302219999846,-0.38763726119999997,-0.2536391956,9.896714273599999,0.0,-1.7500000000000002,-2.1700000000000004,-0.38811582572000003,-0.24741785683999998,9.889296523539997,0.7315000000000002,-1.6940000000000002,-2.2645000000000004
0.605307243000027,-0.38763726119999997,-0.23210379219999996,9.9038927414,-0.14,-1.61,-2.31,-0.38835510798,-0.24658036893,9.88941616467,0.714,-1.6975000000000002,-2.261
0.6152622630000337,-0.38285161599999995,-0.2560320182,9.894321451,0.0,-1.7500000000000002,-2.1,-0.38907295476000003,-0.24789642135999998,9.890851858229997,0.7245000000000001,-1.6975000000000002,-2.2575000000000003
0.6264752850000264,-0.4019941968,-0.23449661479999998,9.8608219346,-0.6300000000000001,-1.8200000000000003,-2.45,-0.39050864831999993,-0.24658036893,9.889775088059999,0.7,-1.7045000000000001,-2.2680000000000002
0.6391793100000314,-0.38524443859999996,-0.27517459899999996,9.8751788702,-0.35000000000000003,-1.54,-2.31,-0.38979080153999995,-0.24849462701,9.889176882409998,0.6930000000000001,-1.6974999999999998,-2.2680000000000007
0.6506503329999873,-0.36849468039999994,-0.2225325018,9.8680004024,-0.07,-1.8200000000000003,-2.1700000000000004,-0.3879961845899999,-0.24813570361999998,9.887741188849997,0.6930000000000001,-1.6940000000000002,-2.2610000000000006
0.6606483529999991,-0.3613162126,-0.28235306679999994,9.906285564,-0.21000000000000002,-1.6800000000000002,-2.1700000000000004,-0.38512479746999995,-0.24873390926999991,9.89049293484,0.686,-1.7045,-2.264500000000001
0.6738453789999994,-0.3613162126,-0.2608176634,9.8919286284,-0.14,-1.8900000000000001,-2.31,-0.38416766843,-0.2507678084799999,9.891330422749999,-0.21350000000000002,-1.7079999999999997,-2.275000000000001
0.6845754010000178,-0.36610185780000004,-0.23688943739999999,9.853643466800001,-0.14,-1.54,-2.24,-0.38297125712999996,-0.25040888509,9.888219753369999,-0.21000000000000002,-1.7079999999999997,-2.2715000000000005
0.6953904220000027,-0.39481572899999995,-0.24167508259999998,9.8751788702,-0.35000000000000003,-1.8200000000000003,-2.3800000000000003,-0.38368910391,-0.25064816734999995,9.88738226546,-0.22400000000000003,-1.7150000000000003,-2.275000000000001
0.7051204410000196,-0.37328032559999996,-0.25124637299999997,9.882357337999998,0.07,-1.61,-2.24,-0.38297125712999996,-0.25076780847999997,9.887621547719998,-0.2205,-1.7079999999999997,-2.278500000000001
0.7166364640000324,-0.38524443859999996,-0.25124637299999997,9.8727860476,-0.21000000000000002,-2.0300000000000002,-2.45,-0.38261233374,-0.2504088850899999,9.885826930769998,-0.231,-1.7254999999999998,-2.2855000000000008
0.7264354839999783,-0.38045879339999994,-0.23928225999999997,9.9014999188,17.57,-1.61,-2.1700000000000004,-0.38129628131,-0.25016960282999995,9.886185854159997,0.665,-1.722,-2.2715000000000005
0.7403785110000172,-0.38524443859999996,-0.25124637299999997,9.8991070962,-0.14,-1.7500000000000002,-2.31,-0.38069807565999997,-0.25004996169999993,9.885468007379998,0.6615,-1.7289999999999999,-2.2680000000000007
0.7504985310000052,-0.38763726119999997,-0.24167508259999998,9.865607579799999,-0.28,-1.61,-2.24,-0.38081771679000004,-0.2495713971799999,9.88367339043,0.6719999999999999,-1.7185000000000001,-2.264500000000001
0.7604775510000081,-0.38763726119999997,-0.24167508259999998,9.887142983199999,-0.21000000000000002,-1.6800000000000002,-2.31,-0.38201412809,-0.2484946270099999,9.883434108169997,0.6859999999999999,-1.7220000000000002,-2.2610000000000006
0.7690505680000115,-0.4283152454,-0.24646072779999997,9.841679353799998,-0.28,-1.8200000000000003,-2.3800000000000003,-0.38416766843000005,-0.2484946270099999,9.880682362179996,0.665,-1.7255000000000003,-2.2715000000000005
0.7778995859999895,-0.38045879339999994,-0.2679961312,9.882357337999998,-0.28,-1.7500000000000002,-2.1,-0.38416766843000005,-0.24969103830999995,9.88056272105,0.6719999999999999,-1.7115000000000002,-2.261
0.7884776070000044,-0.3756731482,-0.2536391956,9.8991070962,-0.42000000000000004,-1.7500000000000002,-2.1700000000000004,-0.38333018051999995,-0.24969103830999995,9.881878773479999,0.665,-1.7185000000000001,-2.261
0.8009596320000014,-0.38285161599999995,-0.24167508259999998,9.9349994352,-0.77,-1.9600000000000002,-2.31,-0.38321053938999994,-0.24909283265999999,9.884630519469999,0.651,-1.7395000000000003,-2.264500000000001
0.8126576550000095,-0.38763726119999997,-0.23928225999999997,9.889535805799998,-0.35000000000000003,-1.61,-2.45,-0.38321053938999994,-0.24837498587999995,9.884271596080001,0.6335000000000001,-1.7325,-2.2785000000000006
0.8242676780000124,-0.41635113239999993,-0.2703889538,9.9086783866,-0.14,-1.6800000000000002,-2.1700000000000004,-0.38464623295,-0.25028924395999996,9.884510878339999,0.6335,-1.7360000000000002,-2.2715000000000005
0.8352767000000085,-0.39960137419999997,-0.23688943739999999,9.870393224999999,-0.21000000000000002,-2.1,-2.1700000000000004,-0.38548372086000005,-0.24933211492000001,9.883314467039998,0.623,-1.7535000000000003,-2.275000000000001
0.8464837220000163,-0.39481572899999995,-0.23928225999999997,9.896714273599999,-0.14,-1.61,-2.5200000000000005,-0.38512479747,-0.24957139718,9.885109083989999,0.6475000000000001,-1.7429999999999999,-2.2785000000000006
0.8563087420000102,-0.40917266459999996,-0.2727817764,9.8991070962,-0.42000000000000004,-1.6800000000000002,-2.1700000000000004,-0.38632120877,-0.24945175605000003,9.88630549529,0.6439999999999999,-1.75,-2.2715000000000005
0.8681967649999933,-0.39481572899999995,-0.22731814699999997,9.846464998999998,17.64,-1.54,-2.3800000000000003,-0.38763726119999997,-0.24969103831000003,9.88522872512,1.5294999999999999,-1.736,-2.282000000000001
0.8803517890000307,-0.39242290639999994,-0.24406790519999996,9.906285564,-0.35000000000000003,-1.61,-2.31,-0.38919259589,-0.24777678023,9.88522872512,1.5224999999999997,-1.7325,-2.2890000000000006
0.8917198120000194,-0.38763726119999997,-0.23449661479999998,9.870393224999999,0.21000000000000002,-1.8200000000000003,-2.24,-0.39050864832,-0.2464607278,9.884151954949997,1.5399999999999998,-1.7290000000000003,-2.2855000000000008
0.902320833000033,-0.39481572899999995,-0.24406790519999996,9.839286531199999,0.07,-1.6800000000000002,-2.3800000000000003,-0.39194434188000005,-0.24681965118999996,9.883434108169997,1.5505,-1.7360000000000002,-2.292500000000001
0.9143948569999907,-0.41156548719999997,-0.2656033086,9.8727860476,-0.35000000000000003,-1.8900000000000001,-2.1,-0.39278182979,-0.24801606249,9.883314467039998,1.5504999999999995,-1.7395,-2.2785000000000006
0.9269808820000094,-0.4139583098,-0.2584248408,9.884750160599998,-0.42000000000000004,-1.7500000000000002,-2.45,-0.394815729,-0.24837498588,9.883434108169997,1.5259999999999994,-1.7465,-2.2890000000000006
0.9380799040000056,-0.38285161599999995,-0.22731814699999997,9.894321451,-0.28,-1.4700000000000002,-2.3800000000000003,-0.39469608787000005,-0.24717857458,9.884510878339999,1.5224999999999995,-1.7185000000000001,-2.2855000000000008
0.9494509269999867,-0.40438701939999994,-0.24167508259999998,9.877571692799998,0.0,-1.8900000000000001,-2.45,-0.39589249916999997,-0.24729821570999996,9.883314467039998,0.6440000000000001,-1.7325,-2.299500000000001
0.9606979490000072,-0.38524443859999996,-0.24406790519999996,9.8680004024,0.07,-2.0300000000000002,-2.3800000000000003,-0.39589249917,-0.24693929231999995,9.881759132349998,0.6545000000000002,-1.7465,-2.303000000000001
0.9726369730000215,-0.3900300838,-0.24885355039999998,9.8799645154,-0.07,-1.7500000000000002,-2.45,-0.3960121403,-0.24729821570999994,9.882476979129995,0.6650000000000001,-1.7535,-2.313500000000001
0.983819995000033,-0.3756731482,-0.24646072779999997,9.882357337999998,-0.35000000000000003,-1.7500000000000002,-2.3800000000000003,-0.39541393464999997,-0.24753749796999994,9.882237696869996,0.6580000000000001,-1.7570000000000001,-2.3170000000000006
0.9965740200000255,-0.38763726119999997,-0.24646072779999997,9.877571692799998,0.28,-1.6800000000000002,-2.31,-0.39338003543999994,-0.24753749796999996,9.884032313819997,0.6860000000000002,-1.75,-2.313500000000001
1.008624043999987,-0.38045879339999994,-0.23449661479999998,9.906285564,-0.28,-1.8200000000000003,-2.45,-0.39338003543999994,-0.24586252214999998,9.885228725119998,0.6860000000000002,-1.7535,-2.331000000000001
1.0206040680000115,-0.39242290639999994,-0.2703889538,9.882357337999998,-0.49000000000000005,-1.8200000000000003,-2.31,-0.39421752334999993,-0.24670001006,9.884391237209996,0.6825000000000001,-1.7570000000000001,-2.3380000000000005
1.0323860910000349,-0.37328032559999996,-0.2536391956,9.870393224999999,-0.21000000000000002,-1.6800000000000002,-2.31,-0.39373895882999993,-0.24729821571000002,9.881160926699996,0.7104999999999999,-1.7430000000000003,-2.338000000000001
1.044115115000011,-0.39242290639999994,-0.22971096959999998,9.8991070962,-17.71,-1.6800000000000002,-2.5900000000000003,-0.39397824108999996,-0.24681965119000004,9.881639491219996,-0.1575000000000001,-1.7465,-2.345000000000001
1.0562681389999966,-0.38285161599999995,-0.25124637299999997,9.8560362894,-0.28,-1.6800000000000002,-2.24,-0.3923032652699999,-0.24586252215,9.879007386359998,-0.16450000000000017,-1.7465000000000004,-2.3485000000000005
1.0677961619999792,-0.36610185780000004,-0.22013967919999997,9.8799645154,0.07,-1.6800000000000002,-2.31,-0.39062828945,-0.24502503424,9.879485950879998,-0.15050000000000024,-1.7255000000000003,-2.3555000000000006
1.0777741819999846,-0.40438701939999994,-0.25124637299999997,9.8751788702,-0.21000000000000002,-1.61,-2.31,-0.39110685396999995,-0.24562323988999996,9.878409180709998,-0.1540000000000004,-1.7255000000000003,-2.3450000000000006
1.0873632010000165,-0.38045879339999994,-0.24167508259999998,9.884750160599998,0.21000000000000002,-1.7500000000000002,-2.3800000000000003,-0.38967116040999994,-0.24406790519999996,9.877691333929999,-0.12250000000000039,-1.7290000000000003,-2.3555
1.0971682200000146,-0.40438701939999994,-0.22971096959999998,9.877571692799998,0.07,-1.8200000000000003,-2.66,-0.39014972493,-0.24418754632999998,9.879246668619999,-1.0010000000000001,-1.7430000000000003,-2.369500000000001
1.107478241000024,-0.38045879339999994,-0.25124637299999997,9.8727860476,-0.42000000000000004,-1.7500000000000002,-2.3800000000000003,-0.38955151928,-0.24454646972,9.877571692799998,-1.0045000000000002,-1.75,-2.3730000000000007
1.1180932620000021,-0.39481572899999995,-0.24885355039999998,9.896714273599999,-0.56,-1.8900000000000001,-2.45,-0.38991044266999997,-0.24526431649999997,9.87888774523,-1.0430000000000001,-1.7535,-2.3835000000000006
1.1296992850000152,-0.3900300838,-0.2608176634,9.882357337999998,0.21000000000000002,-1.54,-2.3800000000000003,-0.38967116041,-0.24610180440999993,9.881041285569996,-1.036,-1.7465,-2.3835000000000006
1.141345307999984,-0.3900300838,-0.22013967919999997,9.858429112,0.21000000000000002,-1.6800000000000002,-2.31,-0.38859439024,-0.24382862293999996,9.880323438789997,-1.008,-1.7360000000000002,-2.3940000000000006
1.1528163309999968,-0.38524443859999996,-0.23928225999999997,9.8680004024,-0.07,-1.7500000000000002,-2.3800000000000003,-0.38715869667999997,-0.24287149389999999,9.87948595088,-0.9904999999999999,-1.736,-2.3905000000000003
1.1647893539999927,-0.39242290639999994,-0.2560320182,9.894321451,-0.42000000000000004,-1.7500000000000002,-2.24,-0.38763726119999997,-0.24430718745999996,9.87948595088,-0.9975000000000002,-1.75,-2.3835000000000006
1.1762353770000118,-0.38524443859999996,-0.23688943739999999,9.8751788702,0.0,-1.54,-2.1,-0.38668013215999997,-0.24406790519999996,9.879366309749997,-0.9975000000000002,-1.7325,-2.3660000000000005
1.1879734000000326,-0.39481572899999995,-0.24167508259999998,9.8919286284,17.85,-1.61,-2.24,-0.38715869668,-0.24394826406999998,9.88056272105,-0.10850000000000008,-1.7114999999999998,-2.3590000000000004
1.1997594239999785,-0.38524443859999996,-0.2177468566,9.8799645154,-0.14,-1.6800000000000002,-2.45,-0.38691941442,-0.24239292937999993,9.88056272105,-0.11200000000000007,-1.7080000000000002,-2.359000000000001
1.2111694470000316,-0.39242290639999994,-0.23928225999999997,9.889535805799998,-17.92,-1.4000000000000001,-2.3800000000000003,-0.3877569023300001,-0.2420340059899999,9.880921644439997,-0.9905000000000002,-1.6904999999999997,-2.3590000000000004
1.2227604700000256,-0.4019941968,-0.24646072779999997,9.8560362894,-0.07,-1.54,-2.5200000000000005,-0.38847474911,-0.24203400598999997,9.879844874269997,-1.0080000000000002,-1.6834999999999998,-2.3695000000000004
1.2327164889999835,-0.38763726119999997,-0.2536391956,9.8799645154,0.21000000000000002,-1.8200000000000003,-2.5200000000000005,-0.3888336725,-0.24299113502999997,9.878528821839996,-0.9835,-1.6834999999999998,-2.3730000000000007
1.2422445079999989,-0.38524443859999996,-0.24885355039999998,9.8919286284,0.14,-1.7500000000000002,-2.31,-0.38847474911,-0.2419143648599999,9.879007386359998,-0.9520000000000002,-1.6800000000000002,-2.3730000000000007
1.2507585249999806,-0.41156548719999997,-0.24406790519999996,9.834500885999999,-0.07,-1.9600000000000002,-2.45,-0.39038900718999997,-0.24143580033999995,9.877212769409997,-0.9450000000000001,-1.6939999999999997,-2.380000000000001
1.259295542000018,-0.38045879339999994,-0.23688943739999999,9.865607579799999,-0.35000000000000003,-1.8200000000000003,-2.1,-0.38979080154,-0.24179472372999994,9.875537793589999,-0.07700000000000012,-1.7009999999999998,-2.355500000000001
1.267944559,-0.3780659708,-0.23210379219999996,9.846464998999998,-0.07,-1.8900000000000001,-2.5200000000000005,-0.38955151928,-0.24083759468999996,9.87505922907,-0.06650000000000006,-1.7115000000000002,-2.369500000000001
1.2774965780000116,-0.41635113239999993,-0.24167508259999998,9.8632147572,0.0,-1.7500000000000002,-2.31,-0.39206398301,-0.24191436485999995,9.874221741160001,-0.07000000000000008,-1.7149999999999999,-2.3695000000000013
1.2860425950000263,-0.3900300838,-0.24885355039999998,9.944570725599998,0.0,-1.7500000000000002,-2.45,-0.3913461362299999,-0.24179472372999994,9.877691333929999,-0.05950000000000003,-1.722,-2.376500000000001
1.297346618000006,-0.38763726119999997,-0.24885355039999998,9.884750160599998,-0.21000000000000002,-1.6800000000000002,-2.31,-0.3917050596199999,-0.24215364711999993,9.877691333929999,-0.08050000000000007,-1.7185000000000001,-2.373000000000001
1.310829644000023,-0.38763726119999997,-0.24646072779999997,9.8727860476,-0.49000000000000005,-1.6800000000000002,-2.45,-0.39086757171,-0.24299113502999994,9.87745205167,-0.10850000000000008,-1.7115000000000002,-2.3625000000000007
1.3223736670000221,-0.39481572899999995,-0.2584248408,9.8919286284,-0.28,-1.7500000000000002,-2.31,-0.39158541848999995,-0.24335005841999996,9.878409180709998,-0.1015,-1.7115000000000002,-2.359000000000001
1.3349716920000105,-0.3780659708,-0.23928225999999997,9.870393224999999,0.35000000000000003,-1.8200000000000003,-2.3800000000000003,-0.39074793058,-0.24287149389999999,9.877093128279999,-0.056000000000000064,-1.7080000000000002,-2.3555000000000006
1.3466057159999991,-0.36370903520000003,-0.23688943739999999,9.8919286284,-17.92,-1.54,-2.24,-0.38943187815,-0.24167508259999995,9.877571692799997,-0.9625000000000001,-1.7080000000000002,-2.3485000000000005
1.3587667400000214,-0.39481572899999995,-0.24885355039999998,9.8608219346,-0.28,-1.54,-2.5200000000000005,-0.38967116041,-0.24311077616,9.877691333929999,-0.9870000000000001,-1.701,-2.359000000000001
1.370450763000008,-0.3780659708,-0.2560320182,9.8799645154,-0.07,-1.61,-2.31,-0.38931223702000006,-0.24394826406999998,9.878289539579997,-0.9870000000000003,-1.6940000000000002,-2.3555000000000006
1.3821487860000161,-0.38285161599999995,-0.22971096959999998,9.8799645154,-0.07,-1.6800000000000002,-2.3800000000000003,-0.3888336725,-0.24263221163999998,9.877571692799997,-0.9695000000000003,-1.6905000000000001,-2.3625000000000007
1.394075810000004,-0.41156548719999997,-0.23688943739999999,9.889535805799998,-0.07,-1.7500000000000002,-2.31,-0.39014972493,-0.24263221163999998,9.878289539579997,-0.9730000000000002,-1.701,-2.3730000000000007
1.4058968329999857,-0.38045879339999994,-0.2560320182,9.882357337999998,-0.14,-1.61,-2.31,-0.38943187815,-0.24335005842,9.877810975059997,-1.8725000000000005,-1.701,-2.376500000000001
1.4176278560000242,-0.41156548719999997,-0.2584248408,9.9086783866,-0.28,-1.54,-2.5200000000000005,-0.39074793058,-0.24538395762999995,9.879246668619997,-1.8795000000000006,-1.6940000000000002,-2.3800000000000003
1.4294888780000292,-0.38285161599999995,-0.24406790519999996,9.9038927414,-0.7000000000000001,-1.6800000000000002,-2.45,-0.39026936605999996,-0.24562323988999996,9.8799645154,-1.0185000000000002,-1.7079999999999997,-2.3835000000000006
1.441672901000004,-0.36849468039999994,-0.24885355039999998,9.865607579799999,-0.21000000000000002,-1.6800000000000002,-2.24,-0.38859439024,-0.24574288101999997,9.880443079919996,-1.0255000000000003,-1.7149999999999999,-2.369500000000001
1.4534519239999781,-0.3756731482,-0.23928225999999997,9.877571692799998,-0.07,-1.61,-2.3800000000000003,-0.3879961845899999,-0.24502503423999994,9.880323438789997,-1.0395000000000003,-1.7045,-2.3625000000000007
1.4643039439999939,-0.3780659708,-0.25124637299999997,9.8560362894,-0.21000000000000002,-1.61,-2.3800000000000003,-0.3876372611999999,-0.24514467536999995,9.878528821839998,-1.0570000000000004,-1.6974999999999998,-2.3660000000000005
1.4754799650000336,-0.39481572899999995,-0.23210379219999996,9.884750160599998,-0.14,-1.9600000000000002,-2.3800000000000003,-0.3867997732899999,-0.24454646972,9.881041285569998,-1.0605000000000004,-1.6974999999999998,-2.3625000000000007
1.4875899880000247,-0.3756731482,-0.27996024419999993,9.906285564,-0.35000000000000003,-1.61,-2.66,-0.3865604910299999,-0.24670001005999995,9.88307518478,-1.0605000000000004,-1.6869999999999998,-2.3905000000000003
1.499466009999992,-0.36370903520000003,-0.24167508259999998,9.8919286284,0.28,-1.54,-2.24,-0.3858426442499999,-0.24717857457999998,9.88534836625,-1.0430000000000004,-1.6695,-2.3765000000000005
1.5106900320000136,-0.38524443859999996,-0.24167508259999998,9.8440721764,0.07,-1.54,-2.31,-0.38428730955999996,-0.24717857457999992,9.88439123721,-1.0395000000000003,-1.659,-2.3765000000000005
1.521718051999983,-0.38045879339999994,-0.26321048599999997,9.884750160599998,-0.07,-1.4700000000000002,-2.3800000000000003,-0.38380874503999995,-0.24789642135999995,9.881400208959999,-1.0430000000000004,-1.645,-2.373
1.533653075000018,-0.37328032559999996,-0.22731814699999997,9.8799645154,0.07,-1.7500000000000002,-2.1700000000000004,-0.3830908982599999,-0.24681965118999996,9.8811609267,-1.0290000000000004,-1.6484999999999999,-2.3660000000000005
1.5453180970000062,-0.4019941968,-0.25124637299999997,9.865607579799999,-0.56,-1.7500000000000002,-2.5200000000000005,-0.3838087450399999,-0.24705893344999996,9.880802003309999,-1.0325000000000002,-1.652,-2.3695000000000004
1.5564651180000055,-0.39720855159999996,-0.24885355039999998,9.8919286284,-0.07,-1.6800000000000002,-2.24,-0.38392838616999997,-0.24658036892999996,9.880802003309999,-1.0220000000000002,-1.6484999999999999,-2.3660000000000005
1.5663831370000025,-0.3900300838,-0.22492532440000002,9.8273224182,-0.14,-1.8200000000000003,-2.45,-0.38452659181999993,-0.24586252214999993,9.878648462969997,-1.0465000000000004,-1.6484999999999999,-2.369500000000001
1.577042156999994,-0.38285161599999995,-0.23688943739999999,9.858429112,-0.35000000000000003,-1.7500000000000002,-2.1,-0.38548372086,-0.24586252214999998,9.87697348715,-0.16800000000000004,-1.659,-2.3625000000000007
1.587705177000032,-0.39960137419999997,-0.23928225999999997,9.841679353799998,-0.28,-1.9600000000000002,-2.31,-0.38572300311999996,-0.24538395763,9.876016358109997,-0.168,-1.6799999999999997,-2.3520000000000008
1.59929219899999,-0.39242290639999994,-0.23210379219999996,9.8680004024,-0.35000000000000003,-1.61,-2.3800000000000003,-0.38644084989999994,-0.24418754632999998,9.875418152459996,-0.182,-1.6800000000000002,-2.3555000000000006
1.6127382239999974,-0.36610185780000004,-0.24406790519999996,9.8751788702,-0.21000000000000002,-1.7500000000000002,-2.31,-0.38560336199,-0.24490539310999998,9.875178870199997,-0.18900000000000003,-1.6835,-2.3520000000000008
1.623171243999991,-0.37088750299999995,-0.24646072779999997,9.8991070962,-0.28,-1.7500000000000002,-2.3800000000000003,-0.38356946278000004,-0.24538395762999995,9.87565743472,-0.1995,-1.6835,-2.3555000000000006
1.633985263999989,-0.36849468039999994,-0.24646072779999997,9.9206424996,-0.21000000000000002,-1.8200000000000003,-2.1700000000000004,-0.38297125712999996,-0.24490539310999995,9.8775716928,-0.203,-1.6940000000000002,-2.348500000000001
1.6447852850000118,-0.38045879339999994,-0.23688943739999999,9.877571692799998,-0.21000000000000002,-1.6800000000000002,-2.45,-0.38141592244,-0.24382862293999996,9.876016358109998,-0.1995,-1.701,-2.3450000000000006
1.6534383009999942,-0.38524443859999996,-0.23449661479999998,9.882357337999998,-0.14,-1.7500000000000002,-2.24,-0.38153556357,-0.24335005842,9.874939587939998,-0.1715,-1.7045000000000001,-2.334500000000001
1.6619943169999942,-0.38524443859999996,-0.23688943739999999,9.894321451,-0.21000000000000002,-1.8200000000000003,-2.24,-0.38237305147999995,-0.24275185277000003,9.8763752815,-0.1715,-1.7115000000000002,-2.334500000000001
1.6706503340000154,-0.3565305674,-0.24406790519999996,9.836893708599998,-0.42000000000000004,-1.8200000000000003,-2.1700000000000004,-0.38141592244,-0.24299113502999997,9.874341382289998,-0.189,-1.7220000000000002,-2.3240000000000007
1.6792593499999953,-0.39481572899999995,-0.22731814699999997,9.896714273599999,-0.21000000000000002,-1.61,-2.45,-0.38225341035000004,-0.24179472373,9.876375281499998,-0.189,-1.722,-2.327500000000001
1.688217366999993,-0.3780659708,-0.24646072779999997,9.848857821599998,-0.07,-1.4700000000000002,-2.5200000000000005,-0.38141592243999994,-0.24251257050999997,9.874580664549999,-0.1855,-1.6975000000000002,-2.3345000000000007
1.696991383000011,-0.39481572899999995,-0.23210379219999996,9.9206424996,0.07,-1.6800000000000002,-2.45,-0.38237305148,-0.24011974791,9.87529851133,-0.1645,-1.701,-2.3240000000000007
1.7057083999999918,-0.39720855159999996,-0.2536391956,9.8919286284,-0.21000000000000002,-1.8200000000000003,-2.24,-0.3840480273,-0.24071795355999998,9.875298511329998,-0.189,-1.7150000000000003,-2.3240000000000007
1.7143394160000298,-0.38524443859999996,-0.24885355039999998,9.882357337999998,17.78,-1.8900000000000001,-2.31,-0.3840480273,-0.24107687694999996,9.87721276941,0.6965000000000001,-1.7325000000000004,-2.3240000000000007
1.7230014319999896,-0.39960137419999997,-0.24167508259999998,9.896714273599999,-0.35000000000000003,-1.6800000000000002,-2.24,-0.38500515634,-0.24000010677999994,9.87781097506,0.6825000000000001,-1.7429999999999999,-2.317000000000001
1.731677449000017,-0.39720855159999996,-0.2560320182,9.8632147572,0.56,-1.61,-2.3800000000000003,-0.38620156764,-0.24143580033999995,9.87697348715,0.7070000000000001,-1.736,-2.3275000000000015
1.7407894660000238,-0.38045879339999994,-0.23449661479999998,9.8991070962,-0.21000000000000002,-1.9600000000000002,-2.3800000000000003,-0.38512479747,-0.24059831242999996,9.87864846297,0.7245000000000001,-1.7465,-2.320500000000001
1.7494984819999786,-0.38045879339999994,-0.2584248408,9.889535805799998,-0.35000000000000003,-1.8900000000000001,-2.45,-0.38428730956,-0.24107687694999996,9.87852882184,0.7105,-1.7570000000000001,-2.3310000000000013
1.7582264989999885,-0.4019941968,-0.23449661479999998,9.8608219346,-17.85,-1.9600000000000002,-2.31,-0.38488551521000003,-0.24155544147,9.880203797659998,-0.175,-1.764,-2.3240000000000007
1.7669065150000165,-0.36610185780000004,-0.24885355039999998,9.9397850804,-0.35000000000000003,-1.7500000000000002,-2.0300000000000002,-0.38404802730000004,-0.24215364712,9.884271596079998,-0.17500000000000002,-1.764,-2.320500000000001
1.7755165319999833,-0.37088750299999995,-0.22971096959999998,9.8321080634,-0.7000000000000001,-1.54,-2.31,-0.3826123337399999,-0.24167508259999995,9.88379303156,-0.19599999999999998,-1.7430000000000003,-2.3205000000000005
1.7841905480000264,-0.36610185780000004,-0.23210379219999996,9.889535805799998,0.14,-1.7500000000000002,-2.1,-0.38129628130999993,-0.24167508259999998,9.884869801729998,-0.17149999999999999,-1.7500000000000004,-2.3065000000000007
1.7928405640000165,-0.35413774480000004,-0.24885355039999998,9.887142983199999,0.0,-1.9600000000000002,-2.45,-0.3806980756599999,-0.24191436485999995,9.885468007379998,-0.16100000000000003,-1.7605,-2.3135000000000003
1.8014855810000086,-0.39720855159999996,-0.23688943739999999,9.846464998999998,-0.21000000000000002,-1.6800000000000002,-2.45,-0.38201412809,-0.24143580033999998,9.882835902519998,-0.15749999999999997,-1.7570000000000001,-2.3170000000000006
1.810091596999996,-0.38524443859999996,-0.24167508259999998,9.8991070962,-0.21000000000000002,-1.8900000000000001,-2.1700000000000004,-0.382851616,-0.24119651807999992,9.88175913235,-0.1575000000000002,-1.7605000000000004,-2.317
1.8188316129999862,-0.3900300838,-0.24646072779999997,9.839286531199999,-0.42000000000000004,-1.54,-2.31,-0.38333018052,-0.24167508259999995,9.879844874269999,-0.16800000000000032,-1.7535,-2.3100000000000005
1.8275246300000276,-0.36849468039999994,-0.23449661479999998,9.9014999188,0.14,-1.6800000000000002,-2.31,-0.38249269260999996,-0.24167508259999995,9.880802003309999,-0.1540000000000003,-1.75,-2.313500000000001
1.836196646000019,-0.39481572899999995,-0.24406790519999996,9.8273224182,-0.07,-1.6800000000000002,-2.3800000000000003,-0.38297125713,-0.2420340059899999,9.87745205167,-0.14700000000000024,-1.7429999999999999,-2.3205000000000005
1.844844662000014,-0.4139583098,-0.2536391956,9.8632147572,-0.7000000000000001,-1.8200000000000003,-2.1700000000000004,-0.38584264425,-0.24251257050999997,9.8787681041,-0.16100000000000034,-1.7429999999999999,-2.3205000000000005
1.8534396790000187,-0.41874395499999995,-0.23449661479999998,9.8680004024,-0.21000000000000002,-1.8200000000000003,-2.1,-0.38703905555,-0.24287149389999999,9.877332410540001,-0.1610000000000003,-1.7535,-2.303000000000001
1.8621206949999873,-0.39960137419999997,-0.24646072779999997,9.877571692799998,-0.07,-1.61,-2.24,-0.38811582572000003,-0.24287149389999999,9.8787681041,-0.16100000000000028,-1.7605,-2.2890000000000006
1.8711357120000116,-0.4139583098,-0.23688943739999999,9.865607579799999,0.14,-1.61,-2.3800000000000003,-0.38907295476000003,-0.24311077616000004,9.876016358109998,-0.15750000000000028,-1.7570000000000001,-2.2855000000000008
1.8795997280000165,-0.40917266459999996,-0.23210379219999996,9.894321451,-0.14,-1.4700000000000002,-2.1700000000000004,-0.38967116041,-0.24203400599,9.87613599924,-0.15400000000000025,-1.7395,-2.282000000000001
1.8883367450000037,-0.39481572899999995,-0.2560320182,9.882357337999998,-0.07,-1.8200000000000003,-2.24,-0.39014972493,-0.24239292938,9.876135999239999,-1.0465000000000004,-1.736,-2.2785000000000006
1.8968917610000062,-0.38524443859999996,-0.2656033086,9.848857821599998,-0.28,-1.54,-2.3800000000000003,-0.38943187815,-0.24358934068,9.873743176640001,-1.0430000000000004,-1.7289999999999999,-2.2855000000000003
1.905436777000034,-0.3756731482,-0.25124637299999997,9.870393224999999,-0.21000000000000002,-1.54,-2.1700000000000004,-0.38835510797999995,-0.24335005842,9.874102100029999,-1.0815000000000003,-1.7254999999999998,-2.275000000000001
1.9140627930000278,-0.38045879339999994,-0.2560320182,9.894321451,-0.21000000000000002,-1.54,-2.24,-0.38835510798,-0.24442682858999998,9.87386281777,-1.0815000000000006,-1.7045,-2.2680000000000007
1.922691809000014,-0.38524443859999996,-0.2536391956,9.846464998999998,-0.21000000000000002,-1.8900000000000001,-2.31,-0.38859439024,-0.24418754632999998,9.87170927743,-1.0745000000000005,-1.7045,-2.261
1.9317288259999827,-0.38045879339999994,-0.24646072779999997,9.848857821599998,-0.14,-1.6800000000000002,-2.45,-0.38751762006999996,-0.24478575197999994,9.871111071779998,-0.189,-1.6904999999999997,-2.2680000000000007
1.9475068560000182,-0.40438701939999994,-0.24646072779999997,9.882357337999998,-0.35000000000000003,-1.8200000000000003,-2.24,-0.38943187814999997,-0.2446661108499999,9.868239684659999,-0.18899999999999997,-1.6939999999999997,-2.2785000000000006
1.9629878850000182,-0.36370903520000003,-0.2560320182,9.839286531199999,0.21000000000000002,-1.6800000000000002,-2.1,-0.38907295476,-0.24598216327999994,9.868598608049998,-0.14350000000000002,-1.7009999999999998,-2.2680000000000007
1.974506907000034,-0.3756731482,-0.23688943739999999,9.906285564,0.0,-1.6800000000000002,-2.45,-0.38955151928,-0.24622144553999994,9.86943609596,-0.15050000000000002,-1.6975000000000002,-2.2855000000000008
1.9871419309999965,-0.38524443859999996,-0.24646072779999997,9.887142983199999,0.21000000000000002,-1.8200000000000003,-2.31,-0.39110685396999995,-0.24610180440999999,9.86943609596,-0.14000000000000004,-1.6905000000000001,-2.2785000000000006
1.9994759539999905,-0.38285161599999995,-0.24646072779999997,9.8799645154,-0.07,-1.61,-2.3800000000000003,-0.3903890071899999,-0.24658036892999996,9.871111071779998,-0.13300000000000003,-1.6869999999999998,-2.275000000000001
2.010522975000015,-0.38524443859999996,-0.2536391956,9.870393224999999,-0.14,-1.8900000000000001,-2.31,-0.3903890071899999,-0.24717857457999998,9.869675378219998,-0.1295,-1.6869999999999998,-2.282000000000001
2.0189889910000147,-0.39481572899999995,-0.24167508259999998,9.829715240799999,-0.35000000000000003,-1.6800000000000002,-2.5200000000000005,-0.39062828944999994,-0.24693929231999995,9.869196813699997,-0.12600000000000003,-1.6939999999999997,-2.292500000000001
2.027961008000034,-0.38524443859999996,-0.24406790519999996,9.896714273599999,-0.42000000000000004,-1.6800000000000002,-2.31,-0.39146577736,-0.24741785683999998,9.868957531439998,-0.15400000000000003,-1.6940000000000002,-2.2925000000000013
2.036583023999981,-0.3900300838,-0.2703889538,9.9086783866,-0.28,-1.6800000000000002,-2.45,-0.39122649509999996,-0.24873390927,9.873025329859997,-0.1645,-1.6940000000000002,-2.2960000000000007
2.04546104100001,-0.41874395499999995,-0.25124637299999997,9.889535805799998,-0.07,-1.7500000000000002,-2.3800000000000003,-0.39146577736,-0.24861426814,9.874341382289998,-0.13299999999999998,-1.6905000000000001,-2.3065000000000007
2.054127058000006,-0.3780659708,-0.2536391956,9.8919286284,0.21000000000000002,-1.4700000000000002,-2.45,-0.38943187815,-0.24957139718000004,9.875537793589997,-0.11199999999999999,-1.673,-2.3240000000000007
2.062760073999982,-0.37328032559999996,-0.22971096959999998,9.834500885999999,-0.14,-1.6800000000000002,-2.31,-0.38811582572000003,-0.24873390927,9.873384253249998,-0.11550000000000002,-1.6765,-2.327500000000001
2.0713850899999784,-0.37088750299999995,-0.23688943739999999,9.877571692799998,-0.21000000000000002,-1.61,-2.5200000000000005,-0.38596228537999994,-0.24873390927,9.873982458899999,-0.133,-1.6765,-2.334500000000001
2.0800031059999924,-0.38285161599999995,-0.22013967919999997,9.8608219346,-0.56,-1.6800000000000002,-2.31,-0.38464623294999994,-0.24813570362000004,9.872307483079998,-0.15400000000000003,-1.6869999999999998,-2.341500000000001
2.088812123000025,-0.39481572899999995,-0.24167508259999998,9.8560362894,0.07,-1.6800000000000002,-2.31,-0.38464623294999994,-0.24741785684,9.87099143065,-0.14700000000000002,-1.6800000000000002,-2.3450000000000006
2.0980841410000153,-0.40677984199999995,-0.22971096959999998,9.9038927414,-0.42000000000000004,-1.6800000000000002,-2.31,-0.38572300311999996,-0.24562323988999996,9.87374317664,-0.15400000000000003,-1.6869999999999998,-2.341500000000001
2.1069221569999854,-0.38285161599999995,-0.24885355039999998,9.9349994352,-0.07,-1.7500000000000002,-2.3800000000000003,-0.3860819265099999,-0.24550359875999997,9.87697348715,-0.14700000000000002,-1.6975000000000002,-2.3520000000000008
2.115711174000012,-0.39720855159999996,-0.24646072779999997,9.8919286284,-0.49000000000000005,-1.8900000000000001,-2.31,-0.38691941441999994,-0.24502503423999994,9.876853846020001,-0.16100000000000003,-1.7149999999999999,-2.3555000000000006
2.1243771900000183,-0.38763726119999997,-0.23449661479999998,9.9014999188,0.28,-1.9600000000000002,-2.31,-0.38703905554999996,-0.24406790519999996,9.879605592009998,-0.1365,-1.7185,-2.3555000000000006
2.1329652059999944,-0.3756731482,-0.23210379219999996,9.8560362894,-0.07,-1.4700000000000002,-2.1700000000000004,-0.38679977329,-0.24335005842,9.879964515400001,-0.13300000000000003,-1.7079999999999997,-2.341500000000001
2.141650222999999,-0.3756731482,-0.24167508259999998,9.889535805799998,-0.42000000000000004,-1.8200000000000003,-2.5200000000000005,-0.38536407973,-0.24311077616,9.88032343879,-0.1365,-1.7080000000000002,-2.3555000000000006
2.1503762390000247,-0.38045879339999994,-0.24885355039999998,9.853643466800001,-0.35000000000000003,-1.7500000000000002,-2.5200000000000005,-0.38620156764,-0.24275185276999997,9.881041285570001,-0.1645,-1.7115000000000002,-2.376500000000001
2.1589742550000324,-0.3900300838,-0.23928225999999997,9.9038927414,0.07,-1.61,-2.3800000000000003,-0.38691941442,-0.24287149389999999,9.880921644439999,-0.161,-1.7080000000000002,-2.373
2.167633271999989,-0.38763726119999997,-0.24646072779999997,9.870393224999999,-17.85,-1.6800000000000002,-2.3800000000000003,-0.38703905554999996,-0.24287149389999993,9.88008415653,-1.064,-1.701,-2.376500000000001
2.1761602880000055,-0.3780659708,-0.22013967919999997,9.8632147572,17.78,-1.9600000000000002,-2.45,-0.38679977329,-0.24155544147,9.87924666862,-0.17149999999999999,-1.7185000000000001,-2.3800000000000003
2.1847973040000284,-0.39481572899999995,-0.24406790519999996,9.884750160599998,-0.14,-1.8200000000000003,-2.31,-0.38727833781,-0.24107687694999988,9.8799645154,-0.17149999999999996,-1.7149999999999999,-2.3800000000000003
2.193318320000003,-0.39242290639999994,-0.26321048599999997,9.9014999188,-0.49000000000000005,-1.6800000000000002,-2.24,-0.38715869667999997,-0.24215364711999993,9.883553749299999,-0.17850000000000008,-1.7150000000000003,-2.3660000000000005
2.201974337000024,-0.39242290639999994,-0.24646072779999997,9.9206424996,-0.14,-1.6800000000000002,-2.45,-0.38751762006999996,-0.24227328824999997,9.8847501606,-0.1645,-1.7149999999999999,-2.3730000000000007
2.210619353000027,-0.39242290639999994,-0.23449661479999998,9.887142983199999,-0.49000000000000005,-1.6800000000000002,-2.3800000000000003,-0.38763726119999997,-0.24047867129999995,9.88367339043,-0.17500000000000013,-1.7150000000000003,-2.369500000000001
2.219083369000032,-0.40677984199999995,-0.24646072779999997,9.877571692799998,-0.21000000000000002,-1.8200000000000003,-2.45,-0.38703905555,-0.24023938903999995,9.88307518478,-0.1820000000000001,-1.7185000000000001,-2.3730000000000007
2.2287383870000212,-0.40438701939999994,-0.2560320182,9.853643466800001,-0.35000000000000003,-1.8900000000000001,-2.3800000000000003,-0.38835510798,-0.24035903016999996,9.881160926699998,-0.21000000000000013,-1.7395000000000003,-2.369500000000001
2.2373864040000058,-0.40917266459999996,-0.22013967919999997,9.851250644199999,0.0,-1.8900000000000001,-2.5200000000000005,-0.39014972493,-0.23988046564999999,9.881998414609999,-0.20300000000000012,-1.75,-2.380000000000001
2.246075420000011,-0.38763726119999997,-0.25124637299999997,9.889535805799998,-0.07,-1.6800000000000002,-2.5900000000000003,-0.39098721284,-0.24059831242999996,9.88259662026,-0.1960000000000001,-1.7535,-2.3835000000000006
2.2546004360000325,-0.39481572899999995,-0.26321048599999997,9.858429112,0.0,-1.7500000000000002,-2.1700000000000004,-0.39158541849,-0.24275185277000003,9.88247697913,-0.16799999999999998,-1.7570000000000003,-2.376500000000001
2.2633984529999793,-0.40438701939999994,-0.2560320182,9.870393224999999,0.0,-1.61,-2.31,-0.39206398301,-0.24346969955,9.88319482591,-0.17149999999999999,-1.7535,-2.3765000000000005
2.2719724689999907,-0.39960137419999997,-0.24406790519999996,9.8751788702,17.78,-1.8200000000000003,-2.1700000000000004,-0.3917050596199999,-0.24418754633,9.881759132349998,0.7384999999999999,-1.7605,-2.369500000000001
2.281286485999999,-0.4139583098,-0.2703889538,9.9086783866,-0.21000000000000002,-1.7500000000000002,-2.1,-0.3932603943099999,-0.24526431649999997,9.880443079919997,0.7314999999999999,-1.7605,-2.3555000000000006
2.28990150300001,-0.39481572899999995,-0.2656033086,9.865607579799999,-0.14,-1.8200000000000003,-2.24,-0.3931407531799999,-0.24622144553999997,9.879127027489996,0.749,-1.7570000000000003,-2.3520000000000008
2.2987215190000256,-0.3900300838,-0.2679961312,9.8751788702,-0.28,-1.8200000000000003,-2.1700000000000004,-0.3932603943099999,-0.24789642135999998,9.877810975059997,0.721,-1.7500000000000004,-2.345
2.307409536000023,-0.36370903520000003,-0.25124637299999997,9.9014999188,-0.42000000000000004,-1.8200000000000003,-2.1,-0.39266218866,-0.2488535504,9.88008415653,0.7035,-1.7675,-2.341500000000001
2.316048551999984,-0.35174492220000003,-0.23449661479999998,9.8799645154,17.78,-1.8200000000000003,-2.5200000000000005,-0.39146577736,-0.24849462701,9.879605592009996,1.6134999999999997,-1.7675,-2.341500000000001
2.324675568000032,-0.35413774480000004,-0.23688943739999999,9.8919286284,-0.07,-1.7500000000000002,-2.24,-0.39014972493,-0.24789642135999998,9.881519850089996,1.6275000000000002,-1.7675,-2.3275000000000006
2.333307585,-0.36610185780000004,-0.22492532440000002,9.887142983199999,0.07,-1.61,-2.31,-0.38895331362999996,-0.24717857458,9.880682362179998,1.6275,-1.7675,-2.3240000000000007
2.341863601,-0.3756731482,-0.2225325018,9.8991070962,-0.35000000000000003,-1.6800000000000002,-2.5900000000000003,-0.38835510797999995,-0.24598216327999997,9.882118055739998,2.5025,-1.7675,-2.334500000000001
2.350560616999985,-0.3493520996,-0.23210379219999996,9.889535805799998,0.07,-1.4000000000000001,-2.3800000000000003,-0.38691941442,-0.24658036893,9.883434108169997,1.6170000000000002,-1.7395000000000003,-2.3310000000000013
2.359165633000032,-0.31824540579999994,-0.28713871199999996,9.884750160599998,0.0,-1.7500000000000002,-2.1700000000000004,-0.38309089826,-0.24873390926999997,9.883434108169997,1.624,-1.736,-2.324000000000001
2.367889649999995,-0.2967100024,-0.2560320182,9.8177511278,-0.07,-1.7500000000000002,-2.45,-0.37830525306000007,-0.24837498587999995,9.879246668619999,1.645,-1.7395,-2.334500000000001
2.376370666000014,-0.37328032559999996,-0.23449661479999998,9.923035322199999,-0.35000000000000003,-1.6800000000000002,-2.5200000000000005,-0.37734812402,-0.24777678023,9.879366309749999,1.6344999999999998,-1.7395,-2.338000000000001
2.3850896820000003,-0.40677984199999995,-0.2703889538,9.9493563708,-17.92,-1.4700000000000002,-2.31,-0.37806597079999993,-0.24957139717999993,9.882476979129999,0.7629999999999996,-1.7289999999999999,-2.334500000000001
2.3936566990000188,-0.45224347139999993,-0.2679961312,9.8632147572,0.07,-1.8200000000000003,-2.24,-0.38033915227,-0.25064816734999995,9.88175913235,0.7769999999999996,-1.7289999999999999,-2.3240000000000007
2.4022317150000276,-0.39960137419999997,-0.23210379219999996,9.870393224999999,-0.07,-1.54,-2.24,-0.3800998700099999,-0.24945175604999997,9.88259662026,0.7909999999999997,-1.7114999999999998,-2.317000000000001
2.4110007310000015,-0.40438701939999994,-0.23210379219999996,9.8249295956,0.07,-1.4700000000000002,-2.5200000000000005,-0.3798605877499999,-0.2500499617,9.881280567829998,0.7944999999999997,-1.6905000000000001,-2.3170000000000006
2.4195197459999918,-0.46899322959999995,-0.23928225999999997,9.8632147572,0.0,-1.6800000000000002,-2.66,-0.3839283861699999,-0.24945175605000003,9.8799645154,0.7979999999999997,-1.6904999999999997,-2.3205000000000005
2.429905765000001,-0.45942193919999996,-0.20578274359999998,9.865607579799999,-0.6300000000000001,-1.8200000000000003,-2.45,-0.3871586966799999,-0.24658036893000004,9.880323438789997,0.7664999999999996,-1.6939999999999997,-2.3345000000000007
2.4391047820000153,-0.46660040699999994,-0.1746760498,9.932606612599997,-0.07,-1.6800000000000002,-2.3800000000000003,-0.39026936605999996,-0.24251257051000003,9.883434108169999,0.7629999999999997,-1.6974999999999998,-2.3380000000000005
2.448159798000006,-0.430708068,-0.215354034,9.8727860476,-0.14,-1.54,-2.31,-0.39182470075,-0.24107687694999996,9.883314467039998,-0.1330000000000002,-1.6835,-2.3450000000000006
2.457221813999979,-0.37328032559999996,-0.22971096959999998,9.8177511278,0.07,-1.8200000000000003,-2.1700000000000004,-0.38979080153999995,-0.23904297773999997,9.878768104099999,-0.11900000000000018,-1.6869999999999998,-2.348500000000001
2.466302830000018,-0.31824540579999994,-0.2679961312,9.865607579799999,-0.07,-2.0300000000000002,-1.9600000000000002,-0.38596228538,-0.23916261886999995,9.878768104099999,-0.11550000000000013,-1.6974999999999998,-2.3345000000000007
2.4753658459999883,-0.33738798659999997,-0.2536391956,9.913464031799998,-0.14,-1.8900000000000001,-2.3800000000000003,-0.38333018052,-0.23844477208999998,9.88068236218,-0.10850000000000026,-1.7009999999999998,-2.3450000000000006
2.484404863000009,-0.346959277,-0.25124637299999997,9.9158568544,-0.21000000000000002,-1.7500000000000002,-2.1,-0.38249269260999996,-0.23844477208999998,9.881400208959999,-0.09800000000000017,-1.6975000000000002,-2.3450000000000006
2.493338879000021,-0.35174492220000003,-0.2608176634,9.944570725599998,0.21000000000000002,-1.7500000000000002,-2.0300000000000002,-0.38249269260999996,-0.23976082451999997,9.884630519469997,-0.9765,-1.6940000000000002,-2.3205000000000005
2.502411895000023,-0.32542387359999997,-0.2967100024,9.9158568544,-0.07,-1.61,-2.31,-0.38105699904999996,-0.24275185276999997,9.885826930769998,-0.9765,-1.687,-2.3240000000000007
2.5113579110000046,-0.31106693799999996,-0.2584248408,9.887142983199999,-0.07,-1.8900000000000001,-2.5200000000000005,-0.37830525305999996,-0.24442682858999998,9.885826930769998,-0.9835,-1.701,-2.3345000000000002
2.5202129269999887,-0.3493520996,-0.26321048599999997,9.889535805799998,-0.14,-1.8900000000000001,-2.24,-0.37698920062999997,-0.2464607278,9.885348366249998,-0.9730000000000002,-1.7115000000000002,-2.3170000000000006
2.52942794300003,-0.39720855159999996,-0.215354034,9.851250644199999,-0.35000000000000003,-1.7500000000000002,-2.45,-0.3793820232299999,-0.24562323989,9.883434108169999,-0.9940000000000003,-1.7290000000000003,-2.320500000000001
2.5385349599999927,-0.41156548719999997,-0.21296121140000002,9.896714273599999,-0.49000000000000005,-1.7500000000000002,-2.31,-0.38404802729999993,-0.24191436486,9.884032313819999,-1.0185000000000002,-1.7290000000000003,-2.3275000000000006
2.5477059760000316,-0.4283152454,-0.20578274359999998,9.8919286284,-0.14,-1.8200000000000003,-2.3800000000000003,-0.39062828944999994,-0.23940190112999998,9.887741188849997,-1.0220000000000002,-1.7325000000000004,-2.3240000000000007
2.5568019920000324,-0.41874395499999995,-0.215354034,9.8321080634,-0.14,-1.61,-2.3800000000000003,-0.39290147091999994,-0.23844477208999998,9.88319482591,-1.0115000000000003,-1.7289999999999999,-2.317000000000001
2.565801007999994,-0.39960137419999997,-0.20817556619999997,9.8249295956,-0.07,-1.4700000000000002,-2.45,-0.39254254753,-0.23533410271,9.87697348715,-0.11900000000000004,-1.7290000000000003,-2.3240000000000007
2.574843025000007,-0.4354937132,-0.20817556619999997,9.877571692799998,-0.21000000000000002,-1.8200000000000003,-2.1,-0.39170505962,-0.23234307445999997,9.877691333929999,-0.13300000000000006,-1.7290000000000003,-2.317000000000001
2.5838810409999837,-0.4354937132,-0.2177468566,9.877571692799998,-0.21000000000000002,-1.8900000000000001,-2.3800000000000003,-0.39349967656999996,-0.23162522768,9.87805025732,-0.14000000000000004,-1.7465000000000004,-2.3240000000000007
2.5928640569999857,-0.44027935839999993,-0.24406790519999996,9.877571692799998,0.49000000000000005,-1.7500000000000002,-2.3800000000000003,-0.39529429351999995,-0.23222343333,9.880682362179998,-0.11900000000000004,-1.7605,-2.317000000000001
2.601880073000018,-0.41635113239999993,-0.25124637299999997,9.889535805799998,-0.49000000000000005,-1.7500000000000002,-2.1,-0.39266218866,-0.23282163898000002,9.881998414609997,-0.14350000000000004,-1.764,-2.2890000000000006
2.6110560900000337,-0.38285161599999995,-0.24885355039999998,9.858429112,-0.6300000000000001,-1.6800000000000002,-2.31,-0.3888336725,-0.23497517931999998,9.881639491219996,-0.14350000000000004,-1.7570000000000001,-2.2820000000000005
2.6200191060000293,-0.33260234139999995,-0.27996024419999993,9.9517491934,0.0,-1.9600000000000002,-2.3800000000000003,-0.3821337692199999,-0.24023938903999995,9.882596620259998,-0.14000000000000004,-1.7710000000000001,-2.2820000000000005
2.6292801220000115,-0.36610185780000004,-0.2608176634,9.8751788702,0.0,-1.7500000000000002,-2.31,-0.37890345871,-0.24251257051000003,9.882716261389996,-0.133,-1.7815,-2.2820000000000005
2.638320137999983,-0.33020951879999993,-0.2608176634,9.9206424996,-0.07,-1.61,-2.5200000000000005,-0.37674991837,-0.24406790520000002,9.887860829979996,-0.14,-1.7710000000000001,-2.299500000000001
2.647234153999989,-0.34217363179999993,-0.2536391956,9.8751788702,-0.28,-1.6800000000000002,-2.5200000000000005,-0.37794632966999997,-0.24335005842,9.888339394499997,-0.1505,-1.7535,-2.3275000000000006
2.6565721709999934,-0.33499516399999996,-0.24646072779999997,9.877571692799998,0.28,-1.8900000000000001,-2.31,-0.37782668854,-0.24299113502999994,9.886544777549998,-0.1295,-1.7535,-2.3240000000000007
2.6652481870000315,-0.33260234139999995,-0.24646072779999997,9.877571692799998,-0.07,-1.7500000000000002,-2.5900000000000003,-0.37710884176000004,-0.24275185276999994,9.884630519469997,-0.12249999999999998,-1.7535,-2.348500000000001
2.6739622019999842,-0.35413774480000004,-0.22013967919999997,9.884750160599998,-0.56,-1.6800000000000002,-2.3800000000000003,-0.37722848289,-0.24071795355999992,9.881639491219996,-0.16099999999999998,-1.75,-2.3660000000000005
2.6827342180000073,-0.37088750299999995,-0.20817556619999997,9.8632147572,-0.35000000000000003,-1.7500000000000002,-2.3800000000000003,-0.37950166436,-0.23629123174999994,9.879007386359998,-0.175,-1.7570000000000003,-2.3695000000000013
2.6915042339999786,-0.40677984199999995,-0.24167508259999998,9.8632147572,-0.21000000000000002,-1.9600000000000002,-2.5200000000000005,-0.38428730956,-0.23545374383999995,9.87781097506,-0.182,-1.7605000000000004,-2.369500000000001
2.7002272490000223,-0.430708068,-0.23210379219999996,9.8560362894,-0.21000000000000002,-1.61,-2.24,-0.38835510798000006,-0.23389840914999996,9.876135999239999,-0.18549999999999997,-1.7465,-2.369500000000001
2.708985265000024,-0.41874395499999995,-0.2225325018,9.822536773,0.21000000000000002,-1.4700000000000002,-2.3800000000000003,-0.38943187815,-0.23425733254,9.87470030568,-0.15750000000000003,-1.7325,-2.3660000000000005
2.7178162810000117,-0.41874395499999995,-0.25124637299999997,9.8799645154,-0.28,-1.6800000000000002,-2.31,-0.38979080154,-0.23617159062,9.87386281777,-0.14700000000000002,-1.7290000000000003,-2.3660000000000005
2.726472295999997,-0.39242290639999994,-0.2560320182,9.8919286284,-0.56,-1.6800000000000002,-2.1,-0.38799618459,-0.23868405435,9.87386281777,-0.16800000000000004,-1.7220000000000002,-2.3520000000000008
2.7352533119999975,-0.4283152454,-0.2536391956,9.8751788702,-0.56,-1.4700000000000002,-2.5200000000000005,-0.38847474911,-0.24059831243000002,9.87601635811,-0.189,-1.7150000000000003,-2.359000000000001
2.743964328000004,-0.40677984199999995,-0.28235306679999994,9.884750160599998,-0.28,-1.9600000000000002,-2.1700000000000004,-0.3888336725,-0.24430718745999996,9.879007386359998,-0.19950000000000007,-1.7395,-2.3450000000000006
2.7567983509999863,-0.4235296002,-0.27996024419999993,9.894321451,-0.07,-1.9600000000000002,-2.1700000000000004,-0.38823546685,-0.24789642135999998,9.879844874269999,-0.19250000000000006,-1.7465,-2.3485000000000005
2.7707233749999887,-0.346959277,-0.28235306679999994,9.882357337999998,-0.42000000000000004,-1.8200000000000003,-2.31,-0.38380874503999995,-0.25112673187,9.880084156529998,-0.20300000000000007,-1.7429999999999999,-2.3450000000000006
2.7876624059999813,-0.346959277,-0.2656033086,9.8751788702,-0.35000000000000003,-1.8200000000000003,-2.45,-0.37914274097,-0.25220350203999997,9.879964515399996,-0.24500000000000002,-1.7465,-2.3485000000000005
2.799005426000008,-0.36370903520000003,-0.22013967919999997,9.8919286284,-0.56,-1.6800000000000002,-2.3800000000000003,-0.37651063610999996,-0.25064816734999995,9.880084156529996,-0.24850000000000003,-1.7429999999999999,-2.3625000000000007
2.814795454000034,-0.3613162126,-0.2177468566,9.865607579799999,-0.21000000000000002,-1.61,-2.24,-0.37543386594,-0.24909283265999993,9.880443079919996,-0.22749999999999998,-1.7395,-2.359000000000001
2.8278934780000213,-0.37088750299999995,-0.2225325018,9.865607579799999,-0.56,-1.9600000000000002,-2.3800000000000003,-0.37734812401999995,-0.24622144553999994,9.876135999239997,-0.25549999999999995,-1.7395000000000003,-2.359000000000001
2.840154499999983,-0.4019941968,-0.23688943739999999,9.894321451,-0.42000000000000004,-1.8900000000000001,-2.45,-0.37914274097,-0.24502503423999994,9.877093128279999,-0.27649999999999997,-1.7465,-2.3660000000000005
2.8516555200000084,-0.40677984199999995,-0.24167508259999998,9.906285564,0.21000000000000002,-1.6800000000000002,-2.24,-0.38297125712999996,-0.24406790519999993,9.876375281499996,-0.26249999999999996,-1.75,-2.352000000000001
2.8635975419999795,-0.4235296002,-0.23688943739999999,9.918249676999999,0.0,-1.61,-2.3800000000000003,-0.38703905554999996,-0.24323041728999995,9.878528821839996,-0.24850000000000008,-1.7465000000000004,-2.345000000000001
2.8756875629999854,-0.39720855159999996,-0.2608176634,9.8632147572,-0.21000000000000002,-1.8900000000000001,-2.1,-0.39014972493,-0.24394826406999992,9.87781097506,-0.27299999999999996,-1.7465000000000004,-2.334500000000001
2.8876145849999943,-0.44027935839999993,-0.26321048599999997,9.853643466800001,-0.07,-1.9600000000000002,-2.31,-0.3955335757799999,-0.24478575197999994,9.876614563759999,-0.273,-1.7570000000000001,-2.320500000000001
2.899034604999997,-0.39242290639999994,-0.2560320182,9.870393224999999,0.07,-1.61,-2.3800000000000003,-0.39744783385999993,-0.24658036892999996,9.875896716979998,-0.2415,-1.7535,-2.320500000000001
2.9104996259999893,-0.39960137419999997,-0.2560320182,9.889535805799998,0.0,-1.8200000000000003,-2.24,-0.39888352741999994,-0.24897319152999992,9.87721276941,-0.22400000000000003,-1.7570000000000003,-2.3135000000000003
2.920503644000007,-0.3780659708,-0.26321048599999997,9.9038927414,-0.35000000000000003,-1.9600000000000002,-2.24,-0.39744783385999993,-0.25004996169999993,9.87924666862,-0.231,-1.7570000000000003,-2.2995000000000005
2.9319336639999847,-0.39720855159999996,-0.24406790519999996,9.9038927414,-0.28,-1.61,-2.1700000000000004,-0.39577285803999995,-0.25064816734999995,9.88163949122,-0.23450000000000001,-1.7570000000000001,-2.2960000000000007
2.9427736840000307,-0.37088750299999995,-0.2225325018,9.8632147572,-0.21000000000000002,-2.0300000000000002,-2.1700000000000004,-0.39338003543999994,-0.25064816734999995,9.88367339043,-0.2555,-1.7850000000000001,-2.2855000000000003
2.9548337049999986,-0.4019941968,-0.22731814699999997,9.839286531199999,-0.49000000000000005,-1.8200000000000003,-2.0300000000000002,-0.39254254753,-0.24945175604999997,9.88163949122,-0.26600000000000007,-1.7920000000000003,-2.2715000000000005
2.9669077270000344,-0.38763726119999997,-0.23688943739999999,9.870393224999999,-0.28,-2.1,-2.31,-0.39230326527,-0.24849462701,9.880562721049998,-0.25200000000000006,-1.8130000000000002,-2.282000000000001
2.978789747999997,-0.38524443859999996,-0.23688943739999999,9.887142983199999,-0.7000000000000001,-1.9600000000000002,-2.24,-0.39014972493,-0.24765713910000003,9.881160926699998,-0.259,-1.8375000000000004,-2.2680000000000002
2.991026770000019,-0.3756731482,-0.20817556619999997,9.8321080634,-0.35000000000000003,-1.6800000000000002,-2.1,-0.38859439024000003,-0.24394826407,9.87852882184,-0.2625,-1.8235000000000003,-2.264500000000001
3.002569790999985,-0.39481572899999995,-0.2560320182,9.887142983199999,0.07,-1.54,-2.5900000000000003,-0.3871586966799999,-0.24275185276999997,9.878169898449999,-0.2555,-1.8025000000000002,-2.2855000000000008
3.0144518120000043,-0.39481572899999995,-0.2608176634,9.8751788702,-0.42000000000000004,-1.9600000000000002,-2.24,-0.38955151928,-0.24167508259999998,9.877810975059997,-0.2555,-1.8095000000000003,-2.282000000000001
3.026122832999988,-0.40677984199999995,-0.2703889538,9.8440721764,0.0,-1.54,-2.3800000000000003,-0.39254254752999995,-0.24191436486000004,9.87625564037,-0.238,-1.7955,-2.278500000000001
3.0375038530000324,-0.39242290639999994,-0.2775674216,9.8632147572,-0.42000000000000004,-1.61,-2.31,-0.39397824108999996,-0.24478575198,9.874819946809998,-0.23100000000000004,-1.7920000000000003,-2.275000000000001
3.049798875000022,-0.39960137419999997,-0.23449661479999998,9.8680004024,-0.14,-1.7500000000000002,-2.31,-0.3958924991699999,-0.24562323989,9.87493958794,-0.22749999999999998,-1.7990000000000002,-2.278500000000001
3.06165189699999,-0.39242290639999994,-0.2656033086,9.853643466800001,-0.21000000000000002,-1.8900000000000001,-2.1700000000000004,-0.39696926934,-0.24777678023000002,9.874341382290002,-0.21000000000000005,-1.7955,-2.268000000000001
3.0727149159999954,-0.39960137419999997,-0.23449661479999998,9.834500885999999,0.21000000000000002,-1.61,-2.31,-0.3968496282099999,-0.24765713910000003,9.871350354039999,-0.17850000000000002,-1.7815,-2.2610000000000006
3.084700938000026,-0.40917266459999996,-0.2584248408,9.9014999188,-0.35000000000000003,-1.61,-2.31,-0.39696926934,-0.24849462701000005,9.87111107178,-0.2065,-1.778,-2.264500000000001
3.0961929580000174,-0.3780659708,-0.23449661479999998,9.877571692799998,-0.28,-1.9600000000000002,-2.31,-0.39469608787,-0.24837498588,9.869077172569998,-0.2205,-1.7955,-2.261
3.108178979999991,-0.3756731482,-0.23928225999999997,9.8799645154,-0.14,-1.8900000000000001,-2.45,-0.3936193177,-0.24729821570999996,9.869914660480001,-0.217,-1.7955,-2.2785000000000006
3.120420002000003,-0.36610185780000004,-0.2584248408,9.887142983199999,-0.28,-1.9600000000000002,-2.24,-0.38991044266999997,-0.24705893344999996,9.8715896363,-0.22750000000000004,-1.7955,-2.2750000000000004
3.1323040230000174,-0.37328032559999996,-0.2536391956,9.887142983199999,-0.6300000000000001,-1.6800000000000002,-2.24,-0.38895331362999996,-0.24693929232,9.872427124209997,-0.2625,-1.7990000000000002,-2.2680000000000007
3.1436010429999897,-0.38285161599999995,-0.2560320182,9.846464998999998,-0.21000000000000002,-1.6800000000000002,-2.1700000000000004,-0.38811582572,-0.24693929231999995,9.870273583869999,-0.273,-1.7920000000000003,-2.264500000000001
3.155698065000024,-0.38285161599999995,-0.27517459899999996,9.8799645154,-0.28,-1.61,-2.3800000000000003,-0.38835510797999995,-0.24753749796999994,9.869077172569998,-0.2695,-1.7745000000000002,-2.2715000000000005
3.167733086999988,-0.3900300838,-0.24167508259999998,9.834500885999999,0.07,-1.8900000000000001,-2.3800000000000003,-0.38799618458999996,-0.24741785683999992,9.865607579799999,-0.252,-1.7885000000000002,-2.2820000000000005
3.1798331080000253,-0.41156548719999997,-0.23928225999999997,9.894321451,-0.49000000000000005,-1.6800000000000002,-2.31,-0.3900300837999999,-0.2482553447499999,9.867162914489999,-0.266,-1.7710000000000001,-2.2890000000000006
3.191753129999995,-0.4019941968,-0.24406790519999996,9.8799645154,-0.14,-1.61,-2.24,-0.39003008379999987,-0.24909283265999987,9.869196813699999,-0.2485,-1.7605,-2.2995000000000005
3.203355149999993,-0.41635113239999993,-0.24406790519999996,9.836893708599998,-0.07,-1.6800000000000002,-2.24,-0.39146577735999993,-0.24945175604999995,9.86752183788,-0.238,-1.7395,-2.2960000000000007
3.2148121710000055,-0.38285161599999995,-0.22013967919999997,9.8680004024,-0.35000000000000003,-1.8200000000000003,-2.1700000000000004,-0.3913461362299999,-0.24861426813999993,9.866564708839999,-0.22050000000000006,-1.7325,-2.292500000000001
3.2269081919999962,-0.38045879339999994,-0.24646072779999997,9.894321451,-0.28,-1.6800000000000002,-2.5200000000000005,-0.39158541848999995,-0.25052852621999994,9.869675378219998,-0.21700000000000003,-1.7325,-2.313500000000001
3.2389412140000218,-0.39960137419999997,-0.23928225999999997,9.8632147572,-0.07,-1.61,-2.24,-0.39182470074999987,-0.24969103830999995,9.86847896692,-0.22400000000000006,-1.736,-2.2960000000000007
3.2503942349999875,-0.4019941968,-0.2560320182,9.889535805799998,-0.49000000000000005,-1.7500000000000002,-2.1700000000000004,-0.3921836241399999,-0.24945175604999997,9.869196813699997,-0.2275000000000001,-1.7255000000000003,-2.292500000000001
3.262398255999983,-0.38045879339999994,-0.2608176634,9.896714273599999,0.14,-1.8200000000000003,-2.31,-0.39086757171,-0.24897319153000003,9.87182891856,-0.22050000000000008,-1.7395000000000003,-2.2890000000000006
3.2736872760000324,-0.38045879339999994,-0.2536391956,9.870393224999999,0.0,-1.6800000000000002,-2.45,-0.39026936605999996,-0.24777678023,9.872187841949998,-0.19950000000000004,-1.7430000000000003,-2.2960000000000007
3.289568304999989,-0.38045879339999994,-0.2584248408,9.865607579799999,-0.49000000000000005,-1.7500000000000002,-2.1,-0.38931223701999995,-0.24897319153000003,9.87206820082,-0.21700000000000003,-1.7429999999999999,-2.2855000000000008
3.301251325999999,-0.38045879339999994,-0.24646072779999997,9.865607579799999,0.0,-1.6800000000000002,-2.24,-0.38871403136999993,-0.24801606249,9.87266640647,-0.20650000000000004,-1.7325,-2.2890000000000006
3.313179347000016,-0.40438701939999994,-0.20817556619999997,9.8680004024,0.14,-1.9600000000000002,-2.31,-0.38895331362999985,-0.24670001006,9.874341382290002,-0.21000000000000005,-1.75,-2.2890000000000006
3.3241843669999867,-0.39960137419999997,-0.22013967919999997,9.851250644199999,-0.49000000000000005,-1.7500000000000002,-2.31,-0.38847474910999996,-0.24478575197999994,9.87182891856,-0.217,-1.7570000000000001,-2.2890000000000006
3.336102388000029,-0.40917266459999996,-0.26321048599999997,9.8632147572,-0.07,-1.54,-2.31,-0.3900300838,-0.24622144553999997,9.87111107178,-0.2065,-1.736,-2.289000000000001
3.3469544069999984,-0.40677984199999995,-0.22731814699999997,9.8680004024,-0.28,-1.7500000000000002,-2.3800000000000003,-0.39158541848999995,-0.24562323989,9.87051286613,-0.21350000000000002,-1.7289999999999999,-2.2855000000000008
3.3585854280000262,-0.40917266459999996,-0.23449661479999998,9.865607579799999,-0.07,-1.61,-2.45,-0.3937389588299999,-0.24442682859000003,9.869436095959998,-0.203,-1.7115000000000002,-2.2960000000000007
3.370486449999987,-0.35892339,-0.23928225999999997,9.829715240799999,-0.49000000000000005,-1.61,-2.24,-0.3930211120499999,-0.24370898180999995,9.866564708839999,-0.196,-1.7079999999999997,-2.296000000000001
3.382467470999984,-0.36849468039999994,-0.23688943739999999,9.8632147572,-0.42000000000000004,-1.8200000000000003,-2.31,-0.3923032652699999,-0.24275185277000003,9.867402196749998,-0.20650000000000004,-1.7149999999999999,-2.3030000000000013
3.393785491000017,-0.39481572899999995,-0.24167508259999998,9.8632147572,17.78,-1.54,-2.3800000000000003,-0.39290147091999994,-0.24107687695000002,9.866564708839999,0.6965000000000001,-1.7114999999999998,-2.303000000000001
3.4061615140000185,-0.3780659708,-0.24167508259999998,9.894321451,-0.6300000000000001,-1.7500000000000002,-2.1700000000000004,-0.3923032652699999,-0.24107687694999996,9.86955573709,0.6615,-1.7045000000000001,-2.2925000000000004
3.418097534000026,-0.37088750299999995,-0.23449661479999998,9.8991070962,-0.28,-1.8900000000000001,-2.87,-0.3902693660599999,-0.24083759468999996,9.869795019349999,0.672,-1.7150000000000003,-2.3205000000000005
3.4296795540000176,-0.39242290639999994,-0.24406790519999996,9.8727860476,-0.42000000000000004,-1.9600000000000002,-2.3800000000000003,-0.3897908015399999,-0.24083759468999996,9.86943609596,0.658,-1.7325,-2.3275000000000006
3.4418775739999887,-0.3780659708,-0.2225325018,9.9038927414,0.0,-1.54,-2.31,-0.3878765434599999,-0.23976082451999994,9.8727860476,0.6615,-1.7254999999999998,-2.3310000000000004
3.4529095930000153,-0.4019941968,-0.24167508259999998,9.913464031799998,-0.14,-1.61,-2.24,-0.3888336724999999,-0.24083759468999993,9.87505922907,0.6719999999999999,-1.7150000000000003,-2.3345000000000002
3.464690613000016,-0.37088750299999995,-0.2536391956,9.865607579799999,-0.56,-1.8900000000000001,-2.24,-0.3883551079799999,-0.24119651807999992,9.873623535510001,0.658,-1.7255000000000003,-2.3205
3.476038631999984,-0.39720855159999996,-0.23449661479999998,9.9038927414,-0.77,-1.54,-2.24,-0.38823546684999993,-0.24095723581999998,9.87565743472,0.623,-1.722,-2.3205000000000005
3.486905651000029,-0.41635113239999993,-0.23688943739999999,9.848857821599998,-0.28,-1.7500000000000002,-2.1700000000000004,-0.3889533136299999,-0.24000010678,9.873623535510001,0.6335,-1.7220000000000002,-2.3205000000000005
3.500373674000002,-0.41635113239999993,-0.24406790519999996,9.851250644199999,0.14,-1.7500000000000002,-2.3800000000000003,-0.3907479305799999,-0.23916261887,9.87135035404,0.6335000000000001,-1.7185000000000001,-2.3240000000000007
3.511122692000015,-0.39720855159999996,-0.23210379219999996,9.8727860476,0.21000000000000002,-1.7500000000000002,-2.5200000000000005,-0.39158541848999995,-0.23808584870000002,9.87146999517,0.6440000000000001,-1.722,-2.327500000000001
3.5227237120000154,-0.39960137419999997,-0.2536391956,9.894321451,-0.56,-1.8200000000000003,-2.31,-0.39254254753,-0.23784656643999996,9.872905688729997,0.6405000000000001,-1.7255000000000003,-2.3380000000000005
3.534657732000028,-0.38045879339999994,-0.2727817764,9.887142983199999,-0.21000000000000002,-1.8200000000000003,-2.3800000000000003,-0.39254254752999995,-0.23916261886999993,9.873982458899999,0.6300000000000001,-1.7325,-2.345000000000001
3.545982750999997,-0.4019941968,-0.24885355039999998,9.889535805799998,-0.21000000000000002,-1.8200000000000003,-2.31,-0.39242290639999994,-0.24119651807999992,9.87505922907,0.6125,-1.7254999999999998,-2.345000000000001
3.5573627699999975,-0.39960137419999997,-0.24646072779999997,9.8680004024,-0.42000000000000004,-1.7500000000000002,-2.45,-0.39242290639999994,-0.24251257050999997,9.875896716979998,0.6160000000000001,-1.7255000000000003,-2.352000000000001
3.5684817890000318,-0.38045879339999994,-0.23449661479999998,9.894321451,-0.28,-1.7500000000000002,-2.31,-0.39098721283999993,-0.24107687694999996,9.87745205167,0.6054999999999999,-1.7360000000000002,-2.352000000000001
3.5817848120000235,-0.41156548719999997,-0.26321048599999997,9.839286531199999,-0.14,-1.7500000000000002,-2.3800000000000003,-0.3912264950999999,-0.24287149389999999,9.876016358109998,0.6125,-1.7360000000000002,-2.352000000000001
3.5936328320000257,-0.38285161599999995,-0.24167508259999998,9.8608219346,-0.35000000000000003,-1.7500000000000002,-2.31,-0.3899104426699999,-0.24323041728999995,9.875777075849998,0.5985000000000001,-1.7430000000000003,-2.3450000000000015
3.605640852000022,-0.41156548719999997,-0.2703889538,9.887142983199999,-0.42000000000000004,-1.61,-2.24,-0.39254254752999995,-0.24478575198,9.87864846297,0.6019999999999999,-1.7429999999999999,-2.345000000000001
3.617319871999996,-0.39720855159999996,-0.2560320182,9.882357337999998,-0.14,-1.8200000000000003,-2.24,-0.3939782410899999,-0.24574288101999997,9.879605592009998,0.6159999999999999,-1.7429999999999999,-2.341500000000001
3.6292098920000058,-0.39720855159999996,-0.24646072779999997,9.877571692799998,-0.07,-1.6800000000000002,-2.45,-0.39409788222,-0.24598216327999994,9.880323438789997,-0.27649999999999997,-1.75,-2.3450000000000006
3.6409499119999964,-0.38763726119999997,-0.23928225999999997,9.882357337999998,-0.21000000000000002,-1.8200000000000003,-2.3800000000000003,-0.39457644674,-0.24586252214999993,9.879725233139997,-0.2555,-1.7535,-2.3555000000000006
3.652391931000011,-0.36370903520000003,-0.2560320182,9.853643466800001,-0.14,-1.6800000000000002,-2.45,-0.39421752334999993,-0.24693929231999995,9.877452051669998,-0.2485,-1.7429999999999999,-2.3345000000000007
3.6633129500000337,-0.39242290639999994,-0.2679961312,9.8799645154,0.14,-1.8200000000000003,-2.24,-0.39421752335000004,-0.24813570361999998,9.877810975059997,-0.2205,-1.7360000000000002,-2.3275000000000006
3.6757699710000225,-0.36610185780000004,-0.23449661479999998,9.896714273599999,-0.07,-1.6800000000000002,-2.24,-0.3936193177,-0.24873390927,9.877452051669998,-0.22400000000000003,-1.7430000000000003,-2.3240000000000007
3.688519993,-0.37328032559999996,-0.22492532440000002,9.882357337999998,-0.14,-1.8900000000000001,-2.24,-0.39218362414,-0.24789642136000004,9.875896716979998,-0.22400000000000003,-1.7570000000000003,-2.3240000000000007
3.700682013000005,-0.36610185780000004,-0.2560320182,9.8632147572,-0.35000000000000003,-1.61,-2.45,-0.39194434188000005,-0.24801606249000002,9.87577707585,-0.21349999999999997,-1.7429999999999999,-2.334500000000001
3.71166703199998,-0.38045879339999994,-0.23928225999999997,9.9038927414,-0.28,-1.7500000000000002,-2.5900000000000003,-0.39110685397000006,-0.24825534475,9.87577707585,-0.189,-1.7535,-2.3520000000000008
3.7230020509999804,-0.3780659708,-0.24167508259999998,9.887142983199999,-17.92,-1.6800000000000002,-2.24,-0.38919259589000005,-0.24849462700999997,9.877691333929999,-1.0710000000000002,-1.75,-2.3555000000000006
3.7342810700000086,-0.38285161599999995,-0.23449661479999998,9.8608219346,-0.14,-1.61,-2.1700000000000004,-0.38751762007,-0.24801606249,9.87816989845,-1.0850000000000002,-1.7429999999999999,-2.3450000000000006
3.7456040889999827,-0.39960137419999997,-0.2608176634,9.8608219346,-0.35000000000000003,-1.8900000000000001,-2.1700000000000004,-0.38763726119999997,-0.24945175604999997,9.8775716928,-1.1130000000000002,-1.75,-2.3275000000000006
3.7567771079999943,-0.40438701939999994,-0.23210379219999996,9.853643466800001,-0.07,-1.7500000000000002,-2.45,-0.38787654346,-0.24837498588,9.875537793590002,-1.0885000000000002,-1.7465,-2.334500000000001
3.7688611290000154,-0.39242290639999994,-0.26321048599999997,9.9038927414,-0.21000000000000002,-1.7500000000000002,-2.3800000000000003,-0.38847474910999996,-0.24789642135999998,9.876375281500001,-1.0885000000000002,-1.7429999999999999,-2.334500000000001
3.780851149,-0.40438701939999994,-0.2656033086,9.8560362894,-0.49000000000000005,-1.9600000000000002,-2.24,-0.3885943902399999,-0.24873390927,9.874700305680003,-1.1025000000000003,-1.75,-2.331000000000001
3.792329169000027,-0.39242290639999994,-0.22731814699999997,9.8440721764,-0.6300000000000001,-1.7500000000000002,-2.1700000000000004,-0.38823546685,-0.24777678023,9.873503894380002,-1.113,-1.75,-2.317000000000001
3.803981188000023,-0.39960137419999997,-0.22492532440000002,9.889535805799998,0.0,-1.8200000000000003,-2.1,-0.3891925958899999,-0.24729821570999996,9.873264612120002,-1.0990000000000002,-1.7535,-2.306500000000001
3.8151262069999916,-0.39960137419999997,-0.2679961312,9.884750160599998,0.14,-1.8900000000000001,-2.31,-0.3885943902399999,-0.24753749797000002,9.87553779359,-1.0850000000000002,-1.7605000000000004,-2.3030000000000013
3.827578227999993,-0.38763726119999997,-0.24646072779999997,9.836893708599998,-0.35000000000000003,-1.4700000000000002,-2.45,-0.38883367249999995,-0.24777678023,9.87434138229,-1.0850000000000002,-1.7465,-2.3100000000000014
3.8394362490000162,-0.3780659708,-0.22013967919999997,9.9086783866,-0.35000000000000003,-1.54,-2.24,-0.3871586966799999,-0.24526431649999997,9.875418152459998,-1.0815000000000003,-1.7429999999999999,-2.310000000000001
3.850737267999989,-0.38285161599999995,-0.23688943739999999,9.8680004024,0.14,-1.6800000000000002,-2.45,-0.38644084989999994,-0.24430718745999996,9.87470030568,-1.0675000000000003,-1.7360000000000002,-2.320500000000001
3.8606602849999945,-0.39481572899999995,-0.22971096959999998,9.9038927414,-0.14,-1.8200000000000003,-2.1700000000000004,-0.38632120877,-0.24346969955,9.876016358109998,-1.0710000000000002,-1.7429999999999999,-2.3065000000000007
3.8691842989999827,-0.3780659708,-0.23449661479999998,9.887142983199999,-0.28,-1.6800000000000002,-2.45,-0.3858426442499999,-0.24323041729000003,9.876255640369997,-1.0745000000000002,-1.736,-2.3100000000000014
3.8779713139999785,-0.38763726119999997,-0.24885355039999998,9.853643466800001,-17.92,-1.6800000000000002,-2.1,-0.38703905554999996,-0.24287149389999999,9.876255640370001,-1.9635000000000005,-1.7360000000000002,-2.292500000000001
3.8865463280000085,-0.38524443859999996,-0.27517459899999996,9.8560362894,-0.14,-1.7500000000000002,-2.31,-0.38668013215999997,-0.24323041728999995,9.87505922907,-1.9775000000000005,-1.7325,-2.2960000000000007
3.8953063430000157,-0.3900300838,-0.2608176634,9.9086783866,-0.21000000000000002,-1.7500000000000002,-2.1,-0.38787654345999995,-0.24454646972,9.87565743472,-1.9845000000000002,-1.736,-2.2890000000000006
3.9045233589999953,-0.4019941968,-0.24406790519999996,9.841679353799998,-0.21000000000000002,-1.6800000000000002,-2.24,-0.38931223701999995,-0.24550359875999997,9.87362353551,-1.9880000000000002,-1.7254999999999998,-2.2890000000000006
3.915449377000016,-0.41635113239999993,-0.24646072779999997,9.8991070962,-0.35000000000000003,-1.54,-2.45,-0.3918247007499999,-0.24502503423999994,9.875418152460002,-1.9880000000000007,-1.722,-2.2890000000000006
3.927627398000027,-0.3900300838,-0.24885355039999998,9.851250644199999,-0.35000000000000003,-1.7500000000000002,-2.1700000000000004,-0.39230326527,-0.2455035987599999,9.8727860476,-1.9915000000000007,-1.722,-2.2680000000000007
3.938869417000035,-0.38285161599999995,-0.23928225999999997,9.841679353799998,-0.14,-1.54,-2.1,-0.39254254753,-0.24538395762999993,9.870512866130001,-1.1025000000000005,-1.7150000000000003,-2.2610000000000006
3.950815437000017,-0.38763726119999997,-0.24646072779999997,9.8799645154,-0.49000000000000005,-1.61,-2.3800000000000003,-0.39278182979,-0.24598216327999994,9.87146999517,-1.1200000000000003,-1.7150000000000003,-2.2715000000000005
3.962423457,-0.3900300838,-0.24167508259999998,9.870393224999999,0.14,-1.61,-2.45,-0.39230326527,-0.24502503423999994,9.87194855969,-1.0955000000000004,-1.701,-2.2855000000000008
3.97334947600001,-0.39242290639999994,-0.2536391956,9.882357337999998,0.0,-1.6800000000000002,-2.1700000000000004,-0.39170505961999996,-0.24610180440999993,9.873384253249998,-1.0920000000000003,-1.6975000000000002,-2.271500000000001
3.9859044969999786,-0.38285161599999995,-0.23928225999999997,9.884750160599998,0.0,-2.0300000000000002,-2.3800000000000003,-0.39122649509999996,-0.24490539310999998,9.872427124209997,-1.0815000000000003,-1.7115000000000002,-2.2715000000000005
3.997522516999993,-0.38524443859999996,-0.22731814699999997,9.889535805799998,0.21000000000000002,-1.61,-2.31,-0.39026936605999996,-0.24299113503000003,9.874102100029997,-1.0465000000000002,-1.6939999999999997,-2.275000000000001
4.007613534000029,-0.39481572899999995,-0.23210379219999996,9.8799645154,-0.49000000000000005,-1.8200000000000003,-2.24,-0.39038900719,-0.24323041729000003,9.875896716979996,-1.0395,-1.6975000000000002,-2.2785000000000006
4.01619754799998,-0.37328032559999996,-0.24167508259999998,9.884750160599998,17.78,-1.8900000000000001,-2.7300000000000004,-0.38907295476,-0.24406790520000002,9.875657434719995,-0.15050000000000008,-1.7009999999999998,-2.310000000000001
4.024875563000023,-0.39242290639999994,-0.2656033086,9.9206424996,0.0,-1.8200000000000003,-2.1,-0.38871403137000005,-0.24394826407,9.877452051669998,-0.1575000000000001,-1.6974999999999998,-2.299500000000001
4.033449577999988,-0.40677984199999995,-0.24885355039999998,9.8608219346,-0.14,-1.8900000000000001,-2.3800000000000003,-0.38967116041,-0.24406790519999996,9.878648462969998,-0.14700000000000005,-1.7185000000000001,-2.2960000000000007
4.042464593000034,-0.4019941968,-0.26321048599999997,9.870393224999999,-0.35000000000000003,-1.7500000000000002,-2.3800000000000003,-0.39086757171,-0.24622144553999997,9.876734204889999,-0.14700000000000016,-1.7289999999999999,-2.3030000000000004
4.054336613000032,-0.3756731482,-0.24885355039999998,9.889535805799998,-0.21000000000000002,-1.54,-2.45,-0.39050864831999993,-0.24681965118999996,9.877810975059997,-0.16450000000000017,-1.7220000000000002,-2.3030000000000004
4.064823631000024,-0.40438701939999994,-0.24885355039999998,9.8321080634,-0.56,-1.4000000000000001,-2.3800000000000003,-0.39098721283999993,-0.24777678022999994,9.874221741159998,-0.18550000000000016,-1.701,-2.3135000000000003
4.0762366499999985,-0.4211367776,-0.23928225999999997,9.858429112,0.07,-1.7500000000000002,-2.45,-0.39314075317999997,-0.2480160624899999,9.872786047599998,-0.1680000000000001,-1.7045000000000001,-2.3135000000000003
4.08912667200002,-0.39481572899999995,-0.24167508259999998,9.877571692799998,-0.07,-1.54,-2.24,-0.39349967656999996,-0.2476571390999999,9.873982458899999,0.7244999999999999,-1.6975000000000002,-2.320500000000001
4.101214691999985,-0.3756731482,-0.23928225999999997,9.889535805799998,-0.42000000000000004,-1.8900000000000001,-2.31,-0.3930211120499999,-0.24586252214999993,9.875657434719997,0.7104999999999999,-1.7045000000000001,-2.320500000000001
4.112983712000016,-0.38045879339999994,-0.23688943739999999,9.884750160599998,-0.6300000000000001,-1.7500000000000002,-2.5200000000000005,-0.3925425475299999,-0.24466611084999998,9.874461023419997,0.6895,-1.7045,-2.341500000000001
4.124760732000027,-0.3900300838,-0.26321048599999997,9.8799645154,-17.92,-1.61,-2.3800000000000003,-0.39194434187999994,-0.24562323988999993,9.876375281499998,-0.1960000000000001,-1.701,-2.3485000000000005
4.134726748999981,-0.39960137419999997,-0.24167508259999998,9.865607579799999,0.14,-1.8200000000000003,-2.24,-0.39110685396999995,-0.24538395762999995,9.874700305679998,-0.17150000000000026,-1.7150000000000003,-2.338000000000001
4.147944772000017,-0.38524443859999996,-0.2536391956,9.858429112,-0.49000000000000005,-2.1,-2.31,-0.3908675717099999,-0.24562323988999993,9.875059229069999,-0.17850000000000021,-1.7325,-2.3450000000000006
4.159800791999999,-0.37328032559999996,-0.24646072779999997,9.8608219346,-0.35000000000000003,-1.61,-2.3800000000000003,-0.39038900718999997,-0.24598216327999994,9.87601635811,-0.1890000000000002,-1.736,-2.359000000000001
4.171134811000002,-0.39242290639999994,-0.23928225999999997,9.865607579799999,-0.35000000000000003,-1.61,-2.45,-0.39062828945,-0.24562323988999993,9.875298511329998,-0.1820000000000002,-1.736,-2.3625000000000007
4.183067831000017,-0.38524443859999996,-0.23928225999999997,9.906285564,-0.35000000000000003,-1.7500000000000002,-2.5200000000000005,-0.39038900719,-0.24550359875999997,9.877093128279999,-0.2065000000000002,-1.7429999999999999,-2.3660000000000005
4.195510851999984,-0.3900300838,-0.23928225999999997,9.853643466800001,-17.78,-1.7500000000000002,-2.24,-0.39026936606,-0.24478575197999994,9.87565743472,-1.0955000000000001,-1.7465000000000004,-2.369500000000001
4.2074978730000225,-0.41635113239999993,-0.23210379219999996,9.882357337999998,-0.14,-1.4700000000000002,-2.24,-0.39194434187999994,-0.24442682858999998,9.875537793590002,-1.1025000000000003,-1.7185000000000001,-2.3625000000000007
4.219324893000021,-0.38763726119999997,-0.24406790519999996,9.906285564,-0.35000000000000003,-1.54,-2.5200000000000005,-0.39206398301,-0.24526431649999997,9.876375281500001,-1.1305000000000003,-1.7150000000000003,-2.3730000000000007
4.230760911999994,-0.41156548719999997,-0.24885355039999998,9.8680004024,-0.14,-1.7500000000000002,-2.24,-0.39290147092,-0.24610180440999993,9.87577707585,-1.1130000000000004,-1.7115000000000002,-2.3730000000000007
4.24252793200003,-0.4019941968,-0.24885355039999998,9.858429112,-0.07,-1.8900000000000001,-2.24,-0.39433716448,-0.24646072779999995,9.87446102342,-2.0055000000000005,-1.7115000000000002,-2.3485000000000005
4.253500950999978,-0.39481572899999995,-0.24885355039999998,9.889535805799998,-0.28,-1.8200000000000003,-2.24,-0.39445680560999996,-0.24562323988999993,9.872905688729997,-2.0195000000000007,-1.7114999999999998,-2.3555000000000006
4.263641968000002,-0.3613162126,-0.24646072779999997,9.8632147572,-0.42000000000000004,-1.54,-2.3800000000000003,-0.39218362414,-0.24550359875999997,9.873025329859999,-2.033500000000001,-1.6940000000000002,-2.3555000000000006
4.2769929899999966,-0.39242290639999994,-0.23928225999999997,9.8440721764,17.64,-1.61,-2.24,-0.39170505962,-0.24430718745999994,9.87170927743,-1.1340000000000003,-1.687,-2.3485000000000005
4.289492011999982,-0.3780659708,-0.2225325018,9.839286531199999,0.0,-1.4700000000000002,-2.24,-0.39182470075,-0.24299113502999994,9.8691968137,-1.1235000000000006,-1.6834999999999998,-2.338000000000001
4.299098028000003,-0.39720855159999996,-0.24406790519999996,9.853643466800001,-0.42000000000000004,-1.7500000000000002,-2.24,-0.39146577736,-0.24275185276999994,9.870273583869999,-1.1165000000000007,-1.7009999999999998,-2.3310000000000004
4.310672048000015,-0.38045879339999994,-0.22971096959999998,9.913464031799998,-0.07,-1.6800000000000002,-2.45,-0.38943187815,-0.24227328824999997,9.873025329860003,-1.1235000000000006,-1.6974999999999998,-2.331000000000001
4.321480065999992,-0.35892339,-0.23449661479999998,9.8680004024,0.07,-1.8200000000000003,-2.45,-0.38763726119999997,-0.24191436485999995,9.87254676534,-1.1165000000000007,-1.7114999999999998,-2.341500000000001
4.332486085000028,-0.39720855159999996,-0.23688943739999999,9.858429112,-0.21000000000000002,-1.6800000000000002,-2.3800000000000003,-0.38871403137000005,-0.24179472373,9.87099143065,-1.1060000000000005,-1.701,-2.345000000000001
4.343936104000022,-0.38524443859999996,-0.2584248408,9.8751788702,-0.35000000000000003,-1.8900000000000001,-2.24,-0.38895331363,-0.24287149389999999,9.87051286613,-1.092000000000001,-1.7080000000000002,-2.331000000000001
4.355067123000026,-0.38763726119999997,-0.25124637299999997,9.8991070962,-0.42000000000000004,-1.54,-2.1,-0.38883367250000006,-0.24227328825,9.87146999517,-0.21700000000000025,-1.7045,-2.317000000000001
4.365695141000003,-0.38763726119999997,-0.2536391956,9.8991070962,-0.49000000000000005,-1.61,-2.5900000000000003,-0.38823546685,-0.24287149389999999,9.873144970990001,-0.24850000000000025,-1.6940000000000002,-2.334500000000001
4.375574158000006,-0.41635113239999993,-0.2679961312,9.846464998999998,0.07,-1.61,-2.3800000000000003,-0.38979080154,-0.24358934068,9.872546765340001,-0.2205000000000003,-1.6695,-2.3380000000000014
4.387369178000029,-0.3900300838,-0.2584248408,9.9206424996,-0.14,-1.8200000000000003,-2.31,-0.39062828945000005,-0.24418754633,9.875537793590002,-0.21000000000000024,-1.6799999999999997,-2.334500000000001
4.39846419600002,-0.36849468039999994,-0.22731814699999997,9.834500885999999,-0.28,-1.8200000000000003,-2.1,-0.38943187814999997,-0.24358934068,9.873982458899999,-0.2065000000000004,-1.6905000000000001,-2.317000000000001
4.409108214000014,-0.38045879339999994,-0.24406790519999996,9.8919286284,-0.21000000000000002,-1.7500000000000002,-2.3800000000000003,-0.38919259588999994,-0.24382862293999996,9.87326461212,-0.19950000000000032,-1.6905000000000001,-2.310000000000001
4.4205052330000285,-0.39481572899999995,-0.2656033086,9.858429112,0.0,-1.6800000000000002,-2.3800000000000003,-0.38943187815,-0.24514467536999995,9.87350389438,0.6895,-1.687,-2.317000000000001
4.430942249999987,-0.3900300838,-0.24167508259999998,9.8680004024,0.14,-1.61,-2.24,-0.38811582572000003,-0.24562323988999993,9.872786047600002,0.7034999999999999,-1.6939999999999997,-2.317000000000001
4.442301267999994,-0.39481572899999995,-0.2775674216,9.9014999188,-0.21000000000000002,-1.6800000000000002,-2.31,-0.38847474910999996,-0.24729821570999994,9.872546765340001,0.7104999999999999,-1.701,-2.3065000000000007
4.4535702860000015,-0.38285161599999995,-0.22971096959999998,9.889535805799998,-0.28,-1.7500000000000002,-2.1,-0.38703905555,-0.24634108666999993,9.87362353551,0.7034999999999999,-1.7009999999999998,-2.299500000000001
4.464339303000031,-0.39481572899999995,-0.25124637299999997,9.8751788702,-17.78,-1.7500000000000002,-2.3800000000000003,-0.38668013216,-0.24646072779999995,9.874461023419999,-0.1820000000000001,-1.6940000000000002,-2.3065000000000007
4.474788320000016,-0.3613162126,-0.2105683888,9.894321451,-0.14,-1.8200000000000003,-2.1,-0.38500515634,-0.24454646972,9.874700305679998,-0.17500000000000032,-1.6940000000000002,-2.2995000000000005
4.485617337000008,-0.38285161599999995,-0.24646072779999997,9.8680004024,-0.35000000000000003,-1.8900000000000001,-2.31,-0.38608192651000006,-0.24454646971999994,9.87493958794,-0.17150000000000035,-1.7115000000000002,-2.2960000000000007
4.495562353000025,-0.40677984199999995,-0.23449661479999998,9.848857821599998,0.21000000000000002,-1.4700000000000002,-2.24,-0.38679977329000004,-0.24430718745999996,9.8751788702,-1.0430000000000001,-1.7045,-2.2960000000000003
4.504252366999992,-0.39720855159999996,-0.23688943739999999,9.8632147572,-0.42000000000000004,-1.8200000000000003,-2.24,-0.3877569023300001,-0.24502503424,9.8763752815,-1.0640000000000003,-1.7220000000000002,-2.2960000000000007
4.513375381999992,-0.39960137419999997,-0.24167508259999998,9.9038927414,-0.28,-1.61,-2.31,-0.3878765434600001,-0.24490539310999998,9.87888774523,-1.0570000000000002,-1.7149999999999999,-2.2995000000000005
4.521947394999984,-0.39242290639999994,-0.23928225999999997,9.839286531199999,-0.35000000000000003,-1.7500000000000002,-2.24,-0.3884747491100001,-0.24538395763,9.8751788702,-1.0710000000000004,-1.7185000000000001,-2.2890000000000006
4.530936409999981,-0.38045879339999994,-0.2536391956,9.8919286284,-0.35000000000000003,-1.6800000000000002,-2.5200000000000005,-0.38955151928,-0.24634108667000004,9.8763752815,-1.0920000000000003,-1.7115000000000002,-2.292500000000001
4.540701425000009,-0.38524443859999996,-0.24885355039999998,9.8799645154,-0.35000000000000003,-1.7500000000000002,-2.45,-0.38895331362999996,-0.24693929232,9.877452051670002,-1.0990000000000006,-1.7150000000000003,-2.2960000000000003
4.552451443999985,-0.4139583098,-0.2656033086,9.858429112,-0.49000000000000005,-1.54,-2.3800000000000003,-0.39038900719,-0.24729821571000002,9.87661456376,-1.1060000000000003,-1.6975000000000002,-2.303000000000001
4.562955461000001,-0.39960137419999997,-0.23210379219999996,9.9014999188,-0.42000000000000004,-1.6800000000000002,-2.3800000000000003,-0.39098721283999993,-0.24634108667000004,9.87673420489,-1.1060000000000003,-1.7045000000000001,-2.317000000000001
4.574457478999989,-0.3900300838,-0.24646072779999997,9.8321080634,-0.07,-1.8200000000000003,-2.5200000000000005,-0.39110685397,-0.24598216327999997,9.873384253249998,-1.0850000000000004,-1.7149999999999999,-2.313500000000001
4.584840496000027,-0.39960137419999997,-0.24885355039999998,9.896714273599999,0.0,-1.6800000000000002,-2.1700000000000004,-0.39026936605999996,-0.24502503423999994,9.875896716979998,-1.0885000000000005,-1.7185,-2.303000000000001
4.59699651599999,-0.36610185780000004,-0.2703889538,9.834500885999999,-17.85,-1.8200000000000003,-2.45,-0.38907295476000003,-0.24562323988999996,9.871589636299998,-1.9740000000000006,-1.7185000000000001,-2.3100000000000005
4.60781053300002,-0.39242290639999994,-0.22971096959999998,9.8799645154,0.0,-1.54,-2.31,-0.39026936605999996,-0.24574288101999997,9.87386281777,-1.9600000000000004,-1.7045,-2.3205000000000005
4.618784549999987,-0.3780659708,-0.24406790519999996,9.839286531199999,-0.7000000000000001,-1.8900000000000001,-2.31,-0.39014972493,-0.24574288101999997,9.87123071291,-1.9845000000000006,-1.7115000000000002,-2.317000000000001
4.629715567999995,-0.39481572899999995,-0.24406790519999996,9.8273224182,-0.07,-1.6800000000000002,-2.3800000000000003,-0.39014972493000005,-0.24466611084999995,9.869675378219998,-1.9880000000000007,-1.7114999999999998,-2.3170000000000006
4.640991585999984,-0.39242290639999994,-0.2584248408,9.887142983199999,-0.07,-1.8900000000000001,-2.1700000000000004,-0.39026936606,-0.2455035987599999,9.87063250726,-1.9985000000000006,-1.7255000000000003,-2.313500000000001
4.651679602999991,-0.39960137419999997,-0.22492532440000002,9.8680004024,-0.21000000000000002,-1.54,-2.1,-0.3905086483200001,-0.24287149389999993,9.868957531439998,-1.998500000000001,-1.7185,-2.3030000000000004
4.662643621000029,-0.39720855159999996,-0.2560320182,9.8632147572,-0.21000000000000002,-1.8200000000000003,-2.1,-0.39122649510000007,-0.24418754632999998,9.867641479009999,-1.995000000000001,-1.7220000000000002,-2.303000000000001
4.673175638000032,-0.35413774480000004,-0.23688943739999999,9.8632147572,-0.28,-1.6800000000000002,-2.1,-0.38919259589000005,-0.24346969955,9.86704327336,-1.1200000000000003,-1.7185,-2.2890000000000006
4.684162655000023,-0.3756731482,-0.23928225999999997,9.870393224999999,17.85,-1.54,-2.1700000000000004,-0.38991044267,-0.24490539310999998,9.86584686206,-0.2205000000000002,-1.7045000000000001,-2.2925000000000004
4.694814672000007,-0.3756731482,-0.23688943739999999,9.894321451,-0.21000000000000002,-1.7500000000000002,-2.31,-0.38955151928,-0.24442682859000006,9.867162914489999,-0.2135000000000001,-1.6975000000000002,-2.2925000000000004
4.706125690000022,-0.39960137419999997,-0.23928225999999997,9.889535805799998,-0.14,-1.9600000000000002,-2.45,-0.38919259589,-0.24466611084999998,9.8691968137,-0.23100000000000015,-1.7220000000000002,-2.3030000000000004
4.716566707000027,-0.4139583098,-0.23210379219999996,9.8727860476,-0.28,-1.61,-2.3800000000000003,-0.39003008380000004,-0.24442682859000006,9.869675378219998,-0.22400000000000006,-1.7114999999999998,-2.310000000000001
4.728007724999998,-0.37328032559999996,-0.23210379219999996,9.865607579799999,-0.28,-1.8900000000000001,-2.3800000000000003,-0.38871403137,-0.24394826407000006,9.867761120139999,-0.2240000000000002,-1.7255000000000003,-2.313500000000001
4.738762742999995,-0.38524443859999996,-0.23210379219999996,9.829715240799999,0.35000000000000003,-1.6800000000000002,-2.31,-0.38835510797999995,-0.24358934068,9.86728255562,-0.1890000000000001,-1.722,-2.317000000000001
4.749696760000006,-0.38524443859999996,-0.25124637299999997,9.865607579799999,-0.14,-1.7500000000000002,-2.5200000000000005,-0.3885943902399999,-0.24346969955,9.865966503189998,-0.17850000000000024,-1.7255000000000003,-2.317000000000001
4.760773777999987,-0.39481572899999995,-0.23449661479999998,9.870393224999999,-0.14,-1.54,-2.66,-0.3890729547599999,-0.24275185276999997,9.865487938669997,-0.16800000000000018,-1.7150000000000003,-2.3275000000000015
4.772159795999983,-0.3900300838,-0.23928225999999997,9.8751788702,-0.14,-1.61,-2.3800000000000003,-0.3878765434599999,-0.24143580033999995,9.866325426579996,-0.15050000000000008,-1.7185000000000001,-2.327500000000001
4.782656813000017,-0.4019941968,-0.2536391956,9.8680004024,17.85,-1.6800000000000002,-2.24,-0.3879961845899999,-0.24251257050999991,9.864650450759996,0.7629999999999999,-1.7185,-2.3205000000000005
4.795261832999984,-0.37088750299999995,-0.23210379219999996,9.839286531199999,-0.56,-1.7500000000000002,-2.24,-0.38703905554999996,-0.24179472373,9.865009374149997,0.7384999999999999,-1.7150000000000003,-2.3065000000000007
4.805942850000008,-0.39481572899999995,-0.24646072779999997,9.870393224999999,-0.07,-1.6800000000000002,-2.3800000000000003,-0.38679977329,-0.2416750825999999,9.863693321719998,0.7349999999999999,-1.7149999999999999,-2.317
4.817304868000008,-0.36370903520000003,-0.24646072779999997,9.8321080634,0.14,-1.6800000000000002,-2.1,-0.38668013216,-0.24047867129999992,9.863573680589997,1.6344999999999998,-1.7079999999999997,-2.2995
4.82789688500003,-0.39242290639999994,-0.24167508259999998,9.887142983199999,-0.35000000000000003,-1.6800000000000002,-2.24,-0.38668013216,-0.24107687694999988,9.863932603979999,1.6169999999999998,-1.7149999999999999,-2.2960000000000003
4.8392289029999915,-0.39720855159999996,-0.2536391956,9.8751788702,-0.07,-1.8200000000000003,-2.1700000000000004,-0.3876372612,-0.2415554414699999,9.865727220929998,1.6484999999999996,-1.7115000000000002,-2.2890000000000006
4.849929921000012,-0.38285161599999995,-0.22731814699999997,9.8727860476,-17.78,-1.8200000000000003,-2.1700000000000004,-0.38703905555,-0.24071795355999992,9.868000402399998,0.7629999999999999,-1.7185,-2.2785
4.860787937999987,-0.38285161599999995,-0.23928225999999997,9.882357337999998,-0.28,-1.8900000000000001,-2.31,-0.38656049103,-0.23976082451999997,9.867761120139997,0.7524999999999996,-1.7185000000000001,-2.2855000000000008
4.871670955000013,-0.38763726119999997,-0.24646072779999997,9.870393224999999,-0.49000000000000005,-1.8200000000000003,-2.1,-0.38596228538,-0.24083759469000002,9.867880761269996,0.7384999999999999,-1.7325,-2.2855000000000008
4.881646971000009,-0.35892339,-0.23210379219999996,9.877571692799998,0.0,-1.6800000000000002,-2.24,-0.38404802730000004,-0.23964118338999998,9.868598608049997,0.7489999999999997,-1.7254999999999998,-2.2925000000000004
4.892628989000002,-0.38763726119999997,-0.22492532440000002,9.8799645154,0.0,-1.7500000000000002,-2.3800000000000003,-0.38572300312,-0.23904297773999997,9.869436095959996,0.7629999999999997,-1.7289999999999999,-2.3065000000000007
4.901265002999992,-0.41156548719999997,-0.24646072779999997,9.8919286284,-0.14,-1.61,-2.45,-0.38751762007,-0.23940190113,9.870512866129996,-0.13650000000000004,-1.7325,-2.320500000000001
4.910330016999978,-0.40677984199999995,-0.22971096959999998,9.8991070962,0.42000000000000004,-1.7500000000000002,-2.45,-0.38907295476000003,-0.23904297774,9.870752148389997,-0.10499999999999998,-1.7325,-2.327500000000001
4.918799030999992,-0.38524443859999996,-0.25124637299999997,9.829715240799999,-0.07,-1.8200000000000003,-2.24,-0.38835510798,-0.23964118338999998,9.867761120139997,-0.10149999999999995,-1.7254999999999998,-2.317000000000001
4.927763045000006,-0.3756731482,-0.24885355039999998,9.889535805799998,-0.28,-1.6800000000000002,-2.5200000000000005,-0.38644084989999994,-0.24047867129999995,9.868598608049997,-0.10150000000000008,-1.7290000000000003,-2.3240000000000007
4.936447058999988,-0.39242290639999994,-0.28474588939999995,9.839286531199999,-0.28,-1.6800000000000002,-2.3800000000000003,-0.38739797893999994,-0.24311077615999993,9.867282555619997,-0.1015,-1.7185000000000001,-2.3240000000000007
4.94513807300001,-0.38763726119999997,-0.23928225999999997,9.8273224182,-0.35000000000000003,-1.6800000000000002,-2.31,-0.38751762006999996,-0.24346969954999995,9.867162914489999,-0.1365000000000001,-1.7185,-2.324000000000001
4.953825086999984,-0.39720855159999996,-0.23449661479999998,9.836893708599998,-0.07,-1.4700000000000002,-2.31,-0.38811582572,-0.24263221164,9.86572722093,-0.13300000000000006,-1.7045,-2.313500000000001
4.962430100999995,-0.38524443859999996,-0.2536391956,9.8632147572,-0.14,-2.1,-2.24,-0.38763726119999997,-0.24358934067999996,9.865368297540002,-0.13300000000000003,-1.7325,-2.2925000000000004
4.9710201149999875,-0.37328032559999996,-0.24167508259999998,9.918249676999999,0.21000000000000002,-1.61,-2.31,-0.38679977329,-0.24370898180999995,9.867521837880002,-0.1155,-1.7325,-2.2890000000000006
4.979594128000031,-0.39242290639999994,-0.2225325018,9.884750160599998,-0.35000000000000003,-1.7500000000000002,-2.45,-0.38632120877,-0.24215364711999995,9.868359325790001,-1.0255000000000003,-1.7360000000000002,-2.2995000000000005
4.98837714199999,-0.3756731482,-0.22731814699999997,9.848857821599998,0.07,-1.8900000000000001,-2.5200000000000005,-0.38656049103,-0.24191436485999995,9.868837890310001,-0.9940000000000003,-1.7430000000000003,-2.3135000000000003
4.997016156000029,-0.39960137419999997,-0.24167508259999998,9.8727860476,-0.07,-1.6800000000000002,-2.31,-0.38679977329000004,-0.24167508259999995,9.86895753144,-0.9940000000000003,-1.7429999999999999,-2.310000000000001
5.005753169999991,-0.38763726119999997,-0.23449661479999998,9.8727860476,-0.14,-1.6800000000000002,-2.5200000000000005,-0.38799618458999996,-0.24107687694999996,9.87099143065,-1.0080000000000005,-1.7429999999999999,-2.3310000000000004
5.014530184000023,-0.3900300838,-0.2727817764,9.858429112,0.0,-1.61,-2.24,-0.38787654345999995,-0.24263221163999998,9.86955573709,-0.9905000000000003,-1.7395,-2.3310000000000004
5.023099198000011,-0.37088750299999995,-0.2584248408,9.8751788702,0.28,-1.6800000000000002,-2.3800000000000003,-0.3865604910299999,-0.24287149389999999,9.86955573709,-0.9730000000000002,-1.7325,-2.341500000000001
5.031960212000001,-0.38285161599999995,-0.2703889538,9.8799645154,-0.28,-1.8200000000000003,-2.45,-0.3865604910299999,-0.24502503424,9.869914660479997,-0.09800000000000002,-1.7325,-2.3555000000000006
5.040642225999989,-0.41156548719999997,-0.24406790519999996,9.918249676999999,-0.28,-1.7500000000000002,-2.1,-0.3879961845899999,-0.2452643165,9.871709277429998,-0.09800000000000003,-1.7255000000000003,-2.3450000000000006
5.0492832400000225,-0.39960137419999997,-0.24406790519999996,9.8440721764,-0.42000000000000004,-1.8200000000000003,-2.31,-0.38859439024000003,-0.24514467536999995,9.870393224999997,-0.0945,-1.7255000000000003,-2.3555
5.0580352540000035,-0.4211367776,-0.2608176634,9.870393224999999,-0.35000000000000003,-1.9600000000000002,-2.31,-0.39170505961999996,-0.24658036892999996,9.870034301609998,-0.11200000000000002,-1.7395,-2.359000000000001
5.066823268000007,-0.39481572899999995,-0.2536391956,9.8727860476,0.07,-1.61,-2.24,-0.39206398301,-0.24801606248999994,9.869675378219998,-0.10850000000000001,-1.7325,-2.3520000000000003
5.075335282000026,-0.3900300838,-0.24406790519999996,9.870393224999999,0.28,-1.8900000000000001,-2.1700000000000004,-0.39098721284000004,-0.24789642135999998,9.868598608049997,-0.08750000000000004,-1.7465,-2.3380000000000005
5.084081296000022,-0.39481572899999995,-0.2584248408,9.822536773,-0.21000000000000002,-1.6800000000000002,-2.24,-0.39038900719,-0.24933211492,9.864770091889996,-0.11900000000000004,-1.7429999999999999,-2.3275000000000006
5.0926533090000135,-0.38763726119999997,-0.2536391956,9.851250644199999,-0.42000000000000004,-1.54,-2.3800000000000003,-0.39050864832,-0.24945175604999997,9.865846862059998,-0.1365,-1.7290000000000003,-2.3345000000000007
5.1013073230000145,-0.38524443859999996,-0.2536391956,9.8727860476,0.0,-1.6800000000000002,-2.3800000000000003,-0.39098721284000004,-0.24969103831,9.865009374149997,-0.12250000000000003,-1.7289999999999999,-2.3275000000000006
5.109800337000024,-0.3780659708,-0.2608176634,9.8727860476,-0.35000000000000003,-1.61,-2.1700000000000004,-0.39026936606,-0.24849462701,9.866684349969997,-0.126,-1.7255000000000003,-2.3170000000000006
5.118899350999982,-0.3780659708,-0.2536391956,9.853643466800001,-0.28,-1.7500000000000002,-2.5200000000000005,-0.38979080154,-0.24921247379000003,9.868000402399996,-0.12250000000000001,-1.7289999999999999,-2.327500000000001
5.127585365000016,-0.39242290639999994,-0.22731814699999997,9.834500885999999,-0.28,-1.8200000000000003,-2.5900000000000003,-0.38955151928,-0.2488535504,9.86788076127,-0.133,-1.7465,-2.341500000000001
5.136274378999985,-0.38763726119999997,-0.28235306679999994,9.8751788702,-0.14,-1.4700000000000002,-2.45,-0.38967116041,-0.25028924396,9.868478966919998,-0.13300000000000003,-1.7149999999999999,-2.352000000000001
5.1448473930000205,-0.3900300838,-0.2656033086,9.8608219346,-0.35000000000000003,-1.61,-2.24,-0.39050864832000004,-0.25148565526,9.8656075798,-0.16100000000000003,-1.7149999999999999,-2.348500000000001
5.153408407000029,-0.38524443859999996,-0.24406790519999996,9.8751788702,-0.42000000000000004,-2.0300000000000002,-2.3800000000000003,-0.39014972493,-0.25256242542999996,9.865129015279999,-0.16450000000000004,-1.7290000000000003,-2.345000000000001
5.1621484209999835,-0.37328032559999996,-0.23688943739999999,9.906285564,-0.28,-1.61,-2.5200000000000005,-0.3900300838,-0.25304098995,9.868000402399998,-0.18200000000000002,-1.7149999999999999,-2.345000000000001
5.170729434000009,-0.40438701939999994,-0.24885355039999998,9.8632147572,-0.28,-1.6800000000000002,-2.3800000000000003,-0.39026936605999996,-0.25339991334,9.86752183788,-0.19250000000000006,-1.7150000000000003,-2.348500000000001
5.1793244479999885,-0.39242290639999994,-0.23210379219999996,9.9014999188,-0.35000000000000003,-1.61,-2.1700000000000004,-0.39050864832,-0.25328027221,9.86895753144,-0.203,-1.7114999999999998,-2.331000000000001
5.188003461999983,-0.39960137419999997,-0.24406790519999996,9.906285564,0.0,-2.0300000000000002,-2.31,-0.39098721284,-0.25184457865,9.87135035404,-0.203,-1.7325,-2.334500000000001
5.196505476000027,-0.39720855159999996,-0.24646072779999997,9.8608219346,-0.07,-1.61,-2.1700000000000004,-0.39230326527,-0.25124637299999997,9.870632507260002,-0.22050000000000006,-1.7289999999999999,-2.3240000000000007
5.205127489999995,-0.38763726119999997,-0.24406790519999996,9.870393224999999,0.07,-1.7500000000000002,-2.45,-0.39254254753,-0.24993032056999995,9.87015394274,-0.203,-1.7254999999999998,-2.3240000000000007
5.215312506000032,-0.37328032559999996,-0.24885355039999998,9.8919286284,-0.21000000000000002,-1.6800000000000002,-2.1,-0.39062828944999994,-0.2501696028299999,9.868837890310001,-0.19950000000000004,-1.722,-2.3240000000000007
5.226714523999988,-0.37328032559999996,-0.24646072779999997,9.887142983199999,0.07,-1.4700000000000002,-2.3800000000000003,-0.38931223701999995,-0.25028924395999985,9.87099143065,-0.17500000000000004,-1.7045,-2.327500000000001
5.238689543000021,-0.3780659708,-0.24406790519999996,9.889535805799998,-0.42000000000000004,-1.54,-2.24,-0.3871586966799999,-0.2494517560499999,9.87194855969,-0.17850000000000002,-1.6835,-2.3240000000000007
5.255913571000008,-0.37088750299999995,-0.2679961312,9.9038927414,-0.35000000000000003,-1.61,-2.3800000000000003,-0.38596228538,-0.25016960282999995,9.873503894379999,-0.19950000000000004,-1.6835,-2.3310000000000004
5.2670615889999794,-0.3780659708,-0.2560320182,9.8440721764,-0.35000000000000003,-1.61,-2.24,-0.3853640797299999,-0.25076780847999997,9.872187841949998,-0.231,-1.6695,-2.3345000000000007
5.27771760600001,-0.38045879339999994,-0.24167508259999998,9.8608219346,-0.49000000000000005,-1.8900000000000001,-2.24,-0.38464623294999994,-0.24993032056999995,9.874102100029999,-0.24500000000000002,-1.6799999999999997,-2.334500000000001
5.289546625000014,-0.4019941968,-0.23928225999999997,9.8680004024,-0.28,-1.61,-2.3800000000000003,-0.3853640797299999,-0.24921247378999994,9.87493958794,-0.23800000000000007,-1.6834999999999998,-2.334500000000001
5.300476641999978,-0.39960137419999997,-0.2536391956,9.8991070962,17.85,-1.8200000000000003,-2.31,-0.3860819265099999,-0.24921247378999994,9.87625564037,0.6545,-1.6904999999999997,-2.331000000000001
5.311417660000018,-0.39242290639999994,-0.22492532440000002,9.846464998999998,-0.28,-1.61,-2.3800000000000003,-0.3867997732899999,-0.24741785683999998,9.874939587940002,0.6580000000000001,-1.6904999999999997,-2.341500000000001
5.3221696770000335,-0.39720855159999996,-0.2225325018,9.841679353799998,0.0,-1.61,-2.24,-0.38775690232999993,-0.24586252214999998,9.874341382290002,0.672,-1.6834999999999998,-2.327500000000001
5.333238695000034,-0.38045879339999994,-0.23688943739999999,9.8632147572,-0.35000000000000003,-1.7500000000000002,-2.31,-0.3871586966799999,-0.24634108667000004,9.87577707585,0.6685000000000001,-1.6799999999999997,-2.3135000000000003
5.343912712000019,-0.39242290639999994,-0.23449661479999998,9.889535805799998,-0.56,-1.8200000000000003,-2.24,-0.38739797893999994,-0.24394826407,9.876494922629998,0.6475000000000001,-1.6974999999999998,-2.303000000000001
5.355155729999979,-0.4019941968,-0.2536391956,9.858429112,-0.42000000000000004,-1.6800000000000002,-2.31,-0.38799618458999996,-0.24335005842000004,9.8763752815,0.6440000000000001,-1.701,-2.3065000000000007
5.365498746000014,-0.38763726119999997,-0.2608176634,9.884750160599998,0.07,-1.6800000000000002,-2.1700000000000004,-0.38811582572000003,-0.24418754633,9.876853846020001,0.6685000000000001,-1.6835,-2.2960000000000003
5.376846764999982,-0.3780659708,-0.24406790519999996,9.8680004024,-0.6300000000000001,-1.8200000000000003,-2.5200000000000005,-0.38835510798,-0.24454646971999994,9.87493958794,0.651,-1.6940000000000002,-2.2960000000000007
5.387608782000029,-0.38285161599999995,-0.24167508259999998,9.894321451,-0.42000000000000004,-1.7500000000000002,-2.5900000000000003,-0.38727833780999993,-0.24418754632999992,9.876494922629998,0.644,-1.6975000000000002,-2.3065000000000007
5.399106800000027,-0.38524443859999996,-0.28474588939999995,9.894321451,-0.42000000000000004,-1.6800000000000002,-2.5900000000000003,-0.38691941442,-0.2468196511899999,9.87613599924,0.6405000000000001,-1.701,-2.327500000000001
5.409540816999993,-0.37328032559999996,-0.24646072779999997,9.834500885999999,0.14,-1.61,-2.31,-0.38560336198999995,-0.24693929231999992,9.87254676534,0.6475000000000001,-1.6800000000000002,-2.3275000000000006
5.420917834000022,-0.38045879339999994,-0.25124637299999997,9.887142983199999,-0.35000000000000003,-1.8200000000000003,-2.24,-0.3847658740799999,-0.24717857457999998,9.87386281777,0.6335000000000001,-1.6905000000000001,-2.3310000000000004
5.431676850000031,-0.40677984199999995,-0.24167508259999998,9.839286531199999,0.14,-1.6800000000000002,-2.3800000000000003,-0.38572300311999996,-0.24705893344999996,9.872307483079997,0.6370000000000001,-1.687,-2.3275000000000006
5.442965866999998,-0.3756731482,-0.24646072779999997,9.8991070962,-0.7000000000000001,-1.6800000000000002,-2.3800000000000003,-0.3858426442499999,-0.24693929231999995,9.87266640647,0.6125000000000002,-1.687,-2.341500000000001
5.453707883999982,-0.38763726119999997,-0.215354034,9.8560362894,0.14,-1.4700000000000002,-2.5200000000000005,-0.3865604910299999,-0.24538395762999995,9.871111071779998,0.6160000000000002,-1.6869999999999998,-2.348500000000001
5.464818900000012,-0.40438701939999994,-0.2536391956,9.896714273599999,-0.42000000000000004,-1.7500000000000002,-2.1,-0.3878765434599999,-0.24586252214999993,9.87146999517,0.6160000000000002,-1.6975000000000002,-2.341500000000001
5.475418916000024,-0.40438701939999994,-0.23928225999999997,9.9086783866,-0.07,-1.54,-2.24,-0.3895515192799999,-0.24442682858999998,9.871709277429998,0.63,-1.6940000000000002,-2.334500000000001
5.48675993400002,-0.3756731482,-0.22492532440000002,9.896714273599999,-0.56,-1.61,-2.31,-0.38943187814999985,-0.2428714939,9.874341382289998,0.6195,-1.6939999999999997,-2.3380000000000005
5.497483950000003,-0.38285161599999995,-0.2584248408,9.8680004024,-0.07,-1.54,-2.24,-0.38955151927999987,-0.24370898181,9.87470030568,0.6405,-1.6765,-2.338000000000001
5.508631966999985,-0.39242290639999994,-0.2536391956,9.870393224999999,0.07,-1.6800000000000002,-2.45,-0.3890729547599999,-0.24442682859000003,9.874819946809998,0.658,-1.6800000000000002,-2.341500000000001
5.518917982000005,-0.40438701939999994,-0.2584248408,9.865607579799999,-0.49000000000000005,-1.7500000000000002,-2.24,-0.3893122370199999,-0.24466611084999998,9.873144970989998,-0.25900000000000006,-1.6765,-2.3380000000000005
5.530989000000034,-0.38763726119999997,-0.2727817764,9.8751788702,-0.21000000000000002,-1.6800000000000002,-1.9600000000000002,-0.3890729547599999,-0.24705893344999996,9.874580664549999,-0.2555,-1.6799999999999997,-2.3170000000000006
5.541392016000032,-0.38763726119999997,-0.2584248408,9.894321451,-0.07,-1.61,-2.31,-0.3885943902399999,-0.24885355040000007,9.877212769409997,-0.259,-1.6799999999999997,-2.3205000000000005
5.5524240330000225,-0.38285161599999995,-0.23688943739999999,9.8727860476,-0.07,-1.54,-2.31,-0.38871403136999993,-0.24885355040000007,9.877691333929995,-0.24500000000000005,-1.6695,-2.3205000000000005
5.562367047999999,-0.39481572899999995,-0.23449661479999998,9.884750160599998,-0.28,-1.61,-2.3800000000000003,-0.38883367249999995,-0.2488535504,9.877452051669994,-0.23100000000000004,-1.659,-2.3275000000000006
5.574006064999992,-0.3780659708,-0.2536391956,9.8799645154,-0.35000000000000003,-1.7500000000000002,-2.3800000000000003,-0.38763726119999997,-0.2488535504,9.878528821839996,-0.22749999999999998,-1.6625,-2.3310000000000004
5.584467081000014,-0.36849468039999994,-0.23928225999999997,9.848857821599998,-0.42000000000000004,-1.7500000000000002,-2.5200000000000005,-0.38668013215999997,-0.24777678023,9.876734204889997,-0.25199999999999995,-1.666,-2.3485000000000005
5.595615097999996,-0.40438701939999994,-0.25124637299999997,9.848857821599998,-0.14,-1.7500000000000002,-2.31,-0.38799618458999996,-0.24813570361999998,9.875777075849998,-0.22750000000000004,-1.6625,-2.3380000000000005
5.60632311400002,-0.38763726119999997,-0.24885355039999998,9.8799645154,-0.14,-1.8900000000000001,-2.1,-0.38823546685,-0.24849462700999997,9.875059229069999,-0.21350000000000002,-1.6694999999999998,-2.313500000000001
5.617504131000032,-0.3900300838,-0.27517459899999996,9.8799645154,0.14,-1.54,-2.45,-0.38847474910999996,-0.24801606248999994,9.874341382289998,-0.1855,-1.6625,-2.3065000000000007
5.628092147000018,-0.39481572899999995,-0.24167508259999998,9.858429112,0.07,-1.61,-2.1,-0.38955151928,-0.24777678022999994,9.875537793589999,-0.18900000000000003,-1.6625,-2.2960000000000007
5.640093164999996,-0.39720855159999996,-0.23449661479999998,9.853643466800001,-0.49000000000000005,-1.61,-2.45,-0.39038900718999997,-0.24693929231999995,9.87386281777,-0.196,-1.652,-2.3065000000000007
5.6509711809999885,-0.39242290639999994,-0.24406790519999996,9.8249295956,0.0,-1.61,-2.1,-0.38967116041,-0.2470589334499999,9.87314497099,-0.20299999999999999,-1.6484999999999999,-2.292500000000001
5.662344199000017,-0.4019941968,-0.2536391956,9.8560362894,-0.42000000000000004,-2.1700000000000004,-2.24,-0.39098721284,-0.24741785683999992,9.87099143065,-0.18900000000000003,-1.673,-2.2855000000000003
5.672999215000004,-0.38763726119999997,-0.23688943739999999,9.870393224999999,0.0,-1.8900000000000001,-2.3800000000000003,-0.39098721284,-0.24849462700999997,9.871709277429998,-0.196,-1.6939999999999997,-2.2785
5.684792232000007,-0.38524443859999996,-0.24167508259999998,9.896714273599999,-0.35000000000000003,-1.6800000000000002,-2.31,-0.3900300838,-0.24789642135999995,9.871709277429998,-0.19250000000000003,-1.6904999999999997,-2.2890000000000006
5.695561248999979,-0.38045879339999994,-0.24167508259999998,9.8608219346,0.0,-1.9600000000000002,-2.24,-0.3888336725,-0.24801606249,9.86931645483,-0.18900000000000003,-1.7115000000000002,-2.2890000000000006
5.706563265,-0.39481572899999995,-0.24406790519999996,9.8751788702,-0.28,-1.8200000000000003,-2.24,-0.38979080154,-0.24897319152999997,9.86823968466,-0.175,-1.722,-2.2855000000000008
5.717223281000031,-0.39242290639999994,-0.24406790519999996,9.8919286284,-0.49000000000000005,-1.61,-2.24,-0.39026936606,-0.2482553447499999,9.86943609596,-0.19600000000000004,-1.7255000000000003,-2.2855000000000008
5.728478298000027,-0.3900300838,-0.2560320182,9.882357337999998,-0.49000000000000005,-1.9600000000000002,-2.31,-0.39014972493,-0.24837498587999995,9.870034301609998,-0.22400000000000003,-1.7395000000000003,-2.2785000000000006
5.739404315000002,-0.39720855159999996,-0.26321048599999997,9.889535805799998,0.07,-1.61,-2.24,-0.38979080154000006,-0.24861426813999996,9.871230712909998,-0.19600000000000006,-1.7325,-2.2785000000000006
5.751897334000034,-0.37088750299999995,-0.26321048599999997,9.896714273599999,0.28,-1.8900000000000001,-2.24,-0.38895331362999996,-0.24813570361999998,9.872307483079998,-0.17150000000000004,-1.7430000000000003,-2.292500000000001
5.76248935000001,-0.3780659708,-0.2584248408,9.932606612599997,0.0,-1.61,-2.5900000000000003,-0.38847474910999996,-0.24813570362000004,9.874221741159996,-0.16800000000000007,-1.7429999999999999,-2.3065000000000007
5.77213036400002,-0.39481572899999995,-0.24885355039999998,9.8727860476,-0.07,-1.7500000000000002,-2.31,-0.38907295476,-0.24873390927,9.874221741159998,-0.16800000000000004,-1.7535,-2.3065000000000007
5.7832103810000035,-0.37088750299999995,-0.25124637299999997,9.894321451,-0.28,-1.6800000000000002,-2.3800000000000003,-0.38787654346,-0.24957139718,9.874700305679998,-0.168,-1.7570000000000001,-2.306500000000001
5.794167397000024,-0.4019941968,-0.24885355039999998,9.882357337999998,-0.14,-1.8200000000000003,-2.45,-0.38907295476,-0.24933211492,9.874819946809998,-0.15750000000000003,-1.7605,-2.310000000000001
5.804771413000026,-0.37328032559999996,-0.2225325018,9.865607579799999,0.0,-1.6800000000000002,-2.45,-0.38931223701999995,-0.24849462700999997,9.875657434719997,-0.1365,-1.7570000000000001,-2.3065000000000007
5.815809430000002,-0.39481572899999995,-0.24885355039999998,9.836893708599998,0.14,-1.54,-2.45,-0.38883367249999995,-0.24837498587999995,9.875059229069997,-0.12250000000000001,-1.7465,-2.3135000000000012
5.8261654460000045,-0.4019941968,-0.24885355039999998,9.853643466800001,-0.21000000000000002,-1.7500000000000002,-2.5200000000000005,-0.3895515192799999,-0.24837498587999995,9.873743176639998,-0.12600000000000003,-1.7395000000000003,-2.334500000000001
5.8371474620000185,-0.3756731482,-0.24406790519999996,9.834500885999999,-0.35000000000000003,-1.61,-2.1700000000000004,-0.3888336724999999,-0.2468196511899999,9.87146999517,-0.15050000000000002,-1.7429999999999999,-2.320500000000001
5.847929479000015,-0.38524443859999996,-0.25124637299999997,9.8440721764,-0.28,-1.7500000000000002,-2.5200000000000005,-0.3883551079799999,-0.24729821570999994,9.870752148389998,-0.168,-1.75,-2.341500000000001
5.858911495000029,-0.39481572899999995,-0.22731814699999997,9.8632147572,-0.07,-1.8900000000000001,-2.31,-0.38823546684999993,-0.24693929231999992,9.871230712910002,-0.147,-1.764,-2.334500000000001
5.86963651100001,-0.38285161599999995,-0.24406790519999996,9.8632147572,0.14,-1.61,-2.24,-0.38775690232999993,-0.24693929231999992,9.873144970990001,-0.13999999999999999,-1.7639999999999998,-2.341500000000001
