time,aX,aY,aZ,gX,gY,gZ,faX,faY,faZ,fgX,fgY,fgZ
0.19144042700008868,2.847458894,-9.200402896999998,0.8877371846000001,10.57,-33.67,-55.230000000000004,3.0543184077700003,-9.135796686799997,0.9498309310699998,52.920000000000016,-74.34,-5.733000000000001
0.20091439900033947,2.620140747,-9.547362174,1.3782658175999998,8.75,-27.230000000000004,-68.25,3.0205796091100003,-9.164271275739997,1.0144371412699997,50.001000000000005,-72.156,-12.043500000000002
0.21044937000033315,2.4191436485999995,-9.2937229784,1.5481562222,-1.6800000000000002,-14.770000000000001,-82.32000000000001,2.9625536610600003,-9.16917656207,1.0931610048099998,46.172000000000004,-68.929,-19.148500000000002
0.21992534200035152,3.5653056739999998,-8.779266119399999,0.24885355039999998,-33.6,-6.580000000000001,-104.93,2.97033033451,-9.13089140047,1.1051251178099997,40.453,-65.142,-27.317500000000003
0.22934431400017274,4.3884366484,-9.133403864199998,-1.6941184008,-19.950000000000003,-33.95,-111.23,3.05527553681,-9.103972146219999,1.0086943670299997,35.2135,-62.642999999999994,-35.3605
0.2418212760003371,7.252645300599999,-9.092725879999998,-0.7561319416,6.720000000000001,-64.19000000000001,-86.66000000000001,3.30975222032,-9.060781698289999,0.9699306409099997,31.101000000000006,-61.281500000000015,-40.768
0.2512762480000674,8.051848048999998,-8.3964145034,0.5359922624,12.670000000000002,-40.81,-61.74000000000001,3.6307493721100004,-9.01938586731,0.9943374314299998,26.971000000000004,-58.145500000000006,-44.474500000000006
0.26064222000013615,7.523034254399999,-8.386843212999999,1.8065810629999999,3.3600000000000003,11.48,-50.400000000000006,3.8804404104200003,-8.96758125802,1.0443474237699997,22.393000000000004,-52.34600000000002,-47.726
0.27004719100023067,5.175675283799999,-8.0566336942,0.8231309743999999,3.08,28.42,-52.71000000000001,3.9984065646000007,-8.88227713233,1.0372885971,18.333000000000006,-46.263000000000005,-50.687
0.27936516400041,4.8430729424,-8.006384419599998,1.8352949342,4.340000000000001,34.510000000000005,-62.440000000000005,4.07880540396,-8.830951087559999,1.0737791417500002,14.8435,-40.26750000000001,-53.88250000000001
0.2885851360001652,4.1802610821999995,-8.0733834524,2.0315063874,-1.12,43.82000000000001,-80.15,4.12235477528,-8.797690853419999,1.1200802590600003,11.305000000000001,-34.05500000000001,-57.85500000000002
0.2979021080000166,3.0675985731999997,-7.7742806274,2.1942183242,-24.01,46.2,-100.73,4.127858267260001,-8.736314953730002,1.1424531503700002,6.933500000000004,-27.993000000000006,-62.59750000000001
0.3074120790001871,3.1417760737999996,-7.597211754999999,2.2348963083999998,-42.910000000000004,40.67,-122.85000000000001,4.1599220901,-8.72805971576,1.16506532394,1.8829999999999987,-22.162000000000006,-66.76950000000001
0.31686805100025595,3.8931223702,-7.4847490928,2.2348963083999998,-68.95,42.28,-136.92000000000002,4.21531593329,-8.684510344440001,1.21483603402,-4.2735,-15.925000000000006,-71.17250000000001
0.32642502200042145,4.4817567298,-7.527819899599999,1.2777672683999999,-105.35000000000001,50.470000000000006,-146.72000000000003,4.277888244280001,-8.609375714799999,1.16458675942,-11.207,-9.45,-76.4855
0.33582999400005065,5.4771709314,-7.6139615132,0.0,-95.34,54.46000000000001,-142.17000000000002,4.360081700589999,-8.584849283149998,1.0549954843399998,-16.6635,-3.1955,-81.95250000000001
0.34528796600034184,7.908278692999999,-7.692924659,-0.8590233134,-89.04,42.14,-125.58000000000001,4.5678983434,-8.52514835928,0.9249455760299998,-21.5775,2.054499999999998,-86.6215
0.3548389370002951,8.5088771656,-7.5828548194,-0.8398807326,-69.58000000000001,29.120000000000005,-89.67,4.822255385779999,-8.454201169189998,0.7980063370999997,-24.8045,6.177499999999999,-88.83700000000002
0.36424090900027295,8.7266240222,-7.5948189324,-0.43788653580000003,-40.95,3.43,-75.39,5.0633322627299995,-8.347361640099999,0.7508677318799999,-26.922000000000004,8.473499999999998,-90.31050000000002
0.3737208800002918,7.9609207902,-6.955935298199999,0.0047856452,-27.44,1.8200000000000003,-53.13,5.301657393689999,-8.18955498963,0.7227520663300001,-28.52150000000001,10.381,-90.46100000000003
0.3834628510003313,6.798009006599999,-6.6855463444,0.3278166962,-19.810000000000002,-35.56,-38.57,5.499184899319999,-8.063812162,0.69475604191,-30.04050000000001,10.286499999999998,-89.62800000000001
0.3928938230001222,5.845665611799999,-6.632904247199999,0.33260234139999995,-28.490000000000002,-46.830000000000005,-45.080000000000005,5.66046114256,-7.918089265659999,0.6424728680999998,-31.90250000000001,9.306500000000002,-88.46950000000001
0.4024947940001766,5.737988594799999,-6.3601224707999995,-0.24167508259999998,-47.74,-65.45,-55.580000000000005,5.82640338987,-7.771409240279999,0.5529813028599999,-34.20550000000001,6.772499999999999,-87.13250000000002
0.4120057660002203,6.5850477951999995,-6.664010940999999,-0.9475577495999999,-67.2,-73.99000000000001,-64.33000000000001,5.97739049593,-7.66564648136,0.4931607378599999,-35.885500000000015,3.4019999999999984,-85.1025
0.421554737000406,5.6901321428,-7.144968283599999,-1.2825529135999998,-80.57000000000001,-65.38000000000001,-80.01,6.04247527065,-7.5662247023299996,0.51373901222,-38.9165,1.8304999999999971,-83.54150000000001
0.4310957080001572,5.185246574199999,-7.566105061199999,-1.3615160593999998,-93.31,-48.440000000000005,-105.28000000000002,5.93910533433,-7.489893661389999,0.4834698063299999,-43.91800000000002,2.6179999999999994,-84.4725
0.4404846800002815,6.4558353747999995,-7.4991060284,-0.17228322719999997,-111.79,-16.73,-110.95000000000002,5.859304700619999,-7.44502823764,0.4480560318499999,-50.141000000000005,3.8220000000000036,-86.933
0.4500916510000934,6.269195212,-7.661817965199999,-0.6053841178,-101.29,1.33,-119.70000000000002,5.796612748499999,-7.4087769752499995,0.32745777280999994,-55.373500000000014,3.3145000000000024,-90.398
0.4596456230001422,7.2957161074000005,-5.422136011599999,-0.6340979889999999,-97.44000000000001,7.490000000000001,-158.76000000000002,5.902614789679999,-7.27705209112,0.2545963246399999,-60.39950000000001,2.268000000000004,-95.7005
0.46914259400000446,8.2648092604,-5.204389154999999,-0.6843472635999999,-119.91000000000001,24.500000000000004,-158.97000000000003,6.073701605579999,-7.136952327889999,0.12861421475000004,-66.61200000000002,1.7674999999999987,-100.527
0.47862556600011885,6.9726850564,-8.283951841199999,-1.5577275125999999,-115.36000000000001,17.78,-80.29,6.213322804289999,-7.147480747329999,-0.05084748024999991,-72.32400000000003,0.46549999999999925,-100.53399999999999
0.48820753700010755,10.0115697584,-7.255038123199999,-2.2827527603999997,-132.65,30.380000000000003,-49.00000000000001,6.560521363549998,-7.121518622119998,-0.27469603447999996,-77.75600000000001,-0.3254999999999999,-97.9475
0.49771950900003503,5.582455125799999,-8.748159425599999,-2.1631116304,-121.10000000000001,43.89000000000001,5.250000000000001,6.682555316149999,-7.179066005649998,-0.4945964314199999,-81.66550000000002,-0.1644999999999996,-91.54250000000002
0.5079474780000055,6.1519469046,-3.7519458367999996,-0.27996024419999993,-107.24000000000001,45.92,-37.45,6.79549654287,-6.992425842849999,-0.6203392590499999,-83.58000000000001,0.01750000000000007,-86.56900000000002
0.5174984490004135,10.001998467999998,-7.183253445199999,0.1746760498,-109.9,44.38,9.520000000000001,7.07150862978,-6.975197520129998,-0.6754938199799999,-83.80750000000002,-0.286999999999998,-78.757
0.5269714210003258,10.179067340399998,-6.6137616663999985,-1.4620146085999999,-119.56000000000002,55.09,39.550000000000004,7.306603450229998,-6.9251875277899995,-0.7485945504099999,-85.0185,-0.2554999999999996,-69.671
0.5365513920000922,7.6139615132,-5.324030284999999,-3.5964123677999993,-139.58,74.55000000000001,64.61,7.291887591239998,-6.806742809089999,-0.8854640031299998,-87.54549999999999,1.3649999999999962,-60.16150000000001
0.5461193630003436,10.6337036344,-8.446663778,-5.8815579507999995,-106.96000000000001,44.17,73.5,7.398128914679999,-6.849933257019998,-1.1375478640399996,-89.4145,2.117499999999996,-52.00300000000001
0.5555353350000587,8.252845147399999,-8.0183485326,-3.620340593799999,-25.970000000000002,22.470000000000002,23.87,7.374439970939998,-6.871109737029997,-1.2966705669399998,-88.6655,3.069499999999999,-47.04000000000001
0.5655713050000486,9.1716890258,-6.3385870674,-2.8761727651999998,7.5600000000000005,29.890000000000004,-34.160000000000004,7.434978382719997,-6.840242325489998,-1.4407184874599999,-86.91550000000001,4.472999999999996,-46.09150000000001
0.5750282770000013,8.489734584799999,-5.8695938378,-2.0434705004,27.790000000000003,28.35,-40.39,7.519564661629998,-6.79944470016,-1.5592828472899996,-84.5355,7.668499999999999,-46.182500000000005
0.5844302479999897,7.8053873212,-5.950949806199999,-1.519442351,39.480000000000004,21.910000000000004,-50.260000000000005,7.6175507470999975,-6.765346978109998,-1.65188508191,-81.137,11.105500000000003,-46.441500000000005
0.593880220000301,8.4610207136,-5.730810127,-0.6340979889999999,38.150000000000006,15.120000000000001,-47.25000000000001,7.753702353039998,-6.73388136092,-1.6715062272299996,-76.8425,15.134000000000006,-46.025000000000006
0.6032251920000817,8.159525065999999,-5.958128274,-0.26321048599999997,26.6,4.2700000000000005,-41.160000000000004,7.8324262165799965,-6.698587227569999,-1.6372888640499994,-72.1525,19.047000000000004,-44.8665
0.6127651630004038,8.1092757914,-6.3003019058,-0.346959277,9.170000000000002,3.2900000000000005,-29.050000000000004,7.953383399009996,-6.656353908680001,-1.5905091822199997,-67.6655,22.480500000000006,-42.3185
0.6221821350000027,8.1140614366,-6.3361942448,-0.6795616184,-7.000000000000001,9.31,-25.55,8.099824142129997,-6.594858367860001,-1.5564114601699996,-63.35,25.368000000000006,-38.332
0.6314871070003392,7.044469734399999,-7.3962146566,-1.2035897677999998,-22.610000000000003,2.45,-46.690000000000005,8.129255860109998,-6.589713799269999,-1.6079767871999997,-58.891,26.327000000000005,-35.11900000000001
0.6412000780001108,8.6069828922,-4.529613181799999,-1.9405791285999996,-2.66,6.510000000000001,-52.99,8.246145244119997,-6.433103560099998,-1.6747365377399999,-53.959500000000006,26.586000000000006,-31.783500000000004
0.6506470500003161,7.1641108644,-6.6975104574,-1.7539389658,-7.910000000000001,6.510000000000001,-47.46000000000001,8.239564981969998,-6.496872282389998,-1.7307285865799997,-49.48300000000002,26.537000000000006,-26.218500000000006
0.6600430220000817,7.523034254399999,-5.845665611799999,-1.6079767872,3.5700000000000003,-3.5700000000000003,-45.43000000000001,8.202476231669998,-6.52893610523,-1.77691006276,-43.30900000000001,25.133500000000005,-20.541500000000006
0.6694719930001156,8.429914019799998,-5.970092386999999,-1.6366906583999998,9.100000000000001,2.8000000000000003,-49.07000000000001,8.27533767984,-6.41324313252,-1.7808582200499998,-37.086000000000006,24.384500000000006,-18.9805
0.6790359650003666,8.398807326,-5.9605210966,-2.4885355039999997,7.140000000000001,18.48,-54.53000000000001,8.194699558219998,-6.3485172811899995,-1.7911473572299996,-30.096500000000002,23.789500000000007,-19.257
0.6885519360002945,7.824529902,-6.171089485399999,-0.7202396026000001,10.430000000000001,0.6300000000000001,-57.540000000000006,8.306803297029997,-6.21966378418,-1.7190037558399998,-23.520000000000014,21.626500000000004,-22.396500000000003
0.6981479070000205,8.274380550799998,-7.1712893322,-1.4380863825999999,11.97,26.740000000000002,-67.97000000000001,8.412924979339998,-6.39063095895,-1.7769100627599996,-17.559500000000007,20.667500000000004,-23.922500000000007
0.70874087600032,8.6285182956,-6.764509490199999,-0.20578274359999998,16.87,37.660000000000004,-77.07000000000001,8.34425097072,-6.3696937612,-1.7959330024299995,-11.221000000000005,20.331500000000002,-28.252000000000002
0.7183068470003491,8.7673020064,-6.166303840199999,-0.32063822839999995,1.4700000000000002,28.910000000000004,-78.82000000000001,8.27366270402,-6.34732086989,-1.7388641834199994,-5.169500000000005,19.022500000000004,-34.17050000000001
0.7278238180001608,8.176274824199998,-4.9340002012,-0.0741775006,-0.77,10.430000000000001,-74.62,8.301778369569998,-6.3278193657,-1.5627524400600001,1.7710000000000004,15.816500000000001,-41.13200000000001
0.7373537900002702,8.1786676468,-5.778666578999999,-0.5886343596,-1.8200000000000003,-0.42000000000000004,-57.400000000000006,8.179026570189999,-6.194419505750001,-1.2981062605,7.0280000000000005,13.587,-47.67700000000001
0.7468097610003497,8.365307809599999,-5.1373901221999985,-0.2536391956,14.63,-8.610000000000001,-53.550000000000004,8.1846497033,-6.050371585230001,-1.1297711905900003,9.058,12.033000000000001,-51.548
0.756369733000156,8.6333039408,-4.7234318124,-1.0241280728,20.720000000000002,-16.17,-50.68000000000001,8.15773044905,-5.96961382248,-1.0371689559700001,9.716,9.73,-52.374
0.7658207040003617,8.781658942,-4.141975920599999,-1.5553346899999998,8.4,-13.650000000000002,-46.620000000000005,8.17232666691,-5.883232926620002,-1.0127621654499999,8.746500000000001,7.63,-52.685500000000005
0.7753526760002387,8.6069828922,-4.204189308199999,-1.3447663011999997,-3.0100000000000002,-1.7500000000000002,-58.870000000000005,8.212406445460001,-5.7958949017200005,-1.0040283629599998,6.622000000000002,6.446999999999998,-53.11600000000001
0.7848476470003334,9.401399995399998,-3.4671999473999997,-1.9118652573999997,-7.280000000000001,14.21,-63.35000000000001,8.25942540955,-5.68271439274,-1.0679167263799998,4.350499999999999,6.401500000000001,-53.92100000000001
0.7941336190001493,8.9946201534,-3.8452659182,-1.9118652573999997,-9.450000000000001,23.590000000000003,-44.45,8.301180163919998,-5.577071274949999,-1.1503494649499997,2.5480000000000005,7.3675,-54.0855
0.8033935920002477,7.8436724828,-3.397808092,-1.6510475939999998,-1.6800000000000002,13.650000000000002,-38.220000000000006,8.28789999849,-5.43194658426,-1.2155538807999997,2.0054999999999996,7.8855,-54.544000000000004
0.8128025630003322,8.9802632178,-4.1156548719999995,-1.7395820302,23.17,9.520000000000001,-47.6,8.33121008755,-5.32091961562,-1.26855490139,3.5140000000000002,7.896000000000001,-55.6465
0.8222435350003252,8.913264185,-4.1491543884,-2.2085752598,26.46,2.3800000000000003,-111.58000000000001,8.42464981008,-5.15856660221,-1.31880417599,5.967499999999999,7.892500000000003,-58.891000000000005
0.8317025070000454,11.018948072999997,-7.5517481256,-1.5218351735999998,34.230000000000004,13.23,-218.47000000000003,8.54524806912,-5.309673349400001,-1.29786697824,7.812,8.2285,-67.16499999999999
0.8411704780000946,0.9595218625999999,-3.8021951113999997,-2.0889341298,26.390000000000004,9.8,6.930000000000001,8.235018619029999,-5.164907582100001,-1.31461673644,9.527,8.393,-64.44550000000001
0.8506264500001635,8.427521197199999,-3.1154550251999997,-1.9357934833999997,16.450000000000003,14.560000000000002,-1.05,8.28024296617,-5.02839705277,-1.3310075712500002,10.171000000000001,9.2995,-62.2265
0.8600234220002676,7.908278692999999,-3.7710884175999997,-1.7659030788,15.400000000000002,4.550000000000001,5.74,8.254161199830001,-4.918446854299999,-1.33746819227,10.486000000000002,9.387000000000002,-59.486000000000004
0.8696393930003978,8.5974116018,-3.5868410773999995,-1.8329021115999997,-12.81,5.53,11.55,8.26409141362,-4.79976285334,-1.3046865226499997,9.488500000000004,8.739500000000001,-56.182000000000016
0.8790403650000371,8.956334991799999,-3.7304104334,-1.4309079148000001,-45.57000000000001,30.730000000000004,3.22,8.32068166811,-4.677728900739999,-1.34021993826,6.688500000000002,10.244500000000002,-53.144000000000005
0.8884753360002833,12.6364961506,-1.6271193679999998,0.045463629400000004,26.46,-63.77,-27.860000000000003,8.538787448099999,-4.400520402529999,-1.26604243766,7.413000000000001,5.719000000000001,-51.13850000000001
0.8979433080003218,9.3990071728,-4.754538506199999,-0.3278166962,-4.83,-69.58000000000001,-42.00000000000001,8.577311891959997,-4.300021853329999,-1.2721441352899998,6.328000000000001,0.3569999999999993,-49.385000000000005
0.9074092800001381,8.8438723296,-2.5986053435999996,-1.2681959779999998,-31.500000000000004,-57.400000000000006,-32.480000000000004,8.58114040812,-4.121636928499999,-1.3195220227699997,4.679499999999999,-3.958500000000001,-47.068000000000005
0.9168662510001013,9.9684989516,-1.8951154991999999,-2.0003996936,-34.230000000000004,-69.58000000000001,-200.69000000000003,8.67075161449,-3.969692693399999,-1.4158331324199998,3.0065000000000013,-7.959000000000001,-53.371500000000005
0.9270652210002481,-0.28235306679999994,-10.0546405652,1.7132609816,-35.980000000000004,3.5000000000000004,-110.60000000000001,8.24770057881,-4.183491392710001,-1.3007383653599995,1.2985000000000007,-7.763000000000001,-56.03150000000001
0.9365771920001862,-13.462019947599998,-23.1840581714,8.4251283746,8.4,-190.4,62.720000000000006,7.156334190950001,-5.085824795170001,-0.8667999868499999,0.9869999999999994,-16.852500000000003,-50.218
0.9460681640002804,47.99762853339999,3.337987527,-1.0336993632,147.35000000000002,71.47000000000001,-60.760000000000005,9.12455042058,-4.6827538282,-0.8672785513699998,7.3185,-12.470499999999998,-50.72200000000001
0.9554641350000566,12.878171233200002,2.4000010678,-0.9164510557999999,62.580000000000005,47.18000000000001,-51.17,9.329376035139997,-4.3556549787800005,-0.8353343696599997,10.027500000000002,-9.428999999999998,-50.94950000000001
0.9648141070001657,13.7060878528,-6.3361942448,-3.3954152693999995,56.21000000000001,57.61000000000001,-50.68000000000001,9.58433128317,-4.46225522561,-0.9378668180699998,12.988500000000002,-6.4609999999999985,-50.54
0.9742730790003407,6.0993048074,-3.6275190615999997,-0.2727817764,14.980000000000002,12.88,-36.190000000000005,9.419226523769998,-4.470271181319999,-0.8559126440199997,14.101500000000001,-6.527500000000001,-49.182
0.9836940510003842,7.221538606799999,-3.7639099497999995,0.18424734019999997,-31.500000000000004,-18.900000000000002,-31.570000000000004,9.33057244644,-4.4662033829,-0.7511070141399997,12.999,-8.652,-48.538000000000004
0.9932220220002819,7.8341011923999995,-3.2231320422,-3.2111679291999993,-57.89000000000001,-1.54,-31.360000000000003,9.33009388192,-4.45746958041,-0.8291130308999998,10.188500000000003,-9.4115,-48.19500000000001
1.0026469940003153,5.328815930199999,-0.9690931529999999,2.2277178405999996,-39.690000000000005,18.55,-99.54,9.147521517539998,-4.30014149446,-0.6307480373599997,7.045500000000002,-8.959999999999999,-50.79200000000001
1.0120959660002882,9.8632147572,-3.7974094662,-1.8735800958,-42.42,0.9100000000000001,-38.36000000000001,9.19501904615,-4.28255424835,-0.6139982791599998,3.6015000000000006,-9.0335,-47.131000000000014
1.0215939370000342,9.738787982,-2.4933211492,-1.184447187,2.45,12.39,-151.41000000000003,9.1310110416,-4.029632899529999,-0.5971288798299998,2.0125,-9.0755,-43.778000000000006
1.0310449090002294,25.875983596399998,-3.7375889011999996,0.5910271822,25.830000000000002,16.310000000000002,-42.49,10.37683412829,-4.02640258902,-0.4631308142300001,1.9845000000000002,-8.749999999999996,-46.24900000000001
1.0404948800000966,10.5571333112,-1.9094724347999998,-1.040877831,10.430000000000001,17.57,-27.580000000000002,10.48331473399,-3.966103459499999,-0.41838503161,1.6834999999999993,-8.5995,-47.575500000000005
1.0499798520004333,9.4492564474,-2.823530668,-1.722832272,8.610000000000001,10.920000000000002,-25.76,10.56036362171,-3.918725572019999,-0.4162314912699999,1.3439999999999994,-8.280999999999997,-49.15050000000001
1.0594028240002444,9.0400837828,-2.8642086522,-1.0480562988,12.39,7.98,-24.92,10.58249723076,-3.8825939507599996,-0.37698920062999997,2.603999999999999,-8.158499999999997,-50.97400000000001
1.0690437950001979,9.877571692799998,-2.6703900216,-1.3304093655999998,19.39,9.100000000000001,-29.120000000000005,10.628559065809998,-3.8295929301700005,-0.3719642731699999,5.852000000000001,-9.239999999999998,-52.59100000000001
1.0784997660002773,9.6598248362,-2.0650059038,-1.2514462198,51.660000000000004,11.270000000000001,-36.68000000000001,10.479725500089998,-3.85148725696,-0.43680976562999996,7.112,-5.487999999999999,-53.032000000000004
1.0879477380003664,9.822536773,-1.7204394494,-1.0839486377999998,55.580000000000005,17.78,-18.76,10.500901980099998,-3.6997823041200006,-0.47461636270999996,10.132500000000002,-1.1199999999999974,-51.86999999999999
1.097519709000153,9.6885387074,-1.5242279962,-1.0432706536,64.61,25.130000000000003,-24.85,10.543135298989998,-3.6460634367500004,-0.46337009649,14.938000000000002,3.006500000000001,-51.4885
1.1069056810001712,9.286544510599999,-2.3282163898,-1.1150553316,63.14000000000001,24.71,-10.15,10.509037576939999,-3.6677184812800006,-0.41910287839000004,19.8065,7.721000000000002,-41.9615
1.1164926520000336,10.703095489799999,-4.359722777199999,0.32303105099999996,54.18000000000001,15.120000000000001,-20.020000000000003,11.058310004769998,-3.3829725918799993,-0.48861437492000004,24.314500000000006,8.302000000000003,-37.432500000000005
1.1260676240003704,8.0853475654,-2.7038895379999994,-0.6604190375999999,71.4,13.370000000000001,-26.180000000000003,12.135678380419998,-2.3589641602099993,-0.9428917455300001,27.464500000000005,18.4905,-41.877500000000005
1.135545595000167,8.283951841199999,-0.9547362173999999,-1.0241280728,55.230000000000004,17.150000000000002,-42.980000000000004,10.14999454581,-2.5736003474299993,-0.94241318101,22.858500000000003,15.774499999999998,-40.9885
1.1449955670000236,9.0161555568,-2.5268206656,-0.41156548719999997,53.2,36.260000000000005,-16.310000000000002,9.95689376199,-2.819941434099999,-0.9171689025800001,22.3895,15.2285,-39.24550000000001
1.1544605380004214,7.683353368600001,-2.333002035,0.6053841178,51.24,52.57000000000001,-22.89,9.65575703778,-2.619781823609999,-0.7171289332200002,22.141,14.976500000000001,-37.856
1.1637945100001161,9.7938229018,-3.649054465,0.7561319416,55.300000000000004,32.970000000000006,-47.32000000000001,9.8404829425,-2.620858593779999,-0.6656832473200003,24.157000000000004,15.981000000000003,-38.4125
1.173491481000383,12.366107196799998,-4.3118663252,2.5292134882,46.480000000000004,23.1,-24.290000000000003,10.097711372000001,-2.6482564125499994,-0.5484349399200001,28.056,18.081000000000003,-38.048500000000004
1.1829344530001435,10.743773473999997,-2.6009981662,1.3423734785999997,28.560000000000002,-0.56,-43.75000000000001,10.24319498608,-2.61714971875,-0.3207578695300002,32.378499999999995,18.130000000000003,-38.66799999999999
1.1924384240001018,11.164910251599999,-4.740181570599999,1.6031911419999998,24.360000000000003,-10.360000000000001,-56.7,10.534999702149998,-2.8057041396299995,-0.35198420446000017,35.581,16.684500000000003,-36.525999999999996
1.2022163950000504,10.9639131532,-2.6464617955999996,1.7371892076,15.750000000000002,-16.94,-83.93,10.590034621949997,-2.7481567560999998,-0.17144573929000012,38.48950000000001,15.792000000000005,-38.804500000000004
1.2121683650002524,9.8057870148,-3.9433716447999996,2.2660030021999997,21.840000000000003,-28.210000000000004,-92.68,10.593384573589997,-2.82065928088,0.0010767701699998522,39.459,13.762000000000004,-35.86800000000001
1.221750336000241,9.8057870148,-3.9266218865999996,1.7252250945999998,42.14,-64.89,-91.14000000000001,9.789874744509998,-2.83011093015,0.05778666578999987,40.2745,9.702000000000004,-38.30050000000001
1.231179307000275,9.8727860476,-2.4909283265999997,-0.23688943739999999,53.900000000000006,-39.760000000000005,-84.28,9.755657381329996,-2.8591837247400003,0.09798608546999985,42.448,6.8355000000000015,-41.13549999999999
1.2405572790003134,9.2267239456,-1.9932212258,-1.3806586402,57.470000000000006,-46.06,-57.330000000000005,9.744530756239996,-2.81766825263,0.11509476705999999,44.891,3.9865000000000004,-42.714
1.2499442510002154,9.458827737799998,-1.2897313813999998,-2.1966111468,55.93000000000001,-30.380000000000003,-51.59,9.765467953989997,-2.73894438909,0.057667024660000024,47.068000000000005,2.0684999999999993,-44.04750000000001
1.259318223000264,9.3726861242,-1.2729816231999997,-2.1607188078,45.50000000000001,-6.0200000000000005,-59.43000000000001,9.740223675559996,-2.6690739691699994,0.016151552549999913,48.3735,1.312499999999998,-45.563
1.2688331940003081,9.166903380599999,-1.5314064639999998,-1.2945170265999997,29.960000000000004,16.87,-60.410000000000004,9.715577602779994,-2.6423939971799997,0.013998012209999976,47.28850000000001,1.592499999999999,-46.7495
1.2782941650002613,9.5425765288,-0.7130611348,-0.6005984726,21.42,5.040000000000001,-59.57000000000001,9.701579590569999,-2.592025081449999,0.03816552046999995,45.5805,0.9554999999999982,-48.79
1.2876781370000572,9.6885387074,-0.07178467799999999,0.0,30.94,-1.12,-61.32000000000001,9.701579590569997,-2.5194029155399997,0.09032905314999996,43.897000000000006,-0.3570000000000015,-50.6135
1.2976371070003552,9.9493563708,-0.5575276658,0.6963113766000001,40.74,-9.940000000000001,-59.36000000000001,9.734720183579999,-2.43086847934,0.18089738855999993,42.777,-2.0895000000000006,-53.07400000000001
1.3068210800001907,10.3992070196,-0.5024927459999999,0.873380249,40.74,-16.450000000000003,-35.910000000000004,9.719525760069997,-2.23800697778,0.20841484845999986,42.105000000000004,-3.6680000000000006,-53.86850000000002
1.3164960500002962,10.1742816952,-0.6628118601999999,0.9379864591999999,32.13,-26.250000000000004,-44.38,9.823972466559997,-2.13595309389,0.2883351232999999,40.14150000000001,-5.649,-54.77850000000002
1.3259910220003803,10.3872429066,-0.33499516399999996,1.0360921857999998,30.450000000000003,-31.360000000000003,-19.53,9.929137019829998,-2.10496604122,0.39134613622999986,38.90250000000001,-8.074500000000002,-53.60600000000001
1.3355059930004245,9.9110712092,-0.16271193679999998,0.5312066172,29.050000000000004,-30.94,-27.650000000000002,9.973882802449998,-1.9867606047800002,0.43848474144999994,37.69500000000001,-11.434500000000002,-54.173000000000016
1.3450359640000897,10.088140081599997,-0.2679961312,-0.5240281494,25.480000000000004,-33.95,-20.37,10.0941221381,-1.8835103095899999,0.3820141280899999,36.407000000000004,-15.760500000000002,-54.047000000000004
1.354583936000381,10.021141048799999,-1.2155538808,-0.09810572659999998,25.340000000000003,-36.400000000000006,-15.330000000000002,10.105488045449999,-1.7618352803800001,0.3393022446799999,34.909000000000006,-19.229000000000003,-52.447500000000005
1.364190907000193,9.839286531199999,-0.9020941201999999,-0.8470592004,8.610000000000001,-36.96,-14.14,9.97914701217,-1.5913466701299996,0.1704886102499999,33.01550000000001,-22.232000000000003,-51.94
1.3736178780000046,9.6526463684,-0.9738787981999999,-1.184447187,-13.090000000000002,-39.970000000000006,-18.900000000000002,9.924590656889999,-1.50999070173,0.04414757696999998,30.933000000000003,-24.2025,-50.6975
1.3831738500002757,9.2171526552,-0.5694917787999999,-1.7611174335999997,-49.910000000000004,-46.34,-23.450000000000003,9.827202777070001,-1.3014562121400002,-0.12406785180999999,27.219500000000004,-26.0015,-49.035
1.3926438210000924,9.611968384199999,-0.38285161599999995,-2.2755742925999995,-43.61000000000001,-53.06,-21.910000000000004,9.759605538619997,-1.18827570316,-0.32470602682000005,24.251500000000004,-27.807500000000005,-45.934000000000005
1.4021347920001972,9.643075077999999,0.15553346899999998,-3.1417760737999996,-43.400000000000006,-46.620000000000005,-19.46,9.751469941779998,-0.98333044747,-0.5950949806199999,20.9895,-28.728,-42.273
1.4115627640003368,9.0783689444,0.5168496816,-3.385843979,-26.53,-33.25,-23.520000000000003,9.71509903826,-0.7611568690599999,-0.8506484342999998,17.556,-27.146000000000004,-38.892
1.4211897350000982,8.7888374098,0.42592242280000003,-3.3643085755999995,-7.07,-1.2600000000000002,-29.750000000000004,9.660901606370002,-0.6153143315899999,-1.0070193912099998,14.507500000000007,-25.221,-36.1655
1.4306117070000255,8.293523131599999,0.5934200048,-3.0843483314,10.57,-3.2900000000000005,-22.540000000000003,9.614241565670003,-0.4859822700599999,-1.0922038757699999,12.162500000000005,-23.082500000000003,-34.426
1.4402066780003224,8.520841278599999,0.8877371846000001,-3.4193434953999997,23.660000000000004,7.700000000000001,-11.760000000000002,9.567342242710001,-0.37710884176000004,-1.1533404932,10.549,-21.178500000000003,-32.4345
1.4497646490003717,8.9204426528,1.0384850084,-2.7780670385999997,27.160000000000004,21.000000000000004,1.54,9.544730069140002,-0.26153551018000004,-1.1842079047399998,9.632000000000001,-19.827500000000004,-29.385999999999996
1.459193621000395,9.1716890258,0.8805587167999999,-2.0123638066,23.8,28.28,13.090000000000002,9.544969351400002,-0.14093725114000005,-1.22010024374,9.324000000000005,-19.257000000000005,-25.710999999999995
1.468659592000222,9.4444708022,1.3304093655999998,-1.4572289634,9.31,31.360000000000003,27.790000000000003,9.540064065070002,-0.03876372611999995,-1.2629317682799999,8.7185,-17.941000000000003,-21.342999999999996
1.4781835630001297,9.468399028199999,0.5503491979999999,-0.9236295236,-11.55,28.490000000000002,31.430000000000003,9.529057081109999,-0.007657032320000012,-1.3091132444599998,6.594000000000001,-16.460500000000003,-16.7055
1.487828534000073,9.403792818,-0.26321048599999997,-0.42592242280000003,-13.090000000000002,18.55,24.92,9.501778903469997,0.007058826670000007,-1.3652249344299998,3.902500000000001,-15.035999999999998,-12.491499999999998
1.497391504999996,9.164510558,-0.8422735552,-0.24885355039999998,-21.000000000000004,7.000000000000001,16.17,9.440044080389997,-0.009930213789999993,-1.4213366243999999,0.8155000000000013,-13.863500000000002,-9.8875
1.5075954750000164,8.719445554399998,-1.0576275892,-0.43788653580000003,-30.590000000000003,-0.9100000000000001,6.44,9.367302273349997,-0.029671000240000012,-1.4901302741499998,-2.3205000000000005,-12.596500000000002,-7.346499999999997
1.5172684460003438,8.662017811999998,-0.9116654106,-0.4881358103999999,-36.540000000000006,-1.4700000000000002,-0.49000000000000005,9.281041018619998,-0.058504512569999986,-1.5663416739599998,-5.670000000000002,-11.102,-6.394500000000002
1.5267494170002465,8.810372813199999,-0.9714859755999999,-0.18664016279999998,-45.57000000000001,-2.66,-5.670000000000001,9.226006098819997,-0.09894321450999992,-1.60223401296,-9.401000000000002,-9.687999999999999,-5.295500000000001
1.5363113880002857,9.288937333199998,-1.0432706536,0.6699903279999999,-41.86000000000001,4.83,-10.780000000000001,9.1860459614,-0.13770694063000002,-1.5425330890899998,-12.768000000000004,-7.749,-4.816000000000001
1.5457493600001726,8.8869431364,-0.08135596839999999,-0.20817556619999997,-26.6,7.210000000000001,-14.980000000000002,9.129336065779999,-0.08099704501000002,-1.5480365810699996,-15.365000000000004,-5.568500000000002,-4.798500000000001
1.5552643310002168,8.2097743406,0.29910282499999996,-0.179461695,-19.740000000000002,-5.74,-3.1500000000000004,9.04786045625,-0.020937197750000025,-1.5146567057999998,-16.782500000000006,-4.0074999999999985,-4.249000000000001
1.5647193030004019,8.817551280999998,-0.19142580799999998,-0.0669990328,-18.62,-9.940000000000001,3.7800000000000002,9.00610570188,0.018185451760000006,-1.4587842980899997,-17.059000000000005,-2.5060000000000002,-3.1149999999999993
1.5740932740000062,10.04985492,0.2608176634,-0.28235306679999994,-17.220000000000002,-7.7700000000000005,2.7300000000000004,9.04774081512,0.05970092386999994,-1.3848460797499995,-15.424500000000004,-0.5774999999999999,-1.8060000000000003
1.5835042460003024,8.6955173284,-0.047856451999999994,-0.4211367776,-9.38,-8.190000000000001,-2.7300000000000004,9.00191826233,0.07645068206999994,-1.2921242039999998,-13.713000000000003,1.6659999999999997,-0.8469999999999995
1.5928952180001943,9.1381895094,0.8135596839999999,-0.6460621019999999,-6.370000000000001,-10.71,13.650000000000002,8.9766739839,0.10935199281999994,-1.1673385054099996,-11.861500000000001,3.461500000000001,0.8084999999999999
1.6022851900002024,9.0735832992,0.1268195978,-0.8111668613999999,0.35000000000000003,-2.1,5.390000000000001,8.97643470164,0.08985048862999997,-1.0386046495299996,-10.517500000000002,5.019000000000003,2.254
1.6117761610003072,8.97308475,-0.6963113766000001,-0.6843472635999999,-7.140000000000001,-1.05,3.5000000000000004,8.98564706865,0.033738798659999965,-0.9046065839299999,-10.521,5.029500000000004,3.9165
1.621208132999982,8.0733834524,-0.7345965381999999,-0.32542387359999997,-35.21,-1.4700000000000002,7.07,8.974640084690002,-0.03266202849000001,-0.7666603610399999,-12.809999999999999,5.120500000000003,5.397
1.63056310400043,9.3966143502,-0.49531427819999996,-0.6077769404,-28.140000000000004,2.66,9.450000000000001,9.01842873827,-0.10181460163000004,-0.62608203329,-15.4,4.868500000000003,6.4575000000000005
1.6399890760003473,9.530612415799999,-0.47377887479999997,-0.1698904046,-29.470000000000002,3.99,5.11,9.04893722642,-0.17742779579000006,-0.49567320159,-18.2315,4.018000000000001,6.636
1.6493660480000472,9.458827737799998,-0.7896314579999999,0.05503491979999999,-12.110000000000001,6.300000000000001,3.7800000000000002,9.06329416202,-0.26093730452999997,-0.39230326527,-20.027,2.9190000000000014,6.170500000000001
1.6593280179999965,9.667003304,-0.6245266985999999,0.007178467799999999,5.53,9.100000000000001,10.64,9.074420787109998,-0.3586841077399999,-0.31908289371000004,-20.216,1.8060000000000003,5.313000000000001
1.6689219890004097,10.408778309999999,-1.2849457361999996,0.2584248408,15.540000000000001,9.170000000000002,13.3,9.121439751199997,-0.45044885444999994,-0.25998017549,-18.8615,0.8400000000000002,4.406499999999999
1.6783039609999832,9.812965482600001,-1.0097711372,0.26321048599999997,18.76,5.11,12.600000000000001,9.141898384429997,-0.4877768870099999,-0.22552353004999998,-17.269000000000002,0.16799999999999984,3.7905
1.687740931999997,9.829715240799999,-1.4309079148000001,0.48095734259999995,9.38,0.8400000000000001,18.41,9.175158618569998,-0.51720860499,-0.1890329854,-15.750000000000004,-0.13999999999999982,3.9025000000000007
1.6972279040001013,9.829715240799999,-1.6534404165999996,0.7513462964,-5.250000000000001,-0.35000000000000003,18.900000000000002,9.230672102889997,-0.5469992463599999,-0.12957134378999996,-14.483000000000004,-0.11199999999999996,4.525500000000001
1.7066838750001807,9.954142015999999,-1.8520446923999998,1.0671988796,-8.190000000000001,-0.77,13.020000000000001,9.295278313089998,-0.59401821045,-0.051804609289999956,-13.065500000000005,-0.07699999999999932,5.2010000000000005
1.7163178460000381,9.896714273599999,-2.0530417908,1.1485548479999999,-10.360000000000001,-2.0300000000000002,10.010000000000002,9.349595386109998,-0.64809600121,0.014955141250000026,-11.305000000000005,-0.04549999999999952,5.985000000000001
1.7257618180001373,9.8799645154,-1.9740786449999996,0.9260223461999999,-12.530000000000001,-5.11,10.430000000000001,9.379146745219996,-0.69463640078,0.027756742160000025,-9.838500000000003,-0.5424999999999994,7.045500000000001
1.7353167890000805,9.9373922578,-2.069791549,0.8997012976000001,-17.01,-7.3500000000000005,11.13,9.431669201289997,-0.7940581798099999,0.08315058535,-9.359000000000004,-1.2704999999999997,8.351
1.7447737600000437,9.705288465599999,-2.2516460665999998,0.5335994398,-25.340000000000003,-9.66,16.520000000000003,9.506444907539997,-0.9215956243900001,0.11880364209000002,-9.639000000000001,-1.4664999999999995,9.334500000000002
1.7542397320003147,10.301101293,-2.0003996936,0.4331008906,-27.300000000000004,-13.790000000000001,0.14,9.580622408139998,-1.0120443186699999,0.14380863826000004,-10.073,-1.659,9.1525
1.7637027030000354,9.219545477799999,-2.0171494518,0.057427742399999995,-24.71,-15.610000000000001,11.760000000000002,9.53910693603,-1.12594267443,0.16079767872,-10.447500000000002,-2.051,9.604000000000001
1.7732256750000488,9.142975154599998,-1.9453647737999997,-0.32303105099999996,-22.540000000000003,-21.42,-1.33,9.561479827340001,-1.22081809052,0.16570296505,-11.105500000000001,-2.7125,9.674
1.7826616460001787,9.0137627342,-1.7108681589999999,-0.6532405697999999,-11.55,-14.63,-13.370000000000001,9.55525848858,-1.34703948267,0.16534404166000002,-11.364500000000001,-2.9085000000000005,8.322999999999999
1.7921076180000455,8.822336926199998,-1.1198409767999997,-1.1246266219999999,-3.1500000000000004,-4.760000000000001,-28.28,9.54269616993,-1.4093725114000002,0.14967105362999997,-11.539500000000002,-3.0415,6.6395
1.8015115890002562,8.738588135199999,-1.0839486377999998,-1.0265208954,16.94,0.0,-36.190000000000005,9.53097133919,-1.42875437446,0.13256237203999993,-10.335500000000001,-2.989,4.654999999999999
1.8111465599999974,8.2145599858,-0.38045879339999994,-1.495514125,29.890000000000004,4.130000000000001,-39.34,9.538030165859999,-1.4110474872199998,0.07405785946999996,-7.0805000000000025,-2.709,2.3345
1.8205825320001168,8.618947005199999,0.20338992099999997,-0.7345965381999999,38.99,2.7300000000000004,-39.06,9.49914679861,-1.37611227726,0.06771687957999992,-3.7240000000000024,-2.7055,-0.09100000000000108
1.8299925040000744,9.054440718399999,0.5024927459999999,-0.7728816997999999,48.720000000000006,1.1900000000000002,-39.27,9.475338213739999,-1.3272986962199997,0.03756731481999994,0.1854999999999997,-2.8455000000000004,-2.310000000000002
1.8404244719999951,8.9898345082,0.6125625856,-0.8709874264,54.60000000000001,-0.49000000000000005,-35.910000000000004,9.45188855226,-1.2571889940399996,-0.008733802490000003,3.5209999999999995,-3.1850000000000005,-4.294500000000002
1.8499094440003319,9.0041914438,0.7202396026000001,-0.9092725879999999,50.470000000000006,-2.66,-32.480000000000004,9.41874795925,-1.18995067898,-0.054556355280000045,5.768000000000001,-3.7729999999999997,-6.4505
1.8593104149999817,8.975477572600001,0.6915257314000001,-1.1437692027999997,45.99,-4.69,-31.080000000000002,9.34708292238,-1.0911271056,-0.12466605746000006,7.2905,-4.465999999999999,-8.669500000000001
1.868837386999985,8.5926259566,0.7896314579999999,-1.2873385588,44.940000000000005,-2.1,-29.120000000000005,9.286065946079999,-1.0011569758399999,-0.20219350970000005,8.599499999999999,-4.826499999999999,-10.755500000000001
1.8783173580000039,8.6093757148,0.9451649269999999,-1.3686945271999997,45.150000000000006,0.9100000000000001,-29.960000000000004,9.225048969779998,-0.8823533337499999,-0.29467610319000004,10.388,-4.8229999999999995,-13.174000000000001
1.8877333300001737,8.480163294399999,0.9403792817999999,-1.5816557385999996,48.02,2.5200000000000005,-31.570000000000004,9.15757137246,-0.7526623488299999,-0.41132620494000005,13.051499999999999,-4.6795,-15.697500000000002
1.8970853020000504,9.1573320902,1.1916256548,-1.6055839645999996,54.040000000000006,4.2700000000000005,-35.42,9.117730876169997,-0.6004788314699998,-0.5449653471499999,16.163,-4.4275,-18.119500000000002
1.9065032729999984,8.717052731799999,1.3663017045999997,-1.5457633995999998,58.45,7.98,-38.150000000000006,9.058747799079999,-0.4295116567,-0.6796812595299999,19.6035,-3.9269999999999996,-20.527500000000003
1.9160352440003408,8.5926259566,1.6151552549999997,-1.6319050132,62.580000000000005,10.99,-37.45,8.994380871139999,-0.25004996169999993,-0.8075776275,23.359,-3.1220000000000003,-22.9215
1.9254152160001468,8.5806618436,1.7252250945999998,-1.6199409001999998,64.47000000000001,14.21,-18.200000000000003,8.92654435043,-0.06029912952000007,-0.9335597373899999,27.433,-2.0439999999999996,-24.387999999999998
1.934909188000347,8.506484342999999,1.7946169499999998,-1.5218351735999998,64.68,18.900000000000002,-36.050000000000004,8.8666041443,0.1420140213099998,-1.0363314680599998,31.934000000000005,-0.6160000000000005,-27.016499999999997
1.9443021590000171,8.219345631,1.8113667082,-1.4883356572,63.35000000000001,24.150000000000002,-36.89,8.762516361200001,0.3326023413999999,-1.1324032954499998,36.4665,1.2810000000000006,-28.867999999999995
1.9537081309999849,8.075776274999999,2.0099709839999997,-1.2586246875999998,66.92,28.210000000000004,-36.61000000000001,8.70532790106,0.53395836319,-1.19820591695,41.048,3.4720000000000004,-31.286499999999997
1.9631851020003523,7.850850950599999,2.1702900981999997,-1.2107682356,70.14,32.13,-33.46,8.640721690860001,0.7397411067899998,-1.24259277618,45.682,6.149500000000001,-32.893
1.9725750740003605,7.824529902,2.4047867129999996,-1.2729816231999997,74.27000000000001,36.96,-25.270000000000003,8.581260049250002,0.9455238503899999,-1.27357982885,49.973,8.729000000000003,-33.488
1.9819730460003484,8.329415470599999,2.4047867129999996,-1.2418749294,72.59,44.1,-17.430000000000003,8.55661397647,1.1217552348799997,-1.27944224422,53.760000000000005,11.172,-32.9455
1.9914230170002156,8.518448456,2.3018953412000003,-1.1629117836,66.29,47.67,-3.99,8.545606992509999,1.2910474338299998,-1.2862617886299998,56.2275,13.5555,-31.335499999999996
2.0008149889999913,8.6237326504,2.0602202586,-1.064806057,53.550000000000004,48.09,7.140000000000001,8.566065625739999,1.41308138643,-1.26472638523,57.4105,15.753500000000003,-29.0115
2.0103049610002017,8.697910150999999,1.8065810629999999,-1.0624132344,34.720000000000006,48.370000000000005,22.470000000000002,8.57001378303,1.4932409435299998,-1.28111722004,57.197,18.035500000000003,-25.934999999999995
2.019801932000064,8.626125472999998,1.4333007374,-1.1724830739999998,17.290000000000003,46.480000000000004,32.550000000000004,8.54859802076,1.5397813431,-1.3010972887499999,55.6255,20.3,-22.344
2.0297849020003014,8.5088771656,1.1485548479999999,-1.0815558152,5.040000000000001,42.7,35.84,8.524550153629999,1.56658095622,-1.3116257081899998,53.147499999999994,22.4595,-18.7565
2.0391968740000266,8.3964145034,1.0049854919999999,-0.8374879099999999,-1.33,40.46,38.290000000000006,8.49416130661,1.5808182506899997,-1.30803647429,50.55749999999999,24.615500000000004,-15.217999999999998
2.0486358450002626,8.3940216808,0.7728816997999999,-0.7728816997999999,-2.87,38.010000000000005,39.550000000000004,8.46508851202,1.5848860491099999,-1.2894920991399998,48.11449999999999,26.7505,-11.686499999999995
2.0581998160000694,9.1381895094,0.5312066172,-0.6699903279999999,-2.8000000000000003,36.330000000000005,39.830000000000005,8.492366689659999,1.5719648070699999,-1.2586246875999998,45.7275,28.672000000000004,-8.238999999999994
2.067682788000184,8.5974116018,0.5048855686,-0.5288137946,-2.5200000000000005,35.21,40.18000000000001,8.491768484009999,1.5499508391499996,-1.21663065097,43.344,30.387000000000008,-4.7319999999999975
2.0770547590000206,8.6787675702,0.39242290639999994,-0.46899322959999995,0.35000000000000003,35.42,42.42,8.501698697799998,1.5225530203799997,-1.1609975255199998,40.9605,32.032000000000004,-1.0324999999999982
2.0866177310003877,8.970691927399999,0.1387837108,-0.4211367776,2.7300000000000004,35.77,42.84,8.492366689659999,1.4699109231799998,-1.10177516617,38.394999999999996,33.607,2.8805
2.0961387020001894,8.8989072494,-0.12203395259999998,-0.26321048599999997,3.1500000000000004,37.24,41.440000000000005,8.501459415539998,1.3954941403199999,-1.0376475204899998,35.63,35.07000000000001,6.859999999999997
2.1055836740001723,8.97308475,-0.36849468039999994,-0.1459621786,1.12,40.53,38.150000000000006,8.520482355209998,1.2963116435499997,-0.9633503787600001,32.557,36.547000000000004,10.639999999999999
2.1150576450004337,9.147760799799999,-0.48574298779999997,0.215354034,2.24,41.86000000000001,35.56,8.548837303020001,1.1857632394299997,-0.8715856320499998,29.445500000000003,37.929500000000004,13.327999999999998
2.1246396160004224,9.152546444999999,-0.7920242806,0.6484549245999999,-0.9100000000000001,42.14,32.690000000000005,8.581140408120001,1.0564311778999997,-0.7630711271399999,26.166000000000007,39.0915,16.765
2.1341235880004206,9.379864591999999,-1.0241280728,0.849452023,-6.510000000000001,40.95,28.770000000000003,8.63916635617,0.9146564388499998,-0.64618174313,22.67300000000001,39.93149999999999,20.048000000000002
2.143550559000232,9.647860723199999,-1.1413763801999999,1.0384850084,-12.950000000000001,40.25000000000001,20.860000000000003,8.71777057858,0.7570890706399996,-0.5313262583299999,18.679500000000008,40.5335,22.9215
2.153002531000311,9.702895643,-1.5625131578,1.4644074312000002,-19.250000000000004,36.540000000000006,14.280000000000001,8.8103728132,0.5704489078399998,-0.39756747498999995,14.210000000000008,40.754,25.308500000000002
2.162537502000305,10.097711372000001,-1.6271193679999998,1.8999011443999998,-28.980000000000004,30.1,6.65,8.924031886699998,0.36885360378999993,-0.23892333661,9.0475,40.410999999999994,26.904500000000002
2.1719894730003944,10.576275892,-1.7898313048,1.8448662245999998,-45.220000000000006,21.35,4.41,9.03637490777,0.15912270290000002,-0.08458627891,3.1569999999999983,39.2735,27.996499999999997
2.1813714450004227,10.554740488599997,-1.7012968685999998,1.7850456595999997,-46.13,14.560000000000002,3.08,9.1381895094,-0.041036907589999935,0.06281159325000009,-2.4639999999999995,37.61800000000001,28.35
2.1907764160000625,10.4949199236,-1.4261222696,1.5577275125999999,-45.64000000000001,5.53,2.9400000000000004,9.23174887306,-0.21535403399999992,0.19393827173,-7.4235000000000015,35.49000000000001,28.140000000000004
2.200266388000273,10.533205085199999,-1.4021940436,1.2155538808,-39.06,1.1900000000000002,1.6800000000000002,9.32351361977,-0.37579278933,0.30783662748999996,-11.1125,33.13100000000001,27.1005
2.2097283590001098,10.509276859199998,-1.3471591237999998,1.0863414604,-31.220000000000002,1.33,-0.14,9.41767118908,-0.5148157823899999,0.42077785420999997,-13.538000000000002,30.873500000000007,25.466
2.219161331000123,10.554740488599997,-1.4165509792000002,0.7465606511999999,-26.250000000000004,4.550000000000001,-5.670000000000001,9.51996435523,-0.6430710737499999,0.5121836775299999,-15.102500000000001,28.966,23.3905
2.2285343020002983,10.341779277199999,-1.5529418674,0.8039883936,-23.380000000000003,8.47,-10.360000000000001,9.61723259392,-0.77096744172,0.59425749271,-16.205000000000002,27.36650000000001,20.958000000000002
2.2379862740003773,10.636096456999999,-1.5840485612,0.9834500885999999,-27.300000000000004,11.13,-18.340000000000003,9.72933633273,-0.88881395477,0.68207408213,-17.4265,26.0225,18.063500000000005
2.2474142450000727,10.621739521399999,-1.7898313048,1.256231865,-28.770000000000003,15.680000000000001,-26.250000000000004,9.80351383333,-1.00486585087,0.7783851917799999,-18.725,24.990000000000002,14.759500000000003
2.2568192170001566,10.5786687146,-1.9142580799999998,1.3974083984,-30.870000000000005,15.820000000000002,-37.800000000000004,9.90257668897,-1.1258230332999999,0.8746963014299997,-20.142500000000002,24.020500000000006,10.860499999999998
2.2663491880002766,10.660024682999998,-1.8616159827999998,1.6749758199999998,-30.310000000000002,15.750000000000002,-49.7,10.001639544609999,-1.23852497776,0.9818947539099998,-21.675500000000003,23.037000000000003,6.254499999999999
2.275755159000255,10.5571333112,-1.5864413838,1.7946169499999998,-26.880000000000003,15.330000000000002,-56.00000000000001,10.080961613800001,-1.32478623249,1.0926824402899997,-23.156000000000002,22.015000000000004,1.3125000000000018
2.2852491310000005,10.4997055688,-1.1724830739999998,1.8568303375999997,-26.67,14.280000000000001,-54.040000000000006,10.16100152977,-1.3773086885599999,1.1986844814699995,-24.647000000000002,20.867,-3.4614999999999982
2.2947241020001456,10.346564922399999,-0.09571290399999999,2.1152551784,-18.900000000000002,9.590000000000002,-51.52,10.22967553839,-1.36366959974,1.3117453493199995,-25.648000000000003,19.319999999999997,-7.9449999999999985
2.3041390740004317,10.269994599199999,-0.32303105099999996,2.0554346134,-12.740000000000002,6.23,-49.21000000000001,10.28578722836,-1.3555340028999998,1.4037493782899995,-26.397000000000002,17.538500000000003,-12.1835
2.3135570450003797,9.8440721764,-0.08614161359999999,2.0147566292,-9.31,3.2900000000000005,-46.27,10.320363514929998,-1.3202398695499997,1.4720644635199998,-26.817,15.596000000000004,-16.1315
2.322830017000342,9.5904329808,0.0263210486,1.8472590472,-9.73,0.9100000000000001,-42.63,10.33089193437,-1.2677174134799998,1.52195481473,-26.977999999999998,13.594000000000005,-19.701500000000003
2.332195989000411,9.468399028199999,0.5742774239999999,1.7898313048,-12.32,0.28,-42.63,10.321918849620001,-1.1819347232699997,1.55952212955,-26.946500000000004,11.5955,-22.875999999999998
2.341657960000248,9.4612205604,0.3278166962,1.3519447689999997,-18.69,2.5900000000000003,-52.36000000000001,10.30983509549,-1.0874182305699998,1.5538989964399996,-26.918500000000005,9.898,-26.208
2.351155930999994,9.001798621199999,-0.33020951879999993,1.8233308212,-28.210000000000004,7.07,-54.88,10.25503945795,-1.0225727381099996,1.5500704802799998,-26.880000000000003,8.746500000000001,-29.2845
2.3605719030001637,8.8558364426,0.5599204883999999,1.8281164663999998,-27.720000000000002,-0.07,-49.00000000000001,10.16901748548,-0.9050851484499999,1.54923299237,-26.005000000000003,7.6754999999999995,-31.955000000000002
2.3700238740002533,8.602197247,0.45702911659999995,1.6606188843999998,-15.750000000000002,-6.23,-40.88,10.0713903234,-0.7971688491900001,1.5430116536099998,-24.486000000000004,6.636000000000001,-34.153
2.379517845999999,8.3557365192,0.6819544409999999,1.4045868662,-5.11,-11.760000000000002,-34.09,9.96443115318,-0.6917650136600002,1.53535462129,-22.459500000000002,5.7715000000000005,-36.0045
2.3889948170003663,8.128418372199999,0.8015955709999999,1.2035897677999998,4.48,-14.560000000000002,-29.400000000000002,9.84419181753,-0.5815755329300001,1.53475641564,-20.282500000000002,4.984,-37.558499999999995
2.3983907880001425,7.910671515599999,0.8279166196,0.8350950873999999,4.83,-16.1,-23.94,9.71426155035,-0.47282174576000024,1.5221940969899999,-18.48,4.112500000000002,-38.7485
2.408401758000309,7.8676007087999995,0.8757730716000001,0.6867400861999999,-1.33,-15.120000000000001,-17.71,9.579904561360001,-0.35820554322000003,1.51920306874,-17.234,3.1290000000000004,-39.350500000000004
2.417872729999999,7.915457160799999,0.8901300072,0.7274180704000001,-8.05,-13.72,-12.110000000000001,9.45858845554,-0.23605194949000013,1.5153745525799998,-16.4675,2.0195000000000007,-39.438
2.427376701000412,7.984849016199999,0.8662017812,0.8638089586000001,-14.63,-10.22,-4.2700000000000005,9.3260260835,-0.11353943237000004,1.50939249608,-15.834,0.9520000000000011,-38.734500000000004
2.4368806720003704,7.8963145799999985,0.8446663778,0.9188438783999999,-17.78,-8.96,2.7300000000000004,9.18975483643,0.01818545176000001,1.4925230967499998,-15.284500000000003,-0.2799999999999997,-37.285500000000006
2.4464006430002883,8.1643107112,0.9451649269999999,1.1772687192,-18.900000000000002,-8.4,11.13,9.06903693626,0.16115660211,1.4815161127899998,-14.686000000000002,-1.4909999999999992,-34.839000000000006
2.4558416150002813,8.338986761,0.8877371846000001,1.2801600909999997,-18.200000000000003,-7.3500000000000005,34.720000000000006,8.952985040159998,0.2986242604799999,1.4617753263399997,-14.0805,-2.646,-30.618000000000006
2.4653415860002497,8.386843212999999,0.7824529901999999,1.3639088819999998,-15.750000000000002,-9.66,24.080000000000002,8.84447053525,0.4170689791799999,1.4402399229399998,-13.524000000000004,-3.8954999999999993,-26.613999999999997
2.474805557000309,8.6165541826,0.7776673449999999,1.4093725114,-12.600000000000001,-12.670000000000002,29.330000000000002,8.750312965939997,0.5145765001299999,1.4178670316299997,-12.820500000000004,-5.243,-22.445500000000003
2.4842565290000493,8.831908216599999,0.0167497582,1.4380863825999999,-11.340000000000002,-16.66,34.720000000000006,8.67458013065,0.52019963324,1.38400859184,-12.442500000000004,-6.5555,-18.133499999999998
2.4936455000001843,9.1453679772,0.3756731482,1.5457633995999998,-12.32,-20.44,36.260000000000005,8.61834879955,0.5551348432000001,1.3585250311499997,-12.4215,-7.889,-13.859999999999996
2.50348047100033,9.387043059799998,0.09571290399999999,1.423729447,-15.820000000000002,-21.98,35.42,8.59549734372,0.56422756908,1.32897367204,-12.747,-9.1525,-9.775499999999997
2.512897442000394,10.3920285518,-0.007178467799999999,1.1533404932,-16.8,-23.590000000000003,30.660000000000004,8.63557712227,0.5625525932600001,1.29427774434,-13.1005,-10.377500000000001,-6.110999999999997
2.5222404140004073,10.109675485,-0.021535403399999997,1.0504491214,-15.890000000000002,-23.450000000000003,27.930000000000003,8.66764094511,0.53276195189,1.2573086351699998,-13.279,-11.564000000000002,-2.582999999999994
2.531589386000178,10.372885970999999,0.0023928226,0.8422735552,-13.23,-21.98,27.930000000000003,8.713224215639999,0.51649075821,1.23182507448,-13.006,-12.7925,1.431500000000001
2.5410293570002978,10.564311778999999,-0.014356935599999999,0.6771687957999999,-6.510000000000001,-20.930000000000003,28.910000000000004,8.791349873529999,0.5322833873699999,1.1745169732099998,-11.921000000000001,-14.1925,5.6209999999999996
2.5504673290001847,10.803594039,-0.17706887240000002,0.5024927459999999,17.57,-18.48,30.1,8.888737753349998,0.49543391933,1.10823578719,-9.656500000000001,-15.113000000000003,9.575999999999997
2.5598753000003853,11.026126540799998,-0.4139583098,0.48335016519999996,6.370000000000001,-16.87,28.560000000000002,9.009934218039998,0.45188454800999994,1.04937235123,-8.550500000000001,-15.645000000000001,13.048000000000002
2.5692792720001307,11.1481604934,-0.8853443619999999,0.45463629399999994,12.670000000000002,-14.700000000000001,24.01,9.14955541675,0.37351960786000005,1.00187482262,-7.661500000000001,-15.791999999999998,15.953000000000003
2.578682243000003,11.5429762224,-1.2394821068,0.4139583098,16.73,-12.81,17.71,9.320283309259999,0.2714657239700001,0.9623932497200002,-7.0489999999999995,-15.7045,18.308500000000002
2.5881202150003446,11.679367110599998,-1.4691930763999999,0.24885355039999998,16.66,-11.620000000000001,10.010000000000002,9.50871808901,0.15661023917,0.93308117287,-6.457500000000001,-15.480500000000001,20.006
2.597529186000429,11.8109723536,-1.5026925928,0.1483550012,14.000000000000002,-10.57,6.23,9.705886671249997,0.037686955950000024,0.90616191862,-5.691,-15.253,21.203000000000003
2.6068891580002855,11.753544611199999,-1.5385849318,-0.007178467799999999,11.830000000000002,-8.260000000000002,3.08,9.897791043769999,-0.08374879099999996,0.86943209171,-4.697000000000002,-14.979999999999999,21.9625
2.616418129000067,11.679367110599998,-1.5457633995999998,-0.2009970984,10.360000000000001,-5.460000000000001,-17.85,10.08251694849,-0.20434705003999998,0.81619178886,-3.4475000000000016,-14.741999999999999,21.2835
2.6258561000004192,11.490334125199999,-1.5074782379999998,-0.27517459899999996,11.200000000000001,-0.35000000000000003,-5.6000000000000005,10.262217925749999,-0.32195428083000005,0.75649086499,-1.9985000000000006,-14.311499999999999,20.866999999999997
2.635414072000003,11.306086784999998,-1.2729816231999997,-0.20578274359999998,14.14,5.11,-8.190000000000001,10.419306729439999,-0.43286160834,0.68733829185,-0.34650000000000036,-13.636,19.901
2.6447830430001886,11.1792671872,-1.1509476706000001,-0.0765703232,35.7,9.170000000000002,-9.100000000000001,10.561320750749998,-0.5347958510999999,0.6195017711399999,2.348499999999999,-12.809999999999999,17.709999999999997
2.6543170140002985,11.078768638,-1.0073783146,0.1483550012,21.700000000000003,12.32,-11.340000000000002,10.695917021999998,-0.62428741634,0.5587240770999999,4.220999999999999,-11.710999999999999,15.938999999999998
2.663734986000236,10.868200249200001,-0.8662017812,0.38524443859999996,27.090000000000003,14.770000000000001,-14.980000000000002,10.808499325329999,-0.7064808726499999,0.50751767346,6.205500000000002,-10.338999999999997,13.723499999999996
2.6732679570000073,10.6695959734,-0.8470592004,0.4331008906,26.46,16.17,-19.46,10.90038371317,-0.7496713205799999,0.45726839886,8.0955,-8.6975,11.014499999999996
2.6827679280004304,9.810572659999998,-0.9858429111999999,0.6125625856,21.21,15.680000000000001,-26.6,10.93364394731,-0.8177471235499999,0.4106083581599999,9.772,-6.891499999999999,7.871500000000002
2.6921989000002213,10.191031453399999,-0.8949156524,0.7322037156000001,12.88,15.890000000000002,-33.11000000000001,10.97384336699,-0.8672785513700001,0.3760320715899999,11.207,-4.998000000000001,4.445
2.701730871000109,9.839286531199999,-0.7896314579999999,0.8685946038,2.8000000000000003,15.260000000000002,-39.550000000000004,10.946206265959999,-0.9064012008799999,0.3617947771199999,12.187000000000001,-3.0554999999999994,0.9345000000000006
2.7112008420003804,9.5330052384,-0.3062812928,0.9475577495999999,-1.1900000000000002,15.820000000000002,-40.32000000000001,10.917372753629998,-0.9206384953500001,0.35665020852999996,12.922000000000002,-1.0919999999999983,-2.4780000000000006
2.7207108140000855,9.248259348999998,0.17228322719999997,0.9236295236,-3.9200000000000004,15.890000000000002,-36.540000000000006,10.86114142253,-0.91214397512,0.36071800695,13.3875,0.8014999999999993,-5.7015
2.730125785000382,8.9946201534,0.47377887479999997,0.9332008139999999,-6.510000000000001,15.400000000000002,-33.74,10.782656841249999,-0.8877371846,0.37351960786,13.3875,2.618,-8.834000000000001
2.739606756000285,8.6907316832,0.8757730716000001,0.9714859755999999,-2.9400000000000004,13.160000000000002,-34.230000000000004,10.677013723459998,-0.8350950873999998,0.39696926934,12.362000000000004,4.200000000000001,-12.050500000000003
2.7491097280003487,8.446663778,1.2346964615999998,0.9643075077999999,-1.4000000000000001,10.500000000000002,-34.440000000000005,10.548040585319999,-0.7526623488299997,0.42101713647,11.973500000000003,5.5685,-15.200500000000002
2.7585536990000037,8.0733834524,1.4691930763999999,0.9619146851999999,3.0100000000000002,8.05,-33.67,10.394301733269998,-0.63493547691,0.44638105603,11.4905,6.706,-18.084500000000006
2.767963671000416,7.927421273799999,1.6941184008,1.0600204117999998,5.74,6.44,-31.150000000000002,10.213523985839998,-0.48825545153000016,0.47868416113,10.941000000000004,7.668500000000002,-20.527500000000003
2.778019640000366,7.609175867999999,1.7874384822,1.0528419439999999,6.0200000000000005,3.0100000000000002,-25.830000000000002,10.01001442371,-0.3254238736,0.5188835808100001,10.409000000000004,8.400000000000002,-22.3195
2.7875556110002435,7.444071108599999,1.8999011443999998,1.064806057,3.0100000000000002,0.9800000000000001,-19.810000000000002,9.791669361459999,-0.15529418674000012,0.5647061335999999,9.859500000000004,8.977500000000001,-23.621500000000005
2.7970085830002063,7.3052873978,1.9597217093999997,1.0313065406,-0.77,-1.2600000000000002,-10.99,9.569256500789999,0.019621145320000012,0.61663038402,9.229500000000002,9.327500000000002,-24.325000000000003
2.806561554000382,7.1712893322,1.9214365477999997,0.9116654106,-4.550000000000001,-4.41,-4.760000000000001,9.343852611869996,0.19298114268999988,0.6722635094699999,8.484000000000002,9.38,-23.670500000000004
2.8173465210002178,7.173682154799999,1.8592231602,0.8422735552,-6.16,-7.3500000000000005,0.9800000000000001,9.128020013349998,0.36131621259999996,0.7281359171799999,7.616000000000001,9.030000000000003,-23.341500000000003
2.8269384920004086,7.211967316399999,1.7802600144,0.8470592004,-6.930000000000001,-11.55,3.9200000000000004,8.923314039919997,0.51397829448,0.7807780143799999,6.562500000000002,8.197000000000001,-22.736
2.8362834640001893,7.1976103808000005,1.7180466268,0.8039883936,-8.190000000000001,-15.47,7.07,8.724231199599997,0.65742800935,0.8248059502199998,4.368,6.965000000000001,-21.927500000000002
2.845657436000238,7.238288364999999,1.6151552549999997,0.7489534737999999,-9.66,-18.270000000000003,10.500000000000002,8.532207185949996,0.7885546878299998,0.8548358738499999,2.8,5.4355,-20.835500000000003
2.8551564070003224,7.4033931244,1.5816557385999996,0.6604190375999999,-9.73,-21.07,14.14,8.358966829709999,0.91094756382,0.8685946037999999,0.9590000000000011,3.6435000000000017,-19.3795
2.8646023780001997,7.616354335799999,1.4404792052000002,0.6604190375999999,-8.190000000000001,-21.770000000000003,20.51,8.206304747829998,1.0253244841,0.87996051115,-0.7735000000000001,1.7465000000000004,-17.381000000000004
2.8739753500003644,7.8460653054,1.232303639,0.6580262149999999,-7.7700000000000005,-21.770000000000003,24.92,8.108079380099998,1.1362318116099999,0.8822336926200001,-2.2225,-0.1259999999999998,-14.805000000000001
2.883342322000317,8.2719877282,1.0480562988,0.6029912951999999,-8.680000000000001,-21.42,29.680000000000003,8.01212719384,1.2333804091699998,0.8757730716,-3.3005000000000004,-1.9914999999999998,-11.665499999999998
2.8926572940004007,8.571090553199998,0.8805587167999999,0.5599204883999999,-9.100000000000001,-21.700000000000003,34.230000000000004,7.948717394940002,1.3168899179099998,0.8603393658299998,-3.8954999999999997,-3.8394999999999997,-7.9765000000000015
2.9024912640002185,9.0664048314,0.040677984199999996,0.4331008906,-9.73,-22.400000000000002,39.2,7.9253873745900005,1.3342378817599996,0.83461652288,-4.3225,-5.750500000000001,-4.0005
2.911899235000419,9.489934431599998,0.33499516399999996,0.39481572899999995,-8.96,-21.840000000000003,40.53,7.937471128720001,1.3423734785999997,0.80817583315,-4.5745000000000005,-7.637000000000002,-0.1470000000000013
2.921319207000124,9.836893708599998,-0.5742774239999999,0.37328032559999996,-7.07,-19.950000000000003,39.550000000000004,7.979584806480001,1.2899706636599997,0.78017980873,-4.602500000000001,-9.404500000000002,3.5174999999999983
2.9307351780003046,10.181460162999999,-0.3158525832,0.48095734259999995,-4.83,-17.01,37.1,8.054121230469999,1.2303893809199997,0.75565337708,-4.696999999999999,-10.913,7.083999999999998
2.9401041500000247,10.6025969406,-0.6556333924,0.5024927459999999,-3.8500000000000005,-15.610000000000001,33.46,8.1619178886,1.1358728882199995,0.73256263899,-4.8195,-12.2185,10.479000000000001
2.9496811210001397,10.8059868616,-0.8973084749999999,0.5216353268,-3.3600000000000003,-13.790000000000001,31.640000000000004,8.29854805906,1.0175478106499998,0.71054867107,-5.138,-13.310500000000001,13.744500000000002
2.959066093000274,11.255837510400001,-1.1868400096,0.5814558918,-3.6400000000000006,-13.23,29.26,8.464968870889999,0.8734998901299997,0.6866204450699999,-5.607,-14.294000000000002,16.765
2.9684460640000907,11.4209422698,-1.3591232368,0.5934200048,-2.9400000000000004,-13.440000000000001,26.950000000000003,8.65555719098,0.7161718041799996,0.66364934811,-6.054999999999999,-15.116500000000002,19.404
2.977845036000417,11.602796787399997,-1.543370577,0.5503491979999999,0.42000000000000004,-14.490000000000002,25.970000000000002,8.86349347492,0.5440082181099998,0.6379265051599998,-6.1845,-15.890000000000004,21.693
2.9873630070001127,11.787044127599998,-1.8759729183999998,0.40917266459999996,1.8900000000000001,-14.14,20.23,9.08758131141,0.35222348672000015,0.6068198113599997,-6.051499999999999,-16.534000000000002,23.253999999999998
2.9968189790001816,11.8372934022,-2.3593230835999996,0.34217363179999993,-0.49000000000000005,-13.370000000000001,10.71,9.32088151491,0.13818550515000014,0.5783452224199997,-5.848499999999999,-16.982000000000003,24.0275
3.0063849500002107,11.983255580799998,-2.3521446158,0.3397808092,-2.7300000000000004,-11.340000000000002,-2.1700000000000004,9.561360186209999,-0.07238288364999998,0.5532205851199998,-5.676999999999999,-17.181500000000003,23.869999999999997
3.015859921000356,11.820543643999999,-2.0027925162,0.39720855159999996,-5.670000000000001,-9.940000000000001,-8.82,9.79178900259,-0.26153551018,0.53072805268,-5.614,-17.101,23.232999999999997
3.025415892000183,11.7296163852,-2.0291135648,0.3613162126,-6.580000000000001,-8.4,-14.700000000000001,10.018389302809998,-0.44889351976,0.5085944436300001,-5.533499999999998,-16.747499999999995,22.1445
3.034897863000424,11.5764757388,-1.8017954178,0.37328032559999996,-5.11,-5.11,-19.880000000000003,10.235298671499999,-0.6197410534,0.48981078622000007,-5.305999999999999,-16.089499999999997,20.6255
3.044327835000331,11.322836543199998,-1.6797614652,0.31106693799999996,-2.66,-3.7800000000000002,-22.610000000000003,10.431270842439998,-0.7828119135899999,0.47234318123999997,-4.952499999999999,-15.224999999999998,18.788
3.05389780600035,11.066804525,-1.4548361408000001,0.22971096959999998,-4.130000000000001,-0.9800000000000001,-26.110000000000003,10.603793351899998,-0.9275776808899998,0.45080777784,-4.749499999999999,-14.185500000000001,16.457
3.063399777000086,10.748559119199998,-0.6364908115999999,0.31824540579999994,-10.99,3.43,-29.19,10.748918042589997,-1.0210174034199997,0.4338187373799999,-4.910499999999999,-12.925500000000003,13.751500000000002
3.072822749000352,10.671988796,-0.8566304908,0.2895315346,-34.720000000000006,10.080000000000002,-33.32,10.868918095979998,-1.1162517429,0.41814574935,-6.2125,-11.3505,10.601500000000001
3.0822717200003353,10.346564922399999,-0.9020941201999999,0.41874395499999995,-19.950000000000003,12.110000000000001,-34.86000000000001,10.957691814439999,-1.2053843847499999,0.4110869226799999,-6.755000000000001,-9.66,7.147
3.091784691000157,10.4039926648,-0.5479563754,0.5886343596,-22.400000000000002,13.650000000000002,-37.940000000000005,11.024571206109998,-1.23481610273,0.4188635961299999,-7.3885000000000005,-7.857499999999999,3.2900000000000005
3.101308662000065,10.071390323399998,-0.5407779076,0.057427742399999995,-23.17,14.14,-38.92,11.0536440007,-1.2786047563099998,0.4019941967999999,-8.099,-6.058499999999999,-0.6824999999999981
3.1106816340002297,9.2027957196,-0.36849468039999994,0.5934200048,-26.390000000000004,12.740000000000002,-39.760000000000005,11.021939101250002,-1.2683156191299998,0.41300118076,-9.065000000000001,-4.4239999999999995,-4.647999999999999
3.1201506050001626,9.537790883599998,-0.08135596839999999,0.5934200048,-32.410000000000004,14.490000000000002,-38.92,10.989755637280002,-1.25659078839,0.41862431387,-10.444000000000003,-2.8489999999999998,-8.448999999999998
3.129717577000065,9.131011041599999,0.0526420972,0.6628118601999999,-20.160000000000004,15.96,-34.790000000000006,10.916176342330001,-1.22117701391,0.42664026958,-11.259500000000001,-1.2705000000000002,-11.861500000000001
3.139134548000129,8.8917287816,0.39720855159999996,0.8087740387999999,-26.180000000000003,9.8,-33.67,10.82046343833,-1.15645116258,0.4409972051800001,-12.400500000000003,-0.09099999999999983,-15.127000000000004
3.14924451700017,8.8701933782,0.3062812928,0.9810572659999999,-19.53,9.170000000000002,-32.900000000000006,10.70118123172,-1.0817950974600001,0.46097727389000004,-13.195000000000002,1.0289999999999997,-18.235000000000003
3.1586594890000015,8.0662049846,0.5383850849999999,0.9451649269999999,-16.94,9.520000000000001,-32.830000000000005,10.533444367460001,-0.9869196813699999,0.47856452000000005,-13.895000000000001,2.1770000000000005,-21.224000000000004
3.168198459999985,8.4251283746,0.6723831505999999,1.0600204117999998,-18.62,10.920000000000002,-34.02,10.37456094682,-0.8761319949899999,0.5040480806900001,-14.847000000000003,3.4475000000000007,-24.223500000000005
3.177691431000312,8.262416437799999,0.8877371846000001,1.0935199281999999,-24.92,13.510000000000002,-31.990000000000002,10.198329562329999,-0.7379464898399999,0.53826544387,-16.187500000000004,4.83,-26.8345
3.187068403000012,7.9992059518,0.7202396026000001,1.0695917021999999,-35.28,16.17,-26.53,10.006425189809999,-0.5839683555299999,0.57463634739,-17.927000000000003,6.307,-28.696500000000004
3.1965323740000713,7.6905318364,0.5048855686,1.1150553316,-32.550000000000004,14.350000000000001,-21.42,9.79178900259,-0.44111684631000003,0.6134000735099999,-19.418000000000003,7.591500000000001,-29.659000000000002
3.2059753450002972,7.657032319999999,0.7345965381999999,1.3686945271999997,-23.17,5.53,-19.110000000000003,9.583613436390001,-0.30424739358999997,0.6619743722899999,-20.293000000000006,8.365,-30.173499999999997
3.215427316000387,7.6905318364,0.861416136,1.4668002538,-11.13,-1.12,-13.930000000000001,9.381659208950001,-0.15972090855000004,0.71724857435,-20.520500000000006,8.729,-30.134999999999998
3.224828288000026,7.601997400199999,0.9858429111999999,1.4428720278,-6.0200000000000005,-5.95,-8.89,9.18293529202,-0.02033899209999998,0.7707281594600001,-20.566000000000003,8.687000000000001,-29.585500000000003
3.2342382589999943,7.640282561799999,1.0911271056,1.1150553316,-3.5000000000000004,-8.47,-4.83,8.998807592949998,0.11820543644,0.81092757914,-20.608000000000004,8.452500000000002,-28.696500000000004
3.243427231000169,7.5349983674,0.8327022647999999,1.1365907349999997,-1.1900000000000002,-10.920000000000002,-1.61,8.82221728507,0.23258235672,0.8562715674100001,-20.461000000000006,7.955500000000001,-27.471500000000002
3.252874203000374,7.702495949399999,0.9667003303999999,1.0791629926,2.5200000000000005,-11.690000000000001,1.1900000000000002,8.669914126579998,0.31274191382,0.89431744675,-19.785500000000006,7.1995000000000005,-25.952500000000004
3.262242174000221,7.680960546,0.7609175867999999,1.0360921857999998,5.53,-13.440000000000001,5.040000000000001,8.520362714079997,0.39361931769999997,0.9316454793100002,-17.773000000000003,6.023500000000001,-24.034500000000005
3.27182014500022,7.647461029599999,0.6723831505999999,1.0145567824,10.500000000000002,-16.59,10.360000000000001,8.38540751944,0.47234318123999997,0.9614361206800002,-16.250500000000002,4.588500000000001,-21.773500000000006
3.2811971170003744,7.802994498599999,0.5264209719999999,1.0001998468,12.39,-20.720000000000002,13.72,8.255357611129998,0.5260620486099999,0.9820143950400002,-14.511000000000001,2.870000000000001,-19.1905
3.2905430880000495,7.9298140963999995,0.4474578262,0.8781658942,12.530000000000001,-23.380000000000003,17.360000000000003,8.148278799779998,0.5754738353000001,1.02305130263,-12.726000000000003,0.9940000000000009,-16.3765
3.3000680590002958,8.0590265168,0.36849468039999994,0.8111668613999999,11.06,-24.64,19.950000000000003,8.09109033964,0.61232330334,1.0339386454600001,-10.8535,-0.8749999999999998,-13.391000000000002
3.309454031000314,8.3796647452,0.37088750299999995,0.5814558918,10.850000000000001,-24.990000000000002,20.720000000000002,8.03318403272,0.6349354769100001,1.0333404398100001,-8.6905,-2.849,-10.408999999999999
3.3194110010003897,8.5758761984,0.22731814699999997,0.5886343596,11.200000000000001,-25.410000000000004,21.07,8.00542729056,0.6436692794,1.0296315647800003,-7.122500000000002,-4.917500000000001,-7.616000000000001
3.328947972000151,8.9826560404,0.2225325018,0.49770710079999997,12.32,-24.220000000000002,21.14,8.0099736535,0.6349354769100001,1.01407821788,-5.197499999999998,-6.6185,-4.875500000000003
3.338372943000195,9.272187575,0.2177468566,0.45702911659999995,14.700000000000001,-23.17,19.950000000000003,8.03007336334,0.6305087550999999,0.9878768104100001,-3.4859999999999993,-8.235500000000002,-2.2330000000000014
3.347676915000193,9.571290399999999,0.08853443620000001,0.44267218099999994,20.930000000000003,-22.26,19.180000000000003,8.105327634110001,0.60801622266,0.9627521731099999,-1.5924999999999991,-9.8245,0.36749999999999705
3.3570788860001812,9.8177511278,0.04307080679999999,0.47138605219999996,25.480000000000004,-20.37,19.6,8.17495877177,0.57655060547,0.93332045513,0.6125000000000023,-11.389000000000001,3.0485
3.3665838570000233,10.097711372000001,-0.040677984199999996,0.4881358103999999,28.28,-18.900000000000002,19.67,8.26672351848,0.53012984703,0.90305124924,3.272500000000001,-13.009499999999997,5.631500000000001
3.376201828000376,10.375278793599998,-0.179461695,0.48095734259999995,30.240000000000002,-17.64,19.110000000000003,8.385527160569998,0.48514478215,0.8736195312599998,6.5485000000000015,-14.699999999999998,7.913500000000002
3.38565779999999,10.6384892796,-0.27996024419999993,0.5288137946,31.220000000000002,-18.130000000000003,16.66,8.53292503273,0.44590249150999994,0.8443074544099998,9.737000000000002,-16.323999999999998,9.817500000000003
3.395168771000044,10.9519490402,-0.4450650036,0.46660040699999994,30.03,-18.270000000000003,12.040000000000001,8.69767086874,0.3869194144199999,0.7992027483999997,12.397000000000002,-17.514,11.375
3.4046647420000227,11.1553389612,-0.5766702466,0.22731814699999997,30.240000000000002,-19.67,8.680000000000001,8.870911224979999,0.31501509528999994,0.7372286430599998,14.465500000000002,-18.441499999999998,12.505500000000001
3.4140757130003294,11.4783700122,-0.6173482307999999,0.021535403399999997,30.800000000000004,-20.160000000000004,5.040000000000001,9.06472985558,0.23485553819,0.6661618118399998,16.306500000000003,-19.152,13.202000000000002
3.4235196850004286,11.583654206599999,-0.7728816997999999,-0.17706887240000002,30.660000000000004,-19.67,0.9800000000000001,9.261898437819998,0.14165509791999997,0.6015556016399999,18.014500000000005,-19.712,13.492500000000001
3.4330356560003565,11.743973320799999,-0.693918554,-0.3780659708,30.590000000000003,-17.64,-2.9400000000000004,9.472347185489998,0.06532405698000002,0.5258227663499999,19.603500000000004,-20.048,13.426000000000002
3.44257062700035,11.751151788599998,-0.693918554,-0.38524443859999996,29.330000000000002,-14.14,-7.98,9.674779977449997,-0.01770688723999998,0.45260239479,20.944000000000003,-20.170499999999997,12.967500000000001
3.452044598000157,11.6482604168,-0.6867400861999999,-0.4474578262,28.490000000000002,-10.360000000000001,-12.32,9.873144970989998,-0.09008977088999996,0.37842489419,22.092000000000006,-20.0165,12.099500000000004
3.461451569000019,11.5310121094,-0.5551348432,-0.5000999234,27.37,-8.610000000000001,-18.200000000000003,10.067322524979998,-0.15146567057999996,0.3026920589,22.935500000000005,-19.617500000000003,10.6715
3.47103154000024,11.4161566246,-0.5503491979999999,-0.5575276658,25.55,-5.53,-21.630000000000003,10.247980631279997,-0.20530417907999995,0.22480568327,23.593500000000006,-18.858,8.904
3.4805205110001225,11.3013011398,-0.39960137419999997,-0.8446663778,22.26,-3.8500000000000005,-24.570000000000004,10.416554983449998,-0.24765713910000003,0.13866406967000003,24.080000000000002,-17.881500000000003,6.807500000000002
3.4899404830002823,11.057233234599998,-0.1531406464,-1.0025926694,17.64,-0.7000000000000001,-27.160000000000004,10.56646531934,-0.27373890544,0.04797609312999999,24.409000000000002,-16.6845,4.452000000000001
3.4993494540003667,10.875378717,-0.04307080679999999,-1.1365907349999997,15.190000000000001,1.7500000000000002,-30.800000000000004,10.69125101793,-0.29443682093,-0.03792623821000005,24.626,-15.3475,1.8759999999999994
3.5092784240000583,10.5690974242,0.1483550012,-1.1174481541999999,12.88,7.140000000000001,-32.410000000000004,10.79091207922,-0.29838497822000004,-0.1232303639,24.71,-13.720000000000002,-0.7980000000000015
3.5194123930000387,10.28913718,0.42592242280000003,-1.0001998468,12.110000000000001,12.530000000000001,-33.11000000000001,10.8562361362,-0.28821548217000004,-0.19812571127999998,24.699500000000004,-11.8825,-3.5105000000000013
3.528940364000391,10.037890806999998,0.6580262149999999,-0.7585247641999999,10.850000000000001,15.47,-33.88,10.894521297799999,-0.26620151425000005,-0.25890340532,24.507,-9.9505,-6.202
3.5383263360004094,9.810572659999998,0.7274180704000001,-0.0023928226,10.360000000000001,17.78,-34.02,10.906485410799998,-0.23425733254000006,-0.28115665549999996,23.978500000000004,-7.9485,-8.862
3.5476933070003724,9.5856473356,0.8446663778,-0.3900300838,8.75,18.970000000000002,-34.720000000000006,10.894880221189998,-0.19417755399000003,-0.3242274623,23.142000000000003,-5.9815,-11.578
3.556992279000042,9.355936366,0.9379864591999999,-0.24646072779999997,7.3500000000000005,20.23,-34.790000000000006,10.857791470889998,-0.14524433182000002,-0.36095728921,22.095500000000005,-4.025,-14.301000000000002
3.5663702510000803,9.21236701,1.0049854919999999,-0.12203395259999998,6.370000000000001,20.44,-34.650000000000006,10.79964588171,-0.0860219724700001,-0.39110685396999995,20.902000000000005,-2.1210000000000013,-16.989000000000004
3.575770222000301,9.059226363599999,0.9667003303999999,0.08614161359999999,6.510000000000001,20.51,-34.510000000000005,10.72068273591,-0.023688943740000024,-0.41324046302,19.666500000000006,-0.18899999999999864,-19.547500000000003
3.5852451929999916,8.930013943199999,1.040877831,0.33260234139999995,6.0200000000000005,19.810000000000002,-33.95,10.61958598106,0.05060819798999999,-0.4199403663,18.466000000000005,1.7149999999999999,-21.847000000000005
3.5946971650000705,8.841479506999999,1.1246266219999999,0.5599204883999999,6.300000000000001,17.78,-32.550000000000004,10.503893008350001,0.13567304141999997,-0.4033102492299999,17.269000000000002,3.5875,-23.908500000000004
3.6041181360001247,8.5926259566,1.2107682356,0.6245266985999999,5.6000000000000005,14.840000000000002,-30.520000000000003,10.35960580557,0.22707886474000002,-0.37316068447000006,16.009000000000007,5.3375,-25.686500000000002
3.613496108000163,8.398807326,1.1796615417999998,0.6652046827999999,5.180000000000001,10.64,-27.090000000000003,10.20036346154,0.32470602682000005,-0.33104700671,14.735000000000003,6.853,-27.090000000000003
3.6227490790001866,8.061419339399999,1.8161523534,0.5455635528,5.880000000000001,8.33,-24.220000000000002,10.01623576247,0.45020957219,-0.2848655305300001,13.499500000000001,8.151500000000002,-28.154000000000007
3.6321360510000886,7.8341011923999995,1.3351950108,0.49770710079999997,4.130000000000001,6.44,-21.98,9.82038323266,0.55166525043,-0.24071795356,12.239500000000001,9.180500000000002,-28.854000000000006
3.641548022000279,7.599604577599999,1.2921242039999998,0.5096712138,-0.35000000000000003,5.11,-18.970000000000002,9.617950440699998,0.65060846494,-0.19286150156,10.797500000000001,9.954,-29.186500000000006
3.651070993000303,7.3746792532,1.3280165429999997,1.1988041226,-0.9800000000000001,1.8200000000000003,-15.47,9.410133797889998,0.7447660342499999,-0.10791629926000001,9.379999999999999,10.4755,-29.05000000000001
3.6604919650003467,7.087540541199999,1.1988041226,0.6317051664,0.07,-0.7000000000000001,-10.64,9.193702993719999,0.8322237002799999,-0.048454657650000045,8.106000000000002,10.717000000000002,-28.500500000000006
3.6700159360002544,6.924828604399999,1.1772687192,1.2035897677999998,-1.4700000000000002,-5.040000000000001,-5.74,8.974879366949999,0.9110672049499999,0.053958149629999966,6.919499999999999,10.657500000000002,-27.559000000000008
3.679558907000228,6.652046827999999,1.0456634761999999,0.6269195211999999,-3.1500000000000004,-8.05,-1.6800000000000002,8.75462004662,0.9710074110800001,0.13543375916000003,5.879999999999999,10.290000000000001,-26.285000000000004
3.6891198780003833,6.4941205364,0.9690931529999999,0.6149554081999999,-7.210000000000001,-11.270000000000001,3.22,8.53555713759,1.02161560907,0.22301106631999995,4.76,9.639,-24.584000000000007
3.698539849000099,6.379265051599999,1.0671988796,0.0095712904,-10.360000000000001,-13.580000000000002,7.140000000000001,8.32606551896,1.0675578029900001,0.27936203854999997,3.598,8.603,-22.606500000000008
3.707943821000299,6.314658841399999,0.8638089586000001,0.6460621019999999,-13.72,-14.21,11.55,8.127341602029999,1.0894521297800002,0.36167513598999995,2.306499999999999,7.266000000000001,-20.373500000000007
3.7175487920003434,6.3361942448,0.7657032319999999,0.8781658942,-12.530000000000001,-12.670000000000002,14.700000000000001,7.942256773919999,1.0948359806299999,0.4435096689099999,1.1374999999999988,5.859,-17.9445
3.7270137630002864,6.5419769884,0.6723831505999999,1.1700902514,-10.500000000000002,-12.040000000000001,18.76,7.778826990339998,1.09208423464,0.50213382261,0.094500000000001,4.368000000000002,-15.305500000000006
3.7366057340000225,6.9726850564,0.5718846013999999,1.3112667848,-5.250000000000001,-11.830000000000002,22.400000000000002,7.648178876379999,1.07844514582,0.5871986660399999,-0.6054999999999995,2.8280000000000007,-12.449500000000004
3.7461607050004204,7.578069174199999,0.5742774239999999,1.4644074312000002,-1.8900000000000001,-12.180000000000001,27.650000000000002,7.559285516790001,1.0602596940599998,0.6727420739899999,-1.0674999999999994,1.2075,-9.327500000000004
3.755630676000237,8.1451681304,0.36370903520000003,1.5218351735999998,1.1900000000000002,-14.000000000000002,34.440000000000005,7.505925572810002,1.02819587122,0.7549355302999998,-1.3264999999999998,-0.5145000000000003,-5.873000000000002
3.7650726470001246,8.7314096674,-0.5838487144,1.5314064639999998,5.8100000000000005,-16.87,39.970000000000006,7.489534737999999,0.95066841898,0.8271987728199999,-1.3615000000000002,-2.3835000000000006,-2.148999999999999
3.7746066180002344,9.1597249128,-0.6580262149999999,1.4644074312000002,10.080000000000002,-20.580000000000002,43.82000000000001,7.5010202864799975,0.8657232166799999,0.8837890273100001,-1.1585000000000003,-4.4030000000000005,1.739500000000001
3.784095589000117,9.4348995118,-1.4763715442,1.4548361408000001,13.510000000000002,-23.520000000000003,43.68000000000001,7.530691286719998,0.7356733083700002,0.9285348099299998,-0.7979999999999997,-6.468000000000001,5.551
3.7935995610000646,10.4063854874,-2.2636101795999997,1.4548361408000001,15.330000000000002,-24.990000000000002,40.74,7.621379263259999,0.5619543876099998,0.9700502820400001,-0.3115000000000002,-8.459500000000002,9.114
3.8029855320000934,10.4470634716,-2.5818555854,0.6891329087999999,12.950000000000001,-29.680000000000003,37.52,7.723792070539998,0.3738785312499999,0.9712466933400001,0.07700000000000022,-10.475500000000002,12.344500000000004
3.812363504000132,11.088339928399998,-2.6321048599999997,1.0624132344,7.630000000000001,-35.07,34.650000000000006,7.875138099989998,0.15146567057999996,0.9970891774200001,0.16450000000000067,-12.645500000000002,15.288
3.8219304750000447,12.035897678,-2.4909283265999997,0.7537391189999999,-2.3800000000000003,-41.300000000000004,32.620000000000005,8.085227924269997,-0.03984049629000001,1.0098907783300002,-0.16099999999999984,-15.032500000000004,18.018
3.8313964460003263,13.304093655999997,-2.0889341298,0.28713871199999996,-9.030000000000001,-45.43000000000001,29.050000000000004,8.370452378189999,-0.20889341298000005,0.99876415324,-0.5950000000000002,-17.559500000000003,20.419000000000004
3.840858417000163,13.450055834599999,-1.5864413838,-0.0334995164,-15.190000000000001,-47.81,25.830000000000002,8.674221207259999,-0.35461630932,0.9371489712900001,-1.3054999999999999,-20.041000000000004,22.484
3.85032438799999,13.698909384999997,-1.1294122671999998,-0.4618147618,-15.890000000000002,-47.95,20.51,9.00478964945,-0.47102712881,0.88247297488,-2.1035000000000004,-22.4035,24.041500000000003
3.8596653600002355,13.938191645,-0.5335994398,-0.7537391189999999,-12.32,-44.730000000000004,14.490000000000002,9.355457801479998,-0.5565705367599999,0.7846065305399998,-2.646,-24.388000000000005,25.053000000000004
3.869096331000037,13.880763902599998,0.6077769404,-0.9930213789999999,-5.040000000000001,-41.230000000000004,9.8,9.716893655209999,-0.57846486355,0.7036094855299998,-2.7405,-26.047000000000004,25.627
3.8790943010003502,13.603196480999998,0.34217363179999993,-1.1030912186,2.5200000000000005,-35.42,1.8900000000000001,10.072347452439999,-0.6098108396099999,0.6177071541899999,-2.254,-27.2545,25.560499999999998
3.888570272000379,13.172488413,0.23928225999999997,-1.0600204117999998,6.720000000000001,-28.490000000000002,-7.000000000000001,10.412008620509999,-0.6512066705899999,0.56422756908,-1.3999999999999997,-28.0,24.8535
3.8979242440000235,12.830314781199998,0.346959277,-0.9475577495999999,5.95,-18.270000000000003,-21.21,10.737791417499999,-0.6770491546699999,0.48454657649999994,-0.4165000000000001,-28.203000000000003,23.215500000000002
3.907365215000027,12.4211421166,0.7369893607999999,-0.71784678,1.6800000000000002,-12.250000000000002,-29.750000000000004,11.042038811089999,-0.67848484823,0.40474594279,0.29399999999999993,-28.182,20.993000000000002
3.916802186000041,11.660224529799999,1.411765334,-0.5240281494,-4.970000000000001,-7.840000000000001,-36.120000000000005,11.297951188159999,-0.6415157390600001,0.3200400227499999,0.5705000000000001,-27.972,18.249000000000002
3.926293158000135,11.8109723536,2.1224336461999997,-0.43788653580000003,-13.72,-6.65,-38.71,11.539865553019997,-0.5639882868200001,0.23258235672000005,0.14699999999999944,-27.713000000000005,15.193500000000004
3.935779129000366,11.3802642856,2.6368905051999993,-0.5742774239999999,-18.55,-5.53,-38.080000000000005,11.729975308589998,-0.46085763275999997,0.13064811395999998,-0.6859999999999998,-27.3805,11.907000000000004
3.9452871000003142,10.8418792006,3.2350961551999995,-0.8781658942,-19.32,-3.6400000000000006,-38.43000000000001,11.864810862099999,-0.3172882767599998,0.010648060570000001,-1.7115000000000005,-26.8625,8.263500000000002
3.954800071000136,10.133603711,3.3475588174,-1.1796615417999998,-15.05,17.78,-38.78,11.934920564279999,-0.12071790017000009,-0.12490533971999998,-2.7545,-25.130000000000003,4.3260000000000005
3.9642590420003216,9.607182738999999,3.2350961551999995,-1.4644074312000002,-9.38,7.210000000000001,-40.25000000000001,11.95729345559,0.0739382183399997,-0.27134608283999995,-3.7275,-23.7405,0.12250000000000334
3.973659014000077,9.1357966868,2.9407789753999998,-1.5122638832,-0.21000000000000002,15.890000000000002,-41.86000000000001,11.942338314339999,0.2947957443199997,-0.41970108404,-4.4135,-21.770000000000003,-4.1545000000000005
3.9832159850002427,8.8151584584,2.5100709073999994,-1.3902299305999999,6.0200000000000005,23.380000000000003,-41.370000000000005,11.862776962889999,0.5334797986699998,-0.5619543876099999,-4.879,-19.3515,-8.260000000000002
3.992715956000211,8.604590069599999,2.129612114,-1.0480562988,7.420000000000001,27.300000000000004,-41.510000000000005,11.770653292789998,0.7690531836399999,-0.64881384799,-5.155499999999999,-16.502499999999998,-12.211500000000001
4.00217992700027,8.336593938399998,1.6319050132,-0.7609175867999999,6.0200000000000005,28.35,-39.480000000000004,11.633065993289998,0.9822536772999999,-0.7399803890500001,-5.235999999999999,-13.3315,-15.918000000000003
4.011703898000178,8.0087772422,1.3543375915999998,-0.5503491979999999,0.6300000000000001,27.44,-36.540000000000006,11.431709971499998,1.1745169732099998,-0.8051848049,-5.0855,-9.894499999999997,-19.376
4.021214869000232,7.695317481599999,1.1198409767999997,-0.48335016519999996,-5.53,24.360000000000003,-33.88,11.151271162779999,1.3349557285399998,-0.84370924876,-4.9105,-6.404999999999999,-22.5225
4.0306658410004275,7.250252477999999,1.0145567824,-0.5958128274,-9.870000000000001,20.160000000000004,-32.06,10.841280994949999,1.46500563685,-0.87182491431,-4.6445,-3.0065000000000017,-25.417000000000005
4.040254812000057,6.857829571599999,0.8709874264,-0.7968099257999999,-9.590000000000002,18.340000000000003,-31.780000000000005,10.49922700428,1.5650256215299998,-0.8885746725099999,-4.3295,0.3080000000000009,-28.031500000000005
4.049750783000036,6.3840506968,0.8039883936,-0.8039883936,-7.7700000000000005,19.67,-31.150000000000002,10.12151995687,1.6319050131999997,-0.8910871362399998,-4.1019999999999985,3.528,-30.313500000000005
4.059154754000247,5.5585268997999995,0.7728816997999999,-0.693918554,-8.680000000000001,21.560000000000002,-29.120000000000005,9.70540810673,1.6401602511699997,-0.8761319949899999,-4.283999999999999,6.667500000000001,-32.2595
4.068671725000058,5.9246287576,0.8159525066,-0.4139583098,-10.99,22.89,-26.810000000000002,9.32147972056,1.66384919491,-0.84167534955,-4.959499999999999,9.582999999999998,-33.694500000000005
4.078147696000087,5.826523031,0.8039883936,0.1004985492,-15.540000000000001,22.820000000000004,-22.750000000000004,8.954181451459998,1.69208450159,-0.7836494014999998,-6.0725,12.148499999999999,-34.482000000000006
4.087695667000389,5.843272789199999,0.9523433947999999,0.47856451999999994,-18.340000000000003,19.250000000000004,-16.59,8.604829351859998,1.7223537074800004,-0.7123432880199999,-7.287000000000001,14.0245,-34.251000000000005
4.097116639000433,5.9078789994,0.9236295236,0.7489534737999999,-22.540000000000003,12.670000000000002,-10.22,8.279166195999997,1.7316857156199998,-0.6390032753299998,-8.498,15.270500000000002,-33.2745
4.106609610000305,6.0586268232,1.0863414604,0.8829515394,-22.96,5.180000000000001,-2.87,7.999086310669997,1.7154145219399997,-0.5686542908899999,-9.397499999999999,15.9215,-31.612000000000013
4.116219581000223,6.111268920399999,1.0624132344,0.9451649269999999,-24.01,-1.8200000000000003,2.1,7.714101139009999,1.6624135013499994,-0.49950171774999974,-9.912,16.163000000000004,-29.571500000000007
4.125631552000414,6.355336825599999,1.1389835575999998,0.9978070242,-25.62,-7.490000000000001,9.100000000000001,7.4628547660099995,1.5875181539699998,-0.42089749533999987,-10.265500000000001,16.065,-27.212500000000006
4.135155523000321,6.508477471999999,1.2299108163999999,1.016949605,-26.6,-14.350000000000001,15.05,7.24618467958,1.4872588870299999,-0.3261417203799998,-10.6295,15.529499999999999,-24.538500000000003
4.14472549400034,7.2574309458,1.2634103328,0.9595218625999999,-25.76,-19.67,22.19,7.1023760413199994,1.3830514627999997,-0.2191825501599999,-11.165,13.657,-21.490000000000002
4.154135466000298,7.2646094136,1.2969098491999997,1.0839486377999998,-25.480000000000004,-22.400000000000002,26.390000000000004,6.985247375049999,1.2861421474999997,-0.09176474671000001,-11.969999999999999,12.1765,-18.158
4.1635844370002815,8.551947972399999,1.2131610581999999,0.9978070242,-25.130000000000003,-25.410000000000004,32.2,6.9560549393299995,1.1997612516399998,0.03373879866000004,-13.216,10.111499999999998,-14.455000000000002
4.172985408000386,8.602197247,1.3543375915999998,0.9379864591999999,-21.98,-28.980000000000004,37.660000000000004,6.945406878759998,1.14197458585,0.15014961814999997,-14.616,7.4935,-10.5035
4.182464379000066,9.5449693514,1.3591232368,0.5958128274,-16.310000000000002,-32.13,43.260000000000005,6.9924258428499995,1.1034501419899998,0.23234307445999997,-15.8025,4.522,-6.264999999999999
4.191924350000136,10.2580304862,1.0480562988,0.33499516399999996,-7.700000000000001,-33.81,46.13,7.08849767024,1.0742577062699998,0.28713871199999996,-16.4885,1.414000000000002,-1.9844999999999975
4.201316322000366,10.942377749799997,0.5479563754,-0.0382851616,3.3600000000000003,-32.620000000000005,47.18000000000001,7.235177695619998,1.0339386454599997,0.31274191382,-16.352,-1.5889999999999982,2.201500000000001
4.210740293000072,11.3348006562,-0.11485548479999999,-0.28235306679999994,11.13,-29.960000000000004,43.120000000000005,7.417151854349998,0.9722038223799997,0.32279176874,-15.519,-4.305000000000001,6.051500000000001
4.220241264000379,11.7272235626,-1.160518961,-0.5766702466,16.94,-27.230000000000004,36.96,7.641000408579998,0.8634500352099996,0.32374889777999993,-14.1785,-6.6745,9.502500000000001
4.229675235000286,11.904292434999997,-1.1030912186,-0.8207381517999999,20.020000000000003,-25.830000000000002,33.39,7.893323551749998,0.7647461029599997,0.32255248648,-12.698,-8.883000000000001,12.761000000000001
4.239146205999987,12.035897678,-1.5218351735999998,-1.1389835575999998,18.62,-24.080000000000002,28.42,8.17591590081,0.6484549246,0.30580272828,-11.378499999999999,-11.070500000000001,15.739500000000001
4.249126176000118,11.985648403399997,-1.746760498,-1.5505490447999999,16.17,-21.14,21.910000000000004,8.49727197599,0.52247281471,0.26297120374,-10.136,-13.2055,18.291000000000004
4.258493147000081,11.8133651762,-1.9190437251999999,-1.6749758199999998,9.940000000000001,-19.39,0.21000000000000002,8.79170879692,0.38572300312000013,0.19992032822999983,-9.089499999999997,-15.319500000000001,19.642000000000003
4.2680141180003375,11.5764757388,-1.9836499353999997,-1.7635102562,3.6400000000000006,-16.310000000000002,11.200000000000001,9.079206432309999,0.24634108667000007,0.10671988795999995,-8.130500000000001,-17.276,21.3395
4.277504089000104,11.2175523488,-1.8592231602,-1.8376877567999998,-1.54,-13.090000000000002,5.040000000000001,9.34792041029,0.10576275892000009,-0.009092725879999897,-7.290499999999999,-18.892999999999997,22.421
4.287026060000244,10.827522264999997,-1.6007983193999997,-1.6534404165999996,-4.9,-10.57,0.77,9.59390257357,-0.020458633229999933,-0.1292124203999999,-6.408499999999998,-20.055,22.9705
4.2965210310003386,10.4901342784,-1.1581261384,-1.5290136414,-4.340000000000001,-9.450000000000001,0.14,9.815477946330002,-0.1326820131699999,-0.24981067944,-5.4775,-20.786499999999997,23.121
4.306009003000327,9.7938229018,-1.0504491214,-1.2658031554,-2.45,-10.57,1.61,9.999605645400003,-0.23832513095999985,-0.36035908355999985,-4.399499999999999,-21.223999999999997,23.0965
4.315537973000119,9.379864591999999,-0.9547362173999999,-0.8566304908,-4.69,-10.780000000000001,3.5000000000000004,10.15083203372,-0.3430111197099998,-0.4530809593099999,-3.352999999999998,-21.3885,22.816499999999998
4.3249329450000005,8.738588135199999,-0.8207381517999999,-0.7034898444000001,-7.280000000000001,-13.23,6.580000000000001,10.262337566880001,-0.44554356812000007,-0.53910293178,-2.3870000000000013,-21.3325,22.392999999999997
4.334511916000338,8.183453292,-0.7776673449999999,-0.3900300838,-11.55,-17.150000000000002,7.910000000000001,10.308638684189999,-0.54759745201,-0.6065805290999999,-1.6765000000000008,-21.206499999999995,21.679
4.344037887000013,7.680960546,-0.5886343596,-0.37328032559999996,-17.360000000000003,-17.71,6.790000000000001,10.32945624081,-0.64187466245,-0.67944197727,-1.2704999999999997,-20.972,20.699000000000005
4.353487858000335,7.386643366199999,-0.35892339,-0.17228322719999997,-22.610000000000003,-17.92,4.970000000000001,10.271191010499999,-0.72047888486,-0.73794648984,-1.1445000000000005,-20.597499999999997,19.337500000000006
4.3628428290003285,7.4177500599999995,0.22731814699999997,0.0789631458,-28.490000000000002,-17.64,4.550000000000001,10.211968651149999,-0.7768298570899999,-0.7808976555099999,-1.470000000000001,-20.030499999999996,17.682000000000006
4.372219801000028,7.566105061199999,0.6747759731999999,0.20817556619999997,-29.26,-21.000000000000004,8.96,10.113025436639997,-0.8110472202700002,-0.80027951857,-2.1175000000000006,-19.474,15.967000000000004
4.381573772000138,7.7742806274,0.8901300072,0.3613162126,-32.410000000000004,-24.71,11.760000000000002,9.988837943699998,-0.8189435348500002,-0.7989634661400001,-3.3530000000000006,-19.019,14.248500000000002
4.391088743000182,8.257630792599999,1.1150553316,0.5503491979999999,-53.620000000000005,-24.500000000000004,10.850000000000001,9.85460059584,-0.7905885870400002,-0.7695317481600001,-6.202000000000001,-18.612999999999996,12.432
4.4005487140002515,9.0831545896,1.4404792052000002,0.45702911659999995,-38.080000000000005,-26.810000000000002,10.920000000000002,9.74201829251,-0.7128218525400001,-0.7325626389900002,-8.662500000000001,-18.455499999999997,10.822
4.41003668500025,9.8153583052,1.5888342063999998,0.5000999234,-39.2,-28.700000000000003,10.500000000000002,9.64642502964,-0.5753541941700002,-0.6787241304899999,-11.469500000000002,-18.529,9.499
4.4194586570001775,10.803594039,1.7659030788,0.5120640364,-38.78,-28.770000000000003,7.700000000000001,9.591390109839999,-0.4319044793,-0.61208402108,-14.409500000000003,-18.676,8.214500000000001
4.4289166280000245,11.375478640399999,2.1248264688,0.2105683888,-35.84,-31.01,3.6400000000000006,9.55836915796,-0.24957139718,-0.5446064237600001,-17.132500000000004,-19.0225,6.975500000000002
4.43845759900023,11.892328322,2.2779671151999996,0.1483550012,-31.570000000000004,-31.01,1.1900000000000002,9.553703153889998,-0.04833501651999996,-0.45966122145999994,-19.5195,-19.516,5.939500000000001
4.4478645700000925,12.126824936799999,2.3521446158,0.0047856452,-29.26,-29.960000000000004,-3.5000000000000004,9.56937614192,0.16522440052999998,-0.37567314820000003,-21.479499999999998,-20.0445,5.754
4.457398541000202,12.3972138906,2.5196421977999996,-0.0382851616,-28.630000000000003,-26.53,-6.930000000000001,9.610413049509999,0.3903890071899999,-0.28941189346999996,-23.092999999999996,-20.555500000000002,4.8475
4.466870512000241,12.6771741348,2.6703900216,-0.1292124204,-30.660000000000004,-24.64,-9.73,9.683394138809998,0.61686966628,-0.20398812664999996,-24.549,-21.133,4.109
4.476347483000154,13.0193477666,2.8115665549999997,-0.4139583098,-31.780000000000005,-24.430000000000003,-10.010000000000002,9.79298541389,0.8374879099999999,-0.14201402131,-25.893,-21.825999999999997,3.5699999999999994
4.485875454000052,13.265808494399998,2.8689942973999996,-0.7226324252,-34.650000000000006,-25.410000000000004,-9.030000000000001,9.931769124690002,1.03884393179,-0.1016949605,-27.408500000000004,-22.624000000000002,3.1114999999999986
4.495376425000359,13.2490587362,2.8594230069999997,-1.2634103328,-36.68000000000001,-24.360000000000003,-7.280000000000001,10.104530916409999,1.23433753821,-0.10157531937,-29.120000000000005,-23.313500000000005,2.6669999999999994
4.505039396000029,12.885349701,2.6871397797999994,-1.8640088054,-36.61000000000001,-21.21,-4.41,10.27980517186,1.41643133807,-0.1519442351,-30.716000000000015,-23.835,2.2715000000000005
4.5146213660000285,11.770294369399998,2.2899312282,-2.5363919559999997,-31.500000000000004,-15.540000000000001,-2.1700000000000004,10.43139048357,1.57196480707,-0.24358934068,-31.927000000000003,-23.950499999999998,1.8339999999999996
4.524005338000279,11.753544611199999,1.7419748528,-2.6344976825999997,-25.410000000000004,-3.1500000000000004,-3.9200000000000004,10.60989504953,1.6979469169599999,-0.35581272062,-32.620000000000005,-23.2505,1.2424999999999995
4.533480309000424,11.164910251599999,1.4285150922,-2.6344976825999997,-19.32,5.74,-6.580000000000001,10.784092534809998,1.7988043895499999,-0.4688735884699999,-32.71800000000001,-22.078000000000003,0.5739999999999992
4.542867280000337,10.8705930718,1.2466605746,-2.5603201819999994,-16.310000000000002,15.05,-8.89,10.958290020089999,1.8790835877799998,-0.5882754362099999,-32.403000000000006,-20.429499999999997,-0.119
4.552239252000163,10.5978112954,1.160518961,-2.3904297774,-12.950000000000001,19.950000000000003,-11.690000000000001,11.117293081859998,1.9257436284799998,-0.7117450823699999,-31.625999999999998,-18.55,-0.9309999999999998
4.561776223000379,10.430313713399999,1.0552347666,-2.3258235672,-11.200000000000001,23.310000000000002,-14.350000000000001,11.260503514469999,1.94476656815,-0.83844503904,-30.723000000000013,-16.3345,-2.0965000000000003
4.571205194000413,10.1359965336,1.0121639597999998,-2.3760728418,-8.610000000000001,24.990000000000002,-14.770000000000001,11.378589309779999,1.95086826578,-0.9753144917599998,-29.53300000000001,-13.8495,-3.4230000000000005
4.580571165000038,9.870393224999999,0.8207381517999999,-2.2947168733999996,-7.3500000000000005,27.580000000000002,-12.950000000000001,11.459227431399999,1.93615240679,-1.1175677953299998,-27.21950000000001,-11.2455,-4.613000000000001
4.589999137000177,9.4301138666,0.6819544409999999,-2.177468566,-3.22,29.750000000000004,-11.9,11.476575395249998,1.8982261685800002,-1.2492926794599999,-25.476500000000005,-8.417499999999997,-5.7540000000000004
4.59936210800015,9.0185483794,0.19142580799999998,-2.0386848552,1.61,34.93000000000001,-11.48,11.43673489896,1.82835574866,-1.3762319183899998,-23.436000000000003,-5.236,-6.853
4.608689080000204,8.6333039408,-0.16510475939999997,-1.7802600144,6.370000000000001,40.6,-13.160000000000002,11.328220394049998,1.7318053567499998,-1.4908481209299997,-21.178500000000007,-1.7674999999999979,-7.895999999999999
4.6188480490000074,8.315058534999999,-0.4235296002,-1.2705888005999997,7.630000000000001,46.690000000000005,-16.310000000000002,11.175199388779998,1.6043875532999998,-1.5649059803999996,-19.005000000000003,2.117500000000001,-8.8935
4.628311020000183,8.2983087768,-0.4283152454,-0.7609175867999999,4.0600000000000005,48.230000000000004,-18.130000000000003,10.99549841152,1.46907343527,-1.6103696097999998,-17.223500000000005,6.079500000000001,-9.8595
4.637912990000132,8.293523131599999,-0.27517459899999996,-0.24885355039999998,-2.7300000000000004,44.17,-18.340000000000003,10.80383332126,1.33770747453,-1.6230515695799999,-15.897000000000006,9.786000000000001,-10.6015
4.647440961000029,8.2121671632,-0.05503491979999999,0.0047856452,-8.82,36.68000000000001,-16.66,10.594580984890001,1.2089736186500002,-1.6208980292399997,-14.906500000000005,12.946500000000004,-11.088
4.656852933000209,7.898707402599999,0.0263210486,-0.028713871199999998,-15.96,29.960000000000004,-14.21,10.35565764828,1.07677017,-1.6158731017799994,-14.171500000000004,15.6765,-11.312000000000001
4.666442903000188,7.625925626199998,0.19142580799999998,-0.1268195978,-20.650000000000002,24.150000000000002,-12.530000000000001,10.08598654126,0.94576313265,-1.6015161661799997,-13.614999999999998,18.1055,-11.438000000000002
4.675892875000045,7.334001268999999,0.33499516399999996,-0.1459621786,-25.410000000000004,21.630000000000003,-11.690000000000001,9.78939617999,0.8190631759799999,-1.57268265385,-13.153,20.4575,-11.571000000000002
4.685514845000398,7.1306113479999995,0.7322037156000001,-0.18185451760000002,-25.69,18.340000000000003,-8.610000000000001,9.483473810580001,0.71270221141,-1.5186048630900002,-12.603499999999999,22.5925,-11.637500000000001
4.695213816000432,6.9296142496,1.1988041226,-0.16031911419999997,-25.270000000000003,15.540000000000001,-6.090000000000001,9.185687038010002,0.63828542855,-1.4334203785300004,-12.036500000000002,24.43,-11.721500000000002
4.704828786000235,6.664010940999999,1.2634103328,-0.0095712904,-22.610000000000003,13.090000000000002,-1.6800000000000002,8.93037286659,0.5869593837800001,-1.3070793452500002,-11.592000000000002,25.8615,-11.697000000000003
4.714262758000132,6.5826549726,1.3950155758,0.1052841944,-19.6,9.450000000000001,1.6800000000000002,8.67182838466,0.56961141993,-1.1700902514000002,-11.3015,26.491500000000002,-11.417000000000002
4.723670729000332,6.575476504799999,1.4859428345999999,0.40438701939999994,-17.85,6.510000000000001,5.180000000000001,8.442356697320001,0.5724828070499999,-1.0181460163000002,-11.228000000000002,26.53,-10.829000000000002
4.733262700000068,6.632904247199999,1.5601203352,0.5599204883999999,-20.23,0.49000000000000005,11.97,8.23047225609,0.5881557950799999,-0.8621339827800003,-11.424000000000001,25.802,-9.786000000000001
4.742692670999986,6.829115700399999,1.5960126742,0.5359922624,-24.360000000000003,-7.000000000000001,18.200000000000003,8.04203747634,0.6099304807399999,-0.7158128807899999,-11.9945,24.4545,-8.291500000000003
4.752135642000212,7.010970218,1.5816557385999996,0.27996024419999993,-25.76,-17.5,24.360000000000003,7.8710703015700005,0.6362515293400001,-0.58552369022,-12.7225,22.414,-6.356000000000001
4.761539613000423,7.2047888486,1.4668002538,-0.0167497582,-27.580000000000002,-24.01,28.28,7.724509917319999,0.6589833440400001,-0.46755753604,-13.671000000000001,19.964000000000002,-4.203500000000002
4.771088584000154,7.29810893,1.3782658175999998,-0.5024927459999999,-28.140000000000004,-29.120000000000005,33.39,7.595895702570002,0.68685972733,-0.3779463296700001,-14.7105,17.128999999999998,-1.8865000000000016
4.780544556000223,7.544569657799999,1.3710873497999998,-0.8063812161999999,-24.430000000000003,-29.820000000000004,37.17,7.5016184921299995,0.7213163727699999,-0.30939196218,-15.771,14.1505,0.5669999999999987
4.78998252700012,8.5495551498,1.3088739621999996,-1.0073783146,-1.6800000000000002,-28.42,42.21,7.4781688306500005,0.77718878048,-0.25782663515,-15.9355,10.983,3.2515
4.799397498000417,8.5016986978,1.0911271056,-1.7994025952000001,-9.870000000000001,-28.210000000000004,44.59,7.4715885685000005,0.84000037373,-0.25878376418999993,-16.7475,7.5424999999999995,6.139
4.808921469000325,8.6907316832,0.40677984199999995,-1.4333007374,16.94,-26.110000000000003,46.06,7.490372225909999,0.8815158458399999,-0.26691936102999997,-16.282000000000004,3.9025,9.2575
4.81835744,9.2697947524,-0.08853443620000001,-1.6725829973999997,7.420000000000001,-21.910000000000004,43.190000000000005,7.538946524689999,0.8985048862999999,-0.31250263155999997,-16.113999999999997,0.3954999999999986,12.3235
4.827746412000124,10.3872429066,-0.5742774239999999,-1.7635102562,13.23,-16.59,38.36000000000001,7.643632513439998,0.8835497450500001,-0.38823546685,-15.315999999999999,-2.642500000000001,15.1585
4.837341382000432,10.5978112954,-0.9762716207999999,-1.7563317884,16.73,-9.24,35.77,7.762914720049997,0.8374879099999998,-0.47629133853,-14.038499999999999,-4.9384999999999994,17.78
4.84668435399999,11.609975255199998,-1.232303639,-1.495514125,18.69,-5.74,34.02,7.948478112679998,0.77455667562,-0.5496313512200001,-12.306000000000001,-6.723500000000001,20.191499999999998
4.856170325000221,12.189038324399997,-1.4428720278,-1.2777672683999999,18.62,-5.6000000000000005,34.580000000000005,8.17663374759,0.6928417838299997,-0.60717873475,-10.3425,-8.211000000000002,22.547
4.865584296000179,12.569497117799997,-1.6630117069999997,-1.2658031554,16.87,-7.420000000000001,33.32,8.43840854003,0.5929414402799998,-0.66317078359,-8.228500000000004,-9.6635,24.7975
4.874749268000414,12.5934253438,-2.2803599377999997,-1.2658031554,15.680000000000001,-6.580000000000001,29.610000000000003,8.711549239819998,0.44231325761000007,-0.7173682154800001,-6.160000000000004,-10.909500000000001,26.708499999999997
4.884138240000084,12.524033488399999,-2.6775684894,-1.3471591237999998,13.020000000000001,-3.1500000000000004,21.21,8.991270201759997,0.24849462701,-0.77671021596,-4.245500000000003,-11.844000000000003,28.073500000000003
4.8934952110003,12.3517502612,-2.9359933301999996,-1.3016954943999999,8.260000000000002,2.45,12.88,9.27565716777,0.03852444385999998,-0.84131642616,-2.702000000000004,-12.376000000000003,28.801500000000004
4.902858183000262,12.2105737278,-2.9647072013999995,-1.0097711372,3.6400000000000006,8.05,3.0100000000000002,9.55705310553,-0.17946169499999992,-0.8970691927400001,-1.540000000000002,-12.446000000000002,28.868000000000002
4.912251154000387,12.2010024374,-2.7828526837999994,-0.021535403399999997,-3.43,13.370000000000001,-2.0300000000000002,9.838329402160001,-0.3929014709199999,-0.9183653138800002,-0.8190000000000003,-12.103,28.5075
4.921738125000047,12.086146952599998,-2.5698914723999993,-0.28235306679999994,-6.370000000000001,13.370000000000001,-4.2,10.11099153743,-0.5994020612999998,-0.9604789916400002,-0.12600000000000028,-11.459,27.698999999999995
4.931278096000369,11.794222595399997,-2.3377876802,0.5838487144,-8.540000000000001,11.760000000000002,-6.580000000000001,10.359246882179999,-0.79609207902,-0.9580861690400002,0.6649999999999994,-10.521,26.459999999999997
4.940699067000423,11.4879413026,-2.0267207422,0.22492532440000002,-9.38,11.13,-9.66,10.58309543641,-0.9765109030599998,-0.9608379150300002,1.4840000000000004,-9.089500000000003,24.759
4.950098038000306,11.169695896799999,-1.5026925928,0.37328032559999996,-7.630000000000001,8.47,-10.360000000000001,10.78134078882,-1.12498554539,-0.9413364108400002,2.481499999999999,-7.465500000000003,22.826999999999998
4.9596360090004055,10.741380651399998,-0.6460621019999999,0.42592242280000003,-5.040000000000001,6.720000000000001,-11.200000000000001,10.953504374889999,-1.2262019413699996,-0.8949156524000003,3.6365000000000003,-5.673500000000002,20.5975
4.969089981000252,10.384850084,-1.1150553316,0.49770710079999997,-3.0100000000000002,7.140000000000001,-14.21,11.0955183962,-1.3505090754399995,-0.8297112365500002,4.7075,-3.825500000000001,18.0285
4.978544951999993,10.155139114399999,-1.1653046061999999,0.6771687957999999,-3.5700000000000003,10.71,-17.01,11.175797594429998,-1.4742180038599997,-0.7454838810300002,4.6129999999999995,-1.8690000000000009,15.067500000000004
4.988635921000423,9.8799645154,-0.8805587167999999,0.7130611348,-5.11,14.000000000000002,-18.55,11.244710885309996,-1.5728022949799993,-0.61986069453,4.851000000000001,0.24150000000000071,11.910500000000004
4.998014892000356,9.7818587888,-0.5144568589999999,0.6963113766000001,-6.0200000000000005,12.46,-16.310000000000002,11.299267240589996,-1.6188641300299995,-0.51338008883,3.7030000000000003,2.170000000000001,8.792000000000003
5.007530863000284,9.5545406418,-0.20578274359999998,0.46420758439999993,16.73,9.8,-14.280000000000001,11.313504535059996,-1.6247265453999993,-0.40654055974,4.168500000000001,3.7555000000000005,5.9185
5.016944835000231,9.116654106,-0.2225325018,0.31345976059999997,8.610000000000001,8.680000000000001,-12.740000000000002,11.249975095029999,-1.6071392992899998,-0.30269205890000006,3.937499999999999,5.019,3.3635000000000006
5.0264418060000935,8.7361953126,-0.3397808092,0.21296121140000002,12.88,7.420000000000001,-12.88,11.156894295889998,-1.5753147587099994,-0.20422740891000002,3.7449999999999997,5.852000000000001,0.9310000000000003
5.035755777000304,8.621339827799998,-0.3613162126,0.2560320182,15.680000000000001,8.190000000000001,-14.070000000000002,11.007462524519998,-1.5317653873899997,-0.11665010174999997,3.5945,6.5485,-1.4735000000000003
5.04514374900009,8.338986761,-0.39720855159999996,0.45224347139999993,15.260000000000002,8.05,-16.73,10.814959946349997,-1.4794822135799994,-0.03014956475999998,3.4265000000000008,7.231000000000002,-4.039
5.054758719000347,8.2863446638,-0.24406790519999996,0.693918554,14.63,8.75,-21.21,10.600802323649997,-1.4085350234899994,0.06783652071000003,3.3145000000000002,8.0395,-6.7655
5.064082691000294,8.195417404999999,0.5934200048,1.0815558152,11.55,7.98,-22.400000000000002,10.38090192671,-1.2648460263599994,0.18520446924000003,3.1080000000000005,8.7675,-9.366000000000001
5.073451662000025,8.1786676468,0.27517459899999996,1.2849457361999996,7.840000000000001,6.16,-23.17,10.16363363463,-1.1172088719399997,0.31680971224,2.849,9.233,-11.584999999999999
5.082932633000382,8.2408810344,0.5647061335999999,1.4500504955999998,2.0300000000000002,3.7800000000000002,-20.790000000000003,9.958090173289998,-0.9421738987499999,0.45439701173999997,2.5375000000000005,9.2995,-13.2685
5.096882591000394,8.1643107112,0.8829515394,1.3064811395999998,-2.0300000000000002,0.42000000000000004,-12.950000000000001,9.755777022459998,-0.7497909617099998,0.5702096255799999,2.2540000000000004,8.918000000000001,-14.066500000000001
5.106237562000388,8.243273856999998,1.3351950108,0.0789631458,-3.99,-4.970000000000001,-8.96,9.557890593439998,-0.5438885769799999,0.5752345530399999,2.2260000000000004,8.001000000000001,-14.413
5.115661534000083,8.219345631,1.3232308977999998,0.19381863059999999,0.7000000000000001,-8.47,-5.32,9.364550527359999,-0.34923245846999995,0.5990431379099999,2.5795000000000003,6.909000000000001,-14.469
5.124927505000414,8.1308111948,1.2586246875999998,-0.028713871199999998,8.610000000000001,-13.72,-3.3600000000000003,9.181379957329998,-0.16941184007999996,0.5684150086299997,3.4370000000000003,5.635,-14.308000000000002
5.134363477000079,8.2408810344,1.0983055734,-0.2225325018,15.05,-19.110000000000003,-2.3800000000000003,9.019026943919998,-0.013160524299999976,0.5460421173199999,4.658500000000001,4.122999999999999,-13.943999999999999
5.143973447000008,8.25523797,0.7968099257999999,-0.46899322959999995,21.560000000000002,-21.35,-1.8900000000000001,8.873304047579998,0.10181460162999997,0.5039284395599999,6.118000000000001,2.6320000000000006,-13.520499999999998
5.153420418000223,8.3342011158,0.5934200048,-0.693918554,23.520000000000003,-21.42,0.0,8.7529450708,0.16378870696999998,0.4479363907199997,7.546000000000001,1.2249999999999996,-12.960500000000001
5.162771390000216,8.4538422458,0.45702911659999995,-0.7441678286,20.860000000000003,-22.540000000000003,2.0300000000000002,8.656394678889999,0.24239292937999996,0.3858426442499997,8.739500000000003,-0.2589999999999998,-12.1485
5.172221361000084,8.520841278599999,0.26321048599999997,-0.7010970218,13.160000000000002,-24.290000000000003,5.460000000000001,8.574679787099997,0.31381868399,0.3169293533699999,9.576000000000002,-2.0089999999999995,-11.025
5.18154233200039,8.6476608764,0.33738798659999997,-0.9188438783999999,3.5700000000000003,-27.160000000000004,8.33,8.51306460515,0.37471601915999997,0.23533410270999994,10.010000000000002,-4.067,-9.681
5.190965303000212,8.7720876516,0.5383850849999999,-1.495514125,-4.0600000000000005,-27.160000000000004,12.32,8.46257604829,0.42735811636000004,0.12574282763000003,10.108,-6.048,-8.2495
5.2006992740002715,8.712267086599999,0.8279166196,-2.0793628394,-10.780000000000001,-24.78,15.400000000000002,8.42046237053,0.47904308452000005,-0.0014356935599999954,8.7325,-7.776999999999999,-6.7654999999999985
5.210050245000275,8.566304908,1.1126625089999997,-2.8905297008,-12.180000000000001,-20.650000000000002,19.67,8.392944910630002,0.5458028350599999,-0.16163516662999994,7.6930000000000005,-9.243500000000001,-5.145
5.2195932160002485,8.5088771656,1.2993026717999998,-3.2494530907999994,-9.940000000000001,-13.020000000000001,21.910000000000004,8.381579003280002,0.6277570091099999,-0.3347558817399999,6.552000000000001,-10.265500000000001,-3.405499999999999
5.2290511870000955,8.4993058752,1.3064811395999998,-2.9862426047999997,-5.6000000000000005,-7.3500000000000005,21.910000000000004,8.375477305650001,0.7111468767199998,-0.49686961289,5.488000000000001,-11.0425,-1.6064999999999983
5.241375149000305,8.681160392799999,1.1700902514,-2.3162522768,-1.8200000000000003,-2.9400000000000004,22.12,8.39258598724,0.7895118168699997,-0.6352944003,4.634,-11.592000000000002,0.3360000000000012
5.250799120000011,9.107082815599998,0.8207381517999999,-0.0693918554,3.0100000000000002,-2.1,21.98,8.43362289483,0.8427521197199999,-0.6734599207699998,4.053000000000001,-12.134500000000001,2.4955000000000016
5.26025909100008,9.5258267706,0.011964112999999998,0.5838487144,5.390000000000001,-3.7800000000000002,22.26,8.50014336311,0.8136793251299999,-0.6983452758099999,3.745,-12.7225,4.728500000000002
5.269757062000281,10.052247742599999,0.3158525832,1.3639088819999998,6.16,-7.140000000000001,22.330000000000002,8.5938223679,0.8157132243399999,-0.6943971185199999,3.661,-13.3875,7.003500000000001
5.279179033000219,10.449456294199999,-0.5934200048,1.9429719511999999,5.53,-9.38,21.910000000000004,8.704251130889997,0.7578069174199997,-0.6697510457399998,3.836,-14.0455,9.138500000000002
5.288621004000106,10.734202183599999,-0.44985064880000003,1.9884355805999996,4.48,-11.48,20.090000000000003,8.832745704509998,0.69116680801,-0.6356533236899999,4.1615,-14.6405,10.7905
5.298165975000302,10.8059868616,-0.8685946038,1.7946169499999998,3.8500000000000005,-12.670000000000002,17.01,8.960881354739998,0.5809773272799997,-0.54987063348,4.5535,-15.0255,12.089
5.307614946000285,10.8107725068,-1.3016954943999999,1.2849457361999996,4.550000000000001,-12.81,10.99,9.090452698529997,0.4497310076699998,-0.4953142782000001,4.746,-15.242500000000003,12.904499999999999
5.3171189170002435,10.743773473999997,-1.5409777543999998,0.9547362173999999,5.180000000000001,-12.180000000000001,5.670000000000001,9.221100812489997,0.30975088556999986,-0.4461417737700001,4.5745,-15.165500000000003,13.356
5.326440889000423,10.7748801678,-1.5912270289999997,0.18664016279999998,3.5000000000000004,-11.55,1.4700000000000002,9.34780076916,0.17527425544999992,-0.42568314054000006,3.9970000000000008,-14.7875,13.5485
5.335963859999993,10.784451458200001,-1.6390834809999997,-0.30149564759999997,5.390000000000001,-11.200000000000001,-0.28,9.474261443569999,0.05347958510999995,-0.41730826143999994,3.188500000000001,-14.280000000000001,13.629000000000001
5.345561830000406,10.796415571199999,-1.7778671918,-0.8374879099999999,7.5600000000000005,-9.100000000000001,-2.31,9.59737216634,-0.06508477472000007,-0.42448672924,2.3905000000000003,-13.664000000000001,13.513500000000002
5.355053801000395,10.8227366198,-1.9118652573999997,-1.1126625089999997,9.8,-6.23,-4.62,9.715816885039999,-0.18352949342000002,-0.4429114632599999,1.8375,-12.848499999999998,13.181000000000003
5.364564771999994,10.703095489799999,-1.8879370314,-1.4620146085999999,11.830000000000002,-3.0100000000000002,-8.96,9.8249295956,-0.29108686929000005,-0.4809573426000001,1.7710000000000001,-11.784499999999998,12.46
5.38110172100005,10.5714902468,-1.6342978357999998,-1.5050854154,12.530000000000001,2.5900000000000003,-15.330000000000002,9.921121064120001,-0.38967116041,-0.5102694194499999,2.219,-10.296999999999999,11.277000000000001
5.390524693000316,10.449456294199999,-1.3351950108,-1.5026925928,13.370000000000001,4.41,-19.46,10.004989496250001,-0.48335016519999996,-0.5106283428399999,3.0905,-8.718499999999999,9.687999999999999
5.400061663000088,10.310672583399999,-1.0911271056,-1.7443676754,13.930000000000001,5.53,-23.1,10.08490977109,-0.57930235146,-0.49387858463999984,4.3260000000000005,-7.2029999999999985,7.763
5.409465635000288,10.114461130199999,-0.71784678,-1.9286150155999997,12.040000000000001,7.840000000000001,-24.64,10.1623175822,-0.67082781591,-0.44578285037999993,5.537000000000001,-5.778499999999999,5.5474999999999985
5.419055605000267,9.994820000199999,-0.4211367776,-2.0578274359999997,10.290000000000001,9.8,-24.570000000000004,10.23661472393,-0.7568497883799999,-0.38620156764,6.5485000000000015,-4.637500000000001,3.2234999999999987
5.428471575999993,9.772287498399999,0.0382851616,-2.0865413072,7.910000000000001,11.410000000000002,-22.820000000000004,10.300263805090001,-0.8202595872799998,-0.3412165027600001,7.224000000000001,-3.6995000000000013,0.9869999999999971
5.437986547000037,9.566504754799999,0.38763726119999997,-1.8352949342,5.880000000000001,13.020000000000001,-18.76,10.34453102319,-0.8593822367899999,-0.31716863563,7.609,-2.9015000000000013,-1.0570000000000002
5.447559518000162,9.4061856406,0.6747759731999999,-1.4333007374,5.180000000000001,13.090000000000002,-14.560000000000002,10.35948616444,-0.8666803457200001,-0.38536407973,7.717500000000001,-2.1420000000000012,-2.8840000000000003
5.456947489000413,9.178867493599999,0.8518448456000001,-0.9260223461999999,6.0200000000000005,11.9,-12.040000000000001,10.34213820059,-0.82468630909,-0.4608576327599999,7.749000000000002,-1.3580000000000012,-4.599
5.4665814600002705,9.068797653999999,0.8925228297999999,-0.37328032559999996,5.74,10.22,-8.89,10.29296569616,-0.7958527967600002,-0.5477170931399999,7.728000000000003,-0.4900000000000001,-6.160000000000002
5.476090431000102,8.8271225714,0.9978070242,0.05982056499999999,5.460000000000001,9.100000000000001,-7.210000000000001,10.21184901002,-0.7162914453100001,-0.64187466245,7.7245000000000035,0.43399999999999983,-7.616000000000001
5.485484402000111,8.669196279799998,1.0121639597999998,0.5575276658,5.390000000000001,8.4,-4.41,10.108598714829998,-0.64319071488,-0.71342005819,7.770000000000001,1.427999999999999,-8.841
5.494843373000094,8.4610207136,0.8853443619999999,0.8877371846000001,6.370000000000001,8.33,-2.66,9.991350407429998,-0.55549376659,-0.7587640464600001,7.8960000000000035,2.4779999999999998,-9.824500000000002
5.50420034400031,8.2600236152,0.7417750059999999,1.4524433182,7.07,8.120000000000001,-2.45,9.863812962849998,-0.45332024157000006,-0.7503891673600002,8.022000000000002,3.5245000000000006,-10.4965
5.5141653140003655,8.1882389372,0.6173482307999999,1.8640088054,6.370000000000001,7.420000000000001,-1.6800000000000002,9.736036236009998,-0.34540394231000004,-0.7049255379600001,8.081500000000002,4.504500000000001,-10.864
5.523589285000071,7.910671515599999,0.41635113239999993,2.2205393728,3.43,5.670000000000001,0.28,9.592825803399998,-0.24502503423999994,-0.6032305774600001,8.078,5.365500000000001,-10.923499999999999
5.5329612560003625,7.743173933599999,0.23928225999999997,2.2971096959999997,1.2600000000000002,2.9400000000000004,-0.56,9.440761927169998,-0.15110674719,-0.47330031028000014,7.8715,6.072500000000002,-10.9375
5.54250522700022,7.434499818199998,0.1579262916,2.3066809864,-0.9800000000000001,0.6300000000000001,-1.05,9.272666139519998,-0.054317073019999995,-0.3160918654600001,7.4445,6.559000000000002,-10.874500000000001
5.551908198000092,7.2574309458,0.1387837108,2.129612114,-1.54,-3.6400000000000006,0.56,9.094400855819998,0.04821537538999994,-0.15397813431000007,6.877500000000002,6.6884999999999994,-10.6155
