time,aX,aY,aZ,gX,gY,gZ,faX,faY,faZ,fgX,fgY,fgZ
0.1352146010000297,7.482356270199999,-1.4620146085999999,3.9696926934,32.34,-19.180000000000003,5.32,7.611688331730001,-1.5315261051299998,3.97878541928,11.175500000000003,-12.446,0.2345000000000001
0.14229458099998737,7.9824561936,-1.5529418674,4.0055850324,26.320000000000004,-18.62,6.23,7.704649489740001,-1.5326028752999998,3.7678581070900004,14.308000000000002,-14.784,0.5355000000000001
0.1494195599999557,7.8053873212,-1.6486547713999997,3.7543386593999997,22.330000000000002,-18.270000000000003,6.65,7.777989502429999,-1.52949220592,3.78927386936,34.90900000000001,-8.466500000000002,1.2075
0.15645453900003758,7.7790662726,-1.6582260617999998,3.639483174599999,17.01,-17.71,10.080000000000002,7.78732151057,-1.52446727846,3.7926238210000003,33.379500000000014,-9.705500000000002,1.6660000000000004
0.16363151799998832,8.0303126456,-1.7012968685999998,3.4911281733999995,9.590000000000002,-15.750000000000002,13.580000000000002,7.80526768007,-1.52315122603,3.7904702806600006,31.073000000000008,-10.811500000000002,2.5060000000000002
0.17073549700000967,8.2241312762,-1.7084753364,3.2853454297999996,-0.9100000000000001,-13.650000000000002,15.120000000000001,7.8317083698,-1.5291332825300001,3.7791043733099996,29.400000000000013,-11.445000000000004,3.6295
0.17786247599997296,8.338986761,-1.7922241274,3.0819555087999997,-7.07,-9.73,15.05,7.86616501524,-1.5379867261500002,3.7640295909299994,27.92300000000001,-11.749500000000001,4.721500000000001
0.18484045499997137,8.506484342999999,-2.0482561456,3.026920589,-12.32,-7.490000000000001,12.670000000000002,7.90636443492,-1.56263279893,3.745724498039999,26.2815,-11.931500000000003,5.617500000000001
0.1919094339999674,8.523234101199998,-2.1655044529999996,3.6514472876,-11.9,-6.790000000000001,10.360000000000001,7.9462049312100005,-1.59338056934,3.7570904053899996,24.647000000000006,-12.110000000000001,6.300000000000001
0.1989414139999326,8.650053698999999,-2.1846470337999997,3.0604201053999995,-8.47,-8.33,7.5600000000000005,7.9931042541699995,-1.6242479808799999,3.7377085423299987,23.044,-12.355000000000002,6.8075
0.2057483940000111,8.7433737804,-2.2037896146,3.0819555087999997,0.56,-10.64,6.930000000000001,8.04550706911,-1.6542779045099998,3.7165320623199998,21.7455,-12.684000000000003,7.210000000000001
0.21282637299998441,8.8390866844,-2.1463618722,3.0699913958,6.510000000000001,-12.81,7.630000000000001,8.103413376030002,-1.6835899813600002,3.691048501629999,20.506499999999996,-13.058500000000004,6.713000000000001
0.2199613519999275,8.8845503138,-2.1511475173999997,3.146561719,12.670000000000002,-15.750000000000002,8.33,8.159525065999999,-1.7133806227300004,3.6650863764199997,18.4695,-13.531000000000002,7.112000000000002
0.2271113309999464,8.8701933782,-2.1320049365999996,3.1369904286,18.62,-16.59,7.630000000000001,8.20702259461,-1.74652121574,3.62967260194,17.4335,-13.961500000000001,7.451500000000001
0.23411930999998276,8.7673020064,-2.2444675987999996,3.1369904286,20.930000000000003,-16.310000000000002,6.370000000000001,8.24937555463,-1.78528494186,3.5863625128799996,16.401,-14.297500000000003,7.717500000000001
0.24128728899995622,8.6285182956,-2.2947168733999996,3.0915267991999995,18.55,-15.96,5.460000000000001,8.284789329110001,-1.8281164663999998,3.53360077455,15.207500000000001,-14.493500000000001,7.927500000000002
0.24841326800003571,8.6644106346,-2.2636101795999997,3.0795626862,13.510000000000002,-14.350000000000001,5.040000000000001,8.32032274472,-1.8719051199799999,3.4760533910199998,13.7655,-14.507500000000002,8.085
0.2553892480000286,8.6333039408,-2.1846470337999997,2.9599215562,6.720000000000001,-11.690000000000001,4.550000000000001,8.35442046677,-1.9119848985299999,3.4118061042099996,12.029500000000002,-14.301000000000005,8.169
0.26262022599996726,8.7050886188,-2.1248264688,2.9096722816000002,-3.5000000000000004,-9.170000000000002,3.5700000000000003,8.39150921707,-1.9509879069099998,3.33655183344,9.873500000000003,-13.874000000000004,8.141000000000002
0.269701204999933,8.7409809578,-2.1128623558,2.8283163131999998,-11.55,-5.95,2.8000000000000003,8.43996387472,-1.9890337862499998,3.27039028855,7.497000000000002,-13.237,8.046500000000002
0.27668218500002695,8.8199441036,-2.1128623558,2.7110680057999996,-19.180000000000003,-3.22,1.9600000000000002,8.50684326639,-2.0215761736099997,3.2074590541699997,4.921000000000001,-12.439,7.878500000000001
0.2838061639999978,8.867800555599999,-2.0745771942,2.5579273594,-26.810000000000002,-1.61,1.54,8.55111048449,-2.0476579399499997,3.1350761705199996,2.264500000000001,-11.5885,7.644000000000001
0.2908641430000216,8.8558364426,-2.0650059038,2.3521446158,-30.800000000000004,-0.8400000000000001,1.33,8.60363294056,-2.0684754965699996,3.0649664683399998,-0.3919999999999998,-10.717000000000002,7.378000000000002
0.2979881219999925,8.709874264,-2.045863323,2.1918255016,-34.230000000000004,-1.12,1.33,8.65017334013,-2.0878573596299996,2.9925835846899997,-2.954,-9.887500000000003,6.940500000000002
0.3049671019999778,8.408378616399999,-2.0626130812,1.9740786449999996,-36.400000000000006,-2.66,1.12,8.669076638670003,-2.1059231702599996,2.91673110827,-5.253500000000001,-9.233,6.317500000000001
0.3120290809999915,8.1882389372,-2.1032910653999997,1.7778671918,-38.43000000000001,-4.760000000000001,0.49000000000000005,8.667282021720002,-2.12566395671,2.84135719637,-7.1295,-8.7885,5.586
0.3190670599999521,8.027919823,-2.2133609049999996,1.4859428345999999,-40.18000000000001,-6.23,-1.1900000000000002,8.651728674820001,-2.1467207955900003,2.76155656266,-8.785,-8.613499999999998,4.773999999999999
0.326093038999943,7.9776705484,-2.3282163898,1.2442677519999998,-40.81,-7.210000000000001,-2.45,8.62528798509,-2.1607188078,2.67242392081,-10.209500000000002,-8.599499999999999,4.018
0.33311601899993093,8.061419339399999,-2.4191436485999995,1.1437692027999997,-38.92,-6.300000000000001,-4.0600000000000005,8.602197247,-2.1734007675799996,2.54704001657,-11.560500000000001,-8.575000000000001,3.2969999999999997
0.34025799799997003,8.190631759799999,-2.3641087288,1.0695917021999999,-37.1,-4.69,-5.880000000000001,8.57922615004,-2.1823738523299996,2.44749859641,-12.992,-8.393,2.6249999999999996
0.3473459770000318,8.389236035599998,-2.3880369548,1.1006983959999999,-34.300000000000004,-1.61,-6.720000000000001,8.5615192628,-2.1915862193399995,2.34843574077,-14.735000000000003,-7.941500000000002,1.9424999999999997
0.3544639560000178,8.4610207136,-2.3976082452,1.1126625089999997,-31.640000000000004,-0.14,-7.490000000000001,8.542615964259998,-2.2041485379899997,2.2505692964299997,-16.642500000000002,-7.308000000000002,1.1864999999999999
0.3615659349999305,8.4634135362,-2.3880369548,1.1820543644,-29.820000000000004,1.7500000000000002,-7.5600000000000005,8.521559125379998,-2.215993009859999,2.1523439287,-18.767000000000003,-6.433000000000002,0.39199999999999957
0.36862691399994674,8.4514494232,-2.4000010678,1.2825529135999998,-28.840000000000003,3.22,-7.5600000000000005,8.500621927629997,-2.22939281642,2.05962205295,-21.140000000000004,-5.442500000000001,-0.36749999999999994
0.37573989299994537,8.3940216808,-2.3832513096,1.4021940436,-25.62,3.2900000000000005,-7.3500000000000005,8.481957911349998,-2.2363320019599997,1.9728822337,-23.4675,-4.4625,-1.0535
0.3826968729999862,8.568697730599999,-2.2205393728,1.6247265453999997,-23.03,1.8200000000000003,-9.24,8.478966883099998,-2.2326231269299996,1.8995422210099995,-25.5465,-3.5735,-1.7885000000000004
0.3898078519999899,8.365307809599999,-2.3066809864,1.686939933,-20.650000000000002,-0.35000000000000003,-9.030000000000001,8.46401174185,-2.23477666727,1.8299110833499994,-27.2545,-2.8735000000000004,-2.4920000000000004
0.39671283099994525,8.583054666199999,-2.1559331626,1.8927226765999996,-17.64,-1.7500000000000002,-8.96,8.461499278119998,-2.2333409737099994,1.7765511393699995,-28.472500000000004,-2.3765000000000005,-3.1675000000000004
0.4039878099999896,8.482556117,-2.1008982428,1.8305092889999999,-12.670000000000002,-4.62,-7.700000000000001,8.450372653030001,-2.23214456241,1.7225929897399996,-28.931,-2.149,-3.7310000000000008
0.41106178899997303,9.1812603162,-2.1391834043999998,1.8975083218,-8.33,-6.16,-4.2700000000000005,8.47238662095,-2.2334606148399994,1.6760525901699996,-28.77,-2.1595,-4.0845
0.4187817659999382,8.6644106346,-2.0841484845999996,2.0099709839999997,-5.460000000000001,-5.670000000000001,-1.4000000000000001,8.464609947499998,-2.23202492128,1.6409977390800001,-28.084000000000003,-2.282,-4.2525
0.4258247459999893,8.671589102399999,-2.0554346134,2.0578274359999997,-2.7300000000000004,-3.99,0.8400000000000001,8.454799374839997,-2.23106779224,1.6159927429099998,-26.880000000000003,-2.4010000000000002,-4.287500000000001
0.4328947249999828,8.7505522482,-2.0291135648,2.0985054202,-3.1500000000000004,-2.31,2.5900000000000003,8.449535165119997,-2.22927317529,1.6033107831299998,-25.4975,-2.474500000000001,-4.224500000000001
0.4399387039999283,8.793623055,-1.9501504189999996,2.1798613885999996,-6.090000000000001,-1.6800000000000002,6.090000000000001,8.453722604669998,-2.2244875300899998,1.6027125774799997,-24.09049999999999,-2.502500000000001,-3.986500000000001
0.4471446830000332,8.669196279799998,-1.9932212258,2.2468604213999996,-8.82,-1.4000000000000001,8.82,8.466763487839998,-2.22101793732,1.6163516662999995,-22.711499999999997,-2.4395000000000007,-3.6015000000000015
0.4541896619999761,8.5399838594,-1.9597217093999997,2.2301106632,-11.13,-0.9800000000000001,11.760000000000002,8.484350733949999,-2.21383946952,1.6389638398699997,-21.346499999999995,-2.2505,-3.0380000000000003
0.46125064099999236,8.4993058752,-1.9716858223999998,2.2061824372,-14.63,-0.35000000000000003,15.610000000000001,8.507920036559998,-2.2017557153899996,1.6749758199999998,-20.068999999999996,-1.9565000000000001,-2.1980000000000004
0.4683906200000365,8.547162327199999,-1.9142580799999998,2.0482561456,-16.87,0.28,18.130000000000003,8.5363946255,-2.1810577998999996,1.71517523968,-18.871999999999996,-1.582,-1.169000000000001
0.47540760000003957,8.578269020999999,-1.7084753364,2.0721843715999997,-18.55,0.49000000000000005,23.660000000000004,8.56223710958,-2.14552438429,1.76159599812,-17.8535,-1.2425,0.21699999999999947
0.4824455790000002,8.755337893399998,-1.5720844482,2.1511475173999997,-17.01,0.6300000000000001,30.310000000000002,8.59047241626,-2.10592317026,1.8156737888799999,-16.849000000000004,-0.9765,2.0265
0.4894675580000012,8.9419780562,-1.5529418674,2.3856441322,-14.000000000000002,-0.56,53.550000000000004,8.61810951729,-2.0641684158899993,1.87992107569,-15.834,-0.924,5.040000000000001
0.49637653799993586,8.709874264,-1.5026925928,3.0317062341999996,-6.720000000000001,-2.24,46.480000000000004,8.630552194809999,-2.01942263327,1.97587326195,-14.588000000000005,-1.029,7.738500000000002
0.5034685169999875,8.5926259566,-1.6031911419999998,2.5938196983999995,-0.21000000000000002,-4.62,55.86000000000001,8.63701281583,-1.9801803426300002,2.04646152865,-13.107500000000002,-1.3475,10.909500000000003
0.5105494959999533,8.4538422458,-1.698904046,2.7780670385999997,5.880000000000001,-5.040000000000001,61.18000000000001,8.637132456959998,-1.9451254915400003,2.1212372348999997,-11.371500000000001,-1.7605,14.346500000000002
0.5175974750000023,8.185846114599999,-1.9884355805999996,2.87138712,15.260000000000002,-5.180000000000001,62.09,8.626723678649999,-1.92538470509,2.1946968887200002,-9.327500000000002,-2.1839999999999997,17.8185
0.5246844539999529,8.0374911134,-2.1104695332,2.9479574431999995,18.830000000000002,-5.6000000000000005,60.970000000000006,8.600163347789998,-1.9198812131099998,2.2608584336099993,-7.2345000000000015,-2.5549999999999997,21.329
0.5317604340000344,7.951349499799999,-2.0793628394,3.0604201053999995,21.490000000000002,-6.720000000000001,61.39000000000001,8.579465432299996,-1.90851530576,2.3295324422299997,-5.1275,-2.8735,24.850000000000005
0.5387954130000026,7.980063371,-1.9764714675999997,3.194418171,21.700000000000003,-8.89,62.230000000000004,8.549315867539997,-1.89954222101,2.3946172169499995,-3.160500000000001,-3.2305,28.4095
0.5458243919999859,7.927421273799999,-2.0075781614,3.3690942208,19.32,-12.46,64.4,8.521559125379998,-1.8948762169399997,2.47154646354,-1.5610000000000004,-3.622500000000001,32.014500000000005
0.5528473719999738,7.889136112199999,-2.1607188078,3.5150563993999997,15.750000000000002,-13.510000000000002,68.53,8.456952915179999,-1.8959529871099998,2.55242386742,-0.35699999999999993,-3.9900000000000007,35.6545
0.5599163509999698,8.147560953,-2.2157537275999997,3.4600214796,13.3,-10.71,67.83000000000001,8.431110431099999,-1.90253324926,2.6249263922,0.5810000000000005,-4.242,39.116
0.567007330000024,8.3772719226,-2.763710103,3.4815568829999997,7.420000000000001,-6.930000000000001,67.27000000000001,8.416394572109999,-1.93794702374,2.6961128645500003,1.0885,-4.389,42.4375
0.574050308999972,8.475377649199999,-3.0795626862,3.639483174599999,-2.24,-2.3800000000000003,64.12,8.402635842159999,-1.99046947981,2.7731617522700005,1.1340000000000003,-4.392500000000001,45.514
0.5811352879999276,8.283951841199999,-3.3762726885999994,3.7998022887999996,-5.53,2.45,61.46000000000001,8.37715228147,-2.06177559329,2.8541587972800007,1.1620000000000004,-4.186000000000001,48.282500000000006
0.5887692659999857,8.207381518,-3.816552047,3.9672998707999994,-12.110000000000001,6.300000000000001,58.52,8.35406154338,-2.15294213435,2.9401807697500004,0.9974999999999998,-3.8010000000000006,50.7675
0.5956592449999789,8.207381518,-4.1060835816,4.141975920599999,-20.160000000000004,9.940000000000001,53.900000000000006,8.337431426310001,-2.26026022796,3.03577403262,0.546,-3.2550000000000012,52.8745
0.6026792249999744,8.238488211799998,-4.4123648744,4.137190275399999,-31.710000000000004,12.180000000000001,46.900000000000006,8.32439054314,-2.3822941805599998,3.13232442453,-0.3080000000000004,-2.6285,54.43900000000001
0.6097652039999275,8.097311678399999,-4.6277189084,4.170689791799999,-39.480000000000004,14.21,39.900000000000006,8.301898010699999,-2.51796722198,3.2384461068399992,-1.4385,-1.932,55.52750000000001
0.6168391830000246,8.0685978072,-4.905286329999999,4.235296001999999,-46.900000000000006,16.240000000000002,32.480000000000004,8.276414450009998,-2.6778077716599995,3.34660168836,-2.8560000000000003,-1.1445000000000003,55.968500000000006
0.6240061610000112,8.0590265168,-5.0656054442,4.0295132584,-54.040000000000006,16.1,25.270000000000003,8.241598881179998,-2.8524838214599995,3.4405199754100004,-4.7075000000000005,-0.3710000000000001,55.71650000000001
0.6310671400000274,8.190631759799999,-5.1637111708,3.7663027724,-54.81,13.370000000000001,21.98,8.20403156636,-3.0330222866299996,3.5095529074199994,-6.748000000000002,0.32550000000000007,54.138
0.6380931200000077,8.3748791,-5.3982077855999995,3.6466616424,-51.730000000000004,9.940000000000001,16.66,8.18728180816,-3.2277980462699993,3.5403006778299995,-8.998500000000002,0.9344999999999992,52.647000000000006
0.6451250989999835,8.429914019799998,-5.620740287399999,3.5844482548,-41.02,7.280000000000001,11.620000000000001,8.179146211319999,-3.42867550354,3.5898321056499993,-11.039000000000003,1.5294999999999994,50.434999999999995
0.6521660779999365,8.2815590186,-5.8169517405999995,3.5485559157999993,-30.730000000000004,5.040000000000001,7.140000000000001,8.17053204996,-3.6345778882700004,3.6283565495099994,-12.869500000000002,2.0335000000000005,47.733
0.6592410570000311,8.327022648,-6.0705909361999995,3.5270205124,-18.55,4.9,-1.4700000000000002,8.177590876630001,-3.838685656050001,3.6611382191299997,-14.560000000000002,2.5375,44.55499999999999
0.6662520359999462,8.267202082999999,-6.3601224707999995,3.649054465,-13.020000000000001,5.6000000000000005,-9.870000000000001,8.18907642511,-4.05116830293,3.69619307022,-16.1525,3.0975000000000006,41.01299999999999
0.6734180150000384,8.216952808399999,-6.470192310399999,3.785445353199999,-8.120000000000001,6.580000000000001,-19.040000000000003,8.20235659054,-4.2707097764799995,3.73244433261,-17.633000000000003,3.7625,36.991499999999995
0.6804729939999561,8.0781690976,-6.498906181599999,3.9266218865999996,1.8900000000000001,6.580000000000001,-30.590000000000003,8.207261876870001,-4.496831512179999,3.769054518390001,-18.6235,4.536,32.3505
0.6875229730000001,8.0542408716,-6.477370778199999,4.1012979364,8.190000000000001,6.23,-37.24,8.213602856760001,-4.720321143019999,3.8056647041700002,-19.18,5.4705,27.268499999999996
0.6945339520000289,7.984849016199999,-6.3361942448,4.1012979364,14.21,6.300000000000001,-45.080000000000005,8.218388501960002,-4.929094914869999,3.83497678102,-19.257000000000005,6.461000000000001,21.587999999999997
0.7021779289999586,7.953742322399998,-6.1782679532,4.2161534212,15.47,7.840000000000001,-52.220000000000006,8.208697570430001,-5.12722062615,3.8727833781000003,-19.148500000000006,7.388500000000002,15.5855
0.7092709080000077,7.968099258,-5.958128274,4.175475436999999,16.66,9.73,-59.080000000000005,8.188238937199998,-5.286941534699999,3.9074793058000004,-18.686500000000002,8.2215,9.268
0.7162348880000309,7.920242806,-5.7690952886,4.0295132584,17.080000000000002,10.57,-62.650000000000006,8.160482195039998,-5.4214181648199995,3.9269808099900003,-17.7205,8.869000000000002,2.9294999999999987
0.7232918669999435,7.733602643199999,-5.6925249654,4.711467699399999,19.6,9.38,-63.56000000000001,8.132964735139998,-5.537230778659999,3.9725640805200007,-16.464000000000002,9.2155,-3.3215000000000017
0.7304798449999907,7.702495949399999,-4.857429878,4.5990050371999995,27.090000000000003,8.05,-64.19000000000001,8.107720456709998,-5.58927467021,4.00414933884,-14.504000000000001,9.303,-9.457000000000003
0.737507824999966,7.8364940149999995,-4.941178668999999,4.218546243799999,21.07,1.2600000000000002,-65.73,8.08917608156,-5.63102942458,4.007977855,-12.442499999999999,8.869,-15.438500000000005
0.7445488040000328,7.788637563,-4.6085763276,4.4195433422,11.13,-1.54,-66.01,8.066683549119999,-5.6408399972400005,4.02209550834,-10.300500000000001,8.183,-21.084000000000003
0.7515767830000186,7.6881390138,-4.3812581806,4.247260115,6.720000000000001,-3.5700000000000003,-73.15,8.046224915889999,-5.628516960850001,4.025924024499999,-7.9905,7.294000000000001,-26.7365
0.7585687619999817,7.558926593399999,-4.3118663252,3.888336725,6.370000000000001,-8.540000000000001,-76.93,8.0207413552,-5.598845960610001,4.00857606065,-5.327000000000003,6.055000000000001,-32.20700000000001
0.7654357420000224,7.542176835199999,-3.7567314819999997,3.6299118841999998,5.880000000000001,-11.9,-77.77000000000001,7.99489887112,-5.5334022625,3.98859599194,-2.3310000000000026,4.654999999999999,-37.359
0.7724277209999855,7.6283184488,-3.4289147857999995,3.4002009145999996,6.580000000000001,-11.200000000000001,-78.47000000000001,7.9667832055700005,-5.44666244325,3.9702908990500005,0.7384999999999993,3.4264999999999985,-42.3815
0.7795106999999462,7.77667345,-3.1992038162,3.1968109935999998,8.05,-7.280000000000001,-77.56,7.93687292307,-5.33671224478,3.9477983666100003,3.7275,2.565499999999999,-47.092499999999994
0.7865426790000356,7.9776705484,-2.6249263922,3.2207392195999995,14.490000000000002,-3.8500000000000005,-75.39,7.9142607495,-5.18692155002,3.9296129148500007,6.503,2.008999999999999,-51.443000000000005
0.7936446579999483,7.9776705484,-2.2755742925999995,3.2063822839999996,21.14,-3.3600000000000003,-72.80000000000001,7.899066325989999,-5.00985267762,3.9125042332600004,9.0965,1.5889999999999993,-55.44
0.8007786370000076,7.8436724828,-2.03389921,3.2925238975999997,26.810000000000002,-6.370000000000001,-69.30000000000001,7.874898817729999,-4.80801809131,3.9007794025200004,11.364500000000001,1.025499999999999,-58.831500000000005
0.8078956159999962,7.5900332872,-1.9860427579999997,3.4384860762,30.1,-11.620000000000001,-67.9,7.84104037794,-4.58931410567,3.89025098308,13.520500000000002,0.1644999999999996,-61.733000000000004
0.8149145950000047,7.357929495,-1.8640088054,3.4193434953999997,30.870000000000005,-18.41,-69.58000000000001,7.79808921227,-4.359004930419999,3.8719458901899997,15.470000000000002,-1.085,-64.26
0.8220455739999579,7.369893607999999,-1.6271193679999998,3.2853454297999996,31.150000000000002,-22.820000000000004,-72.24000000000001,7.76267543779,-4.115415589739999,3.8398820673499996,16.933,-2.555,-66.3425
0.8290825530000347,7.350751027199999,-1.4907284798,3.2063822839999996,30.660000000000004,-25.270000000000003,-72.94000000000001,7.727500945570002,-3.8660834748199995,3.79513628473,18.056500000000003,-4.130000000000001,-68.12750000000001
0.83608953199996,7.625925626199998,-0.6723831505999999,3.046063169799999,29.750000000000004,-24.85,-71.54,7.70955477607,-3.582892920109999,3.7423745463999993,18.8335,-5.6875,-69.4505
0.8431855110000015,7.7718878047999995,-1.0097711372,2.6943182475999996,27.720000000000002,-23.380000000000003,-64.19000000000001,7.7004620501900005,-3.3244680793099994,3.666282787719999,19.446,-7.2485,-70.049
0.8501874899999393,7.810172966399999,-0.8470592004,2.2731814699999995,26.180000000000003,-23.1,-55.93000000000001,7.692565735609999,-3.0689146256299993,3.5711680893699986,19.922000000000004,-8.889999999999999,-69.89150000000002
0.8573644690000037,7.984849016199999,-0.8398807326,2.0578274359999997,27.580000000000002,-23.310000000000002,-46.690000000000005,7.695796046119999,-2.822453897829999,3.4725837982499987,20.447000000000003,-10.584,-69.09350000000002
0.864442447999977,8.0111700648,-1.0121639597999998,1.8329021115999997,34.02,-24.290000000000003,-37.59,7.7096744172000005,-2.5884358475499996,3.3286555188599998,21.168,-12.2675,-67.79500000000002
0.8714994270000034,8.0087772422,-1.1102696864,1.7036896912000001,40.32000000000001,-26.46,-34.160000000000004,7.7249884818400005,-2.401077837969999,3.1838897515599993,21.829500000000003,-13.993,-66.29350000000002
0.8785924059999388,7.8819576444,-1.2203395259999998,1.4979069475999998,50.68000000000001,-27.930000000000003,-32.2,7.72726166331,-2.2150358808199995,3.04785778675,23.310000000000002,-15.4525,-64.61700000000002
0.8858643840000013,7.7096744172,-1.4500504955999998,1.4524433182,56.42000000000001,-28.700000000000003,-30.380000000000003,7.72331350602,-2.0571095892199995,2.8995027855499993,25.5745,-16.810499999999998,-62.835500000000025
0.8930083630000354,7.755138046599999,-1.3926227532000002,1.5361921092,64.26,-27.160000000000004,-27.790000000000003,7.72666345766,-1.9076778178500002,2.7639493852599992,28.451500000000003,-17.990000000000002,-60.56750000000002
0.9000623419999556,8.1260255496,-1.1772687192,1.5912270289999997,71.26,-23.590000000000003,-28.35,7.755018405470001,-1.7509479375499999,2.6490939004599996,31.696000000000005,-18.7425,-58.13850000000001
0.9071753209999542,8.6668034572,-0.8973084749999999,1.6582260617999998,78.96000000000001,-21.98,-30.450000000000003,7.81124973657,-1.6079767872000001,2.5505096093399997,35.35000000000001,-19.246500000000005,-55.772500000000015
0.9143162999999959,8.7673020064,-0.7680960546,1.7730815465999998,93.87,-24.01,-29.890000000000004,7.86819891445,-1.47493585064,2.4691536409399992,39.7145,-19.887,-53.34350000000002
0.9212302789999285,8.671589102399999,-0.7345965381999999,1.8400805794,105.00000000000001,-28.560000000000002,-26.390000000000004,7.912944697069999,-1.3517054867399998,2.40131712023,44.562,-20.951,-50.78500000000001
0.9281762589999971,8.836693861799999,-0.7082754896000001,1.9501504189999996,112.63000000000001,-31.01,-21.910000000000004,7.95589586274,-1.25587294161,2.3377876801999995,49.46900000000001,-22.309,-48.111000000000004
0.935277238000026,8.915657007599998,-0.6269195211999999,2.0171494518,117.60000000000001,-31.220000000000002,-18.48,8.002795185699998,-1.1734402030400002,2.27832603859,54.291999999999994,-23.702,-45.39500000000001
0.9423372169999311,9.482755963799999,-0.8590233134,2.5244278430000002,114.73,-27.650000000000002,-16.87,8.08474935975,-1.1146964082100002,2.23992123586,58.688,-24.766,-42.773500000000006
0.949391195999965,9.384650237199999,-1.0336993632,2.8115665549999997,107.38000000000001,-20.930000000000003,-15.540000000000001,8.17448020725,-1.06707923847,2.2085752598,62.55200000000001,-25.2315,-40.1555
0.9564461749999964,8.5926259566,-1.1294122671999998,2.950350265799999,96.18,-15.820000000000002,-17.01,8.23621503033,-1.03034941156,2.18512559832,65.81750000000001,-25.102,-37.527
0.9635541540000077,9.4468636248,-1.2155538808,3.2039894614,84.42,-13.650000000000002,-18.200000000000003,8.34006353117,-1.0097711372,2.1810577998999996,68.48100000000002,-24.6435,-34.825
0.970679132999976,9.6526463684,-1.1174481541999999,3.3188449462,71.47000000000001,-14.280000000000001,-18.62,8.455158298229998,-0.99110712092,2.18668093301,70.52150000000002,-24.094,-32.109
0.9777331120000099,9.9876415324,-1.1341979124,3.3834511564,65.38000000000001,-16.59,-16.87,8.573244093540001,-1.0141978590099998,2.20355033234,72.30300000000003,-23.680999999999997,-29.375500000000006
0.9854430890000003,10.2245309698,-1.1724830739999998,3.3260234139999993,62.370000000000005,-20.23,-12.740000000000002,8.69587625179,-1.0223334558499997,2.2351355906599997,74.03550000000003,-23.5235,-26.803000000000004
0.9925330679999433,10.451849116799998,-1.1940184774,3.1657042998,61.46000000000001,-26.320000000000004,-10.360000000000001,8.82796005931,-1.0396814197,2.27976173215,75.79950000000001,-23.684499999999996,-24.5245
0.9995420469999772,10.6025969406,-1.2442677519999998,3.0029923629999997,64.61,-29.470000000000002,-8.33,8.958847455530002,-1.0599007706699999,2.3270199784999996,77.65100000000001,-23.9925,-22.606500000000004
1.0066030259999934,10.731809360999998,-1.3016954943999999,2.9623143788,67.41000000000001,-30.94,-8.260000000000002,9.09487942034,-1.0743773474,2.38349059186,79.32050000000001,-24.324999999999996,-21.140000000000008
1.013769004999972,10.5810615372,-1.5074782379999998,3.0436703471999995,67.97000000000001,-28.770000000000003,-8.260000000000002,9.223493635089998,-1.0942377749799999,2.45048962466,80.703,-24.4405,-19.845000000000002
1.0208259839999982,10.6193466988,-1.7108681589999999,3.0436703471999995,64.82000000000001,-23.03,-8.75,9.360363087809999,-1.1187642066299999,2.5277777946399995,81.41000000000001,-24.1955,-18.6725
1.0278789630000347,10.502098391399999,-1.7659030788,3.1728827676,60.13,-14.280000000000001,-8.47,9.49998428652,-1.1345568357900002,2.6137997671099997,81.59550000000002,-23.4745,-17.577
1.0348679420000053,10.4063854874,-1.5337992865999999,3.1968109935999998,53.690000000000005,-8.680000000000001,-8.4,9.632546658559999,-1.14161566246,2.69683071133,81.06700000000001,-22.550500000000003,-16.607499999999998
1.0420889209999586,10.363314680599997,-2.1942183242,3.5772697869999996,45.150000000000006,-4.69,-9.31,9.74441111511,-1.1924631427100003,2.7961328492299993,79.76150000000003,-21.6055,-15.6555
1.049072899999942,10.241280727999998,-1.8664016279999998,3.7782668854,40.6,-3.7800000000000002,-11.270000000000001,9.82313497865,-1.2409178003599999,2.9021348904099997,77.84350000000002,-20.6955,-14.6965
1.0560648790000187,10.260423308799998,-1.8424734019999998,3.8476587407999996,33.18,-5.6000000000000005,-12.950000000000001,9.897791043769999,-1.29463666773,3.00586375012,74.80900000000001,-19.775,-13.849500000000003
1.063208857999939,10.372885970999999,-1.8017954178,3.7519458367999996,28.630000000000003,-10.080000000000002,-13.580000000000002,9.9828558872,-1.34799661171,3.101457012989999,70.99050000000003,-18.850999999999996,-13.209000000000003
1.0703088369999705,10.375278793599998,-1.7419748528,3.6083764807999996,25.130000000000003,-13.650000000000002,-13.580000000000002,10.059785133789998,-1.3996815798699997,3.1843683160799996,66.61550000000003,-17.982999999999997,-12.792500000000002
1.0774118159999944,10.368100325799999,-1.7180466268,3.5198420445999994,22.96,-15.96,-12.040000000000001,10.132407299699997,-1.4542379351499997,3.25950294572,61.883500000000026,-17.22,-12.470500000000001
1.0844317950000004,10.3872429066,-1.7395820302,3.3116664784,23.520000000000003,-18.62,-10.360000000000001,10.177631646839995,-1.4982658709899999,3.29886487749,57.32300000000002,-16.768499999999996,-12.145000000000003
1.0914927740000167,10.2460663732,-1.7682959014,3.1633114771999993,28.630000000000003,-19.740000000000002,-6.720000000000001,10.220702453639998,-1.5349956979,3.316452123599999,53.385500000000015,-16.709,-11.704000000000004
1.0985247529999924,10.0666046782,-1.8209379985999998,3.1082765574,32.550000000000004,-20.020000000000003,-5.460000000000001,10.294401389719997,-1.5695719844699998,3.3243484381799986,50.204,-16.919,-11.126500000000004
1.1053457330000356,9.8680004024,-1.9214365477999997,3.2279176873999997,34.230000000000004,-20.650000000000002,-6.090000000000001,10.315458228599997,-1.6048661178199999,3.325544849479999,47.694500000000005,-17.269,-10.521000000000003
1.112387711999986,9.6981099978,-2.0195422744,3.3595229304,32.27,-20.44,-7.630000000000001,10.317731410069998,-1.64997082383,3.3275787486899993,45.734500000000004,-17.576999999999998,-9.971500000000002
1.1194536909999897,9.5449693514,-1.9214365477999997,3.2805597846,28.700000000000003,-18.970000000000002,-8.75,10.29559780102,-1.6893327556,3.3224341800999992,43.9005,-17.696,-9.565500000000002
1.1264446699999553,9.420542576199999,-1.9740786449999996,3.2087751065999996,24.570000000000004,-16.73,-10.15,10.25539838134,-1.72941253415,3.316571764729999,42.0105,-17.521000000000004,-9.436000000000002
1.1336086489999389,9.298508623599998,-1.7180466268,3.2638100264,18.62,-15.610000000000001,-11.410000000000002,10.19773135668,-1.75561394162,3.321477051059999,39.868500000000004,-16.985500000000005,-9.488500000000002
1.1406836280000334,9.099904347799999,-1.8017954178,3.2709884942,15.260000000000002,-12.740000000000002,-11.340000000000002,10.122596727040001,-1.7834903249100003,3.3348768576200003,37.401,-16.149000000000008,-9.639000000000001
1.1477166070000067,8.9898345082,-1.6175480775999997,3.1992038162,13.020000000000001,-11.760000000000002,-11.200000000000001,10.0354979844,-1.7992829540699997,3.34672132949,34.6815,-15.190000000000003,-9.786
1.1547725860000355,8.956334991799999,-1.3375878333999998,3.1034909122000003,12.39,-11.620000000000001,-11.200000000000001,9.954261657129997,-1.79078843384,3.3497123577399996,31.902500000000003,-14.332500000000001,-9.933
1.1618385650000391,8.9994057986,-1.1964112999999998,2.9623143788,12.040000000000001,-12.740000000000002,-10.850000000000001,9.873264612119998,-1.7650655908899995,3.3456445593199993,29.2635,-13.818000000000001,-10.038
1.1689005439999391,8.9994057986,-0.9475577495999999,2.9455646205999995,11.340000000000002,-12.670000000000002,-9.450000000000001,9.798129982479999,-1.72414832443,3.33427865197,26.824,-13.737500000000002,-10.087
1.1759525239999675,9.090333057399999,-0.7896314579999999,2.9479574431999995,9.73,-13.860000000000001,-7.5600000000000005,9.732327360979998,-1.6869399330000001,3.32183597445,24.625999999999998,-13.996500000000003,-10.044999999999998
1.1863684930000318,9.107082815599998,-0.5431707302,2.6656043763999993,7.07,-15.680000000000001,-3.08,9.669515767729997,-1.6043875532999998,3.27625270392,22.721999999999998,-14.546000000000003,-9.7335
1.1934174719999646,9.0831545896,-0.5120640364,2.7708885708,5.53,-16.380000000000003,0.7000000000000001,9.611609460809998,-1.5366706737199998,3.22588378819,20.9685,-15.176000000000002,-9.135
1.2005374509999456,8.9659062822,-0.41635113239999993,2.7445675222,2.45,-15.540000000000001,4.83,9.546883609480002,-1.4653645602399998,3.17072922726,19.432,-15.673000000000005,-8.245999999999999
1.207569430000035,8.7984087002,-0.3780659708,2.6177479243999993,-0.8400000000000001,-14.14,8.190000000000001,9.46815974594,-1.3941780878899999,3.1140193316399993,17.9585,-15.876000000000001,-7.1575000000000015
1.214661408999973,8.590233134,-0.48335016519999996,2.6344976825999997,-5.32,-12.32,11.690000000000001,9.378907462959997,-1.3312468535100002,3.0653253917299996,16.436,-15.809500000000003,-5.894000000000001
1.2217013879999286,8.417949906799999,-0.5694917787999999,2.6512474407999997,-8.33,-10.500000000000002,13.510000000000002,9.281399942009996,-1.27381911111,3.02189566154,14.871500000000003,-15.5365,-4.616500000000002
1.2287403670000003,8.1140614366,-0.0047856452,2.5890340531999994,-9.73,-8.75,14.490000000000002,9.167740868509998,-1.18707929186,2.9857640402800003,13.209,-15.043000000000003,-3.374000000000001
1.2357923460000393,7.989634661399999,-0.5886343596,2.6273192147999995,-13.090000000000002,-7.7700000000000005,13.580000000000002,9.054919282919998,-1.1280962147699998,2.9589644271599993,11.123000000000001,-14.4445,-2.3590000000000004
1.2428543249999393,7.975277725799999,-0.5982056499999999,2.6512474407999997,-15.120000000000001,-6.0200000000000005,12.81,8.950352935299998,-1.06695959734,2.9361129713299996,8.739499999999998,-13.744499999999999,-1.4454999999999998
1.249965303999943,8.044669581199999,-0.5551348432,2.6129622791999996,-16.66,-4.9,12.88,8.859186394239998,-0.99864451211,2.9053652009199995,6.195,-12.957000000000003,-0.4969999999999996
1.2570552829999997,8.097311678399999,-0.5216353268,2.6321048599999997,-17.5,-4.48,14.840000000000002,8.779146478269997,-0.9237491647299997,2.8689942973999996,3.7064999999999997,-12.159,0.6265
1.2647002599999269,8.327022648,-0.5192425042,2.6344976825999997,-17.430000000000003,-5.250000000000001,17.220000000000002,8.7182491431,-0.8536394625499998,2.836691192299999,1.4000000000000001,-11.473000000000003,1.925
1.271810238999933,8.391628858199999,-0.5000999234,2.6081766339999994,-16.450000000000003,-6.86,18.830000000000002,8.666803457199999,-0.7799405264699999,2.806661268669999,-0.6509999999999996,-10.979500000000002,3.374
1.2788702179999518,8.480163294399999,-0.5000999234,2.5938196983999995,-16.1,-8.540000000000001,20.160000000000004,8.62588619074,-0.7190431912999998,2.773161752269999,-2.3870000000000013,-10.626000000000001,4.952500000000001
1.285841196999968,8.6476608764,-0.42592242280000003,2.548356069,-17.150000000000002,-8.89,21.630000000000003,8.60327401717,-0.6502495415499998,2.737030131009999,-4.007500000000001,-10.4335,6.601000000000001
1.2929071759999715,8.913264185,-0.36849468039999994,2.4622144553999994,-17.430000000000003,-8.190000000000001,23.660000000000004,8.599445501009999,-0.58779687169,2.7001806629699994,-5.530000000000001,-10.255,8.344
1.3000141549999853,9.0831545896,-0.32303105099999996,2.464607278,-17.430000000000003,-7.840000000000001,25.480000000000004,8.605786480899999,-0.5370690325699999,2.6682364812599997,-7.021000000000001,-10.066,10.178
1.3071381339999562,9.2171526552,-0.35892339,2.476571391,-16.380000000000003,-7.210000000000001,28.210000000000004,8.61667382373,-0.49519463706999983,2.6439493318699996,-8.442000000000002,-9.7895,12.131000000000002
1.3141611129999546,9.2027957196,-0.4211367776,2.4981067943999995,-14.840000000000002,-6.790000000000001,30.03,8.626843319779999,-0.4688735884699999,2.6215764405599997,-9.751000000000001,-9.4955,14.105
1.3211810929999501,9.209974187399999,-0.5790630692,2.51246373,-13.090000000000002,-6.44,31.360000000000003,8.63282537628,-0.45834516902999994,2.5998017549,-10.892000000000001,-9.1245,16.051
1.3282640720000245,9.126225396399999,-0.7537391189999999,2.5842484079999997,-13.580000000000002,-6.370000000000001,31.92,8.633782505320001,-0.46887358847,2.59573395648,-11.924500000000002,-8.659000000000002,17.801000000000002
1.3352620509999724,9.0424766054,-0.9882357337999998,2.6991038927999997,-13.580000000000002,-5.6000000000000005,31.430000000000003,8.63174860611,-0.49268217334,2.5921447225799996,-12.88,-8.120000000000001,19.3375
1.3423150300000088,9.0711904766,-1.184447187,2.6608187311999996,-14.840000000000002,-5.11,29.680000000000003,8.63701281583,-0.5310869760699999,2.58795728303,-13.744500000000002,-7.598500000000001,20.580000000000005
1.3493670089999341,9.099904347799999,-1.3639088819999998,2.5387847785999997,-15.400000000000002,-4.340000000000001,28.560000000000002,8.652087598209999,-0.5803791216299999,2.5840091257399997,-14.4725,-7.108500000000002,21.598500000000005
1.3563949880000337,9.193224429199999,-1.4763715442,2.5220350203999993,-15.680000000000001,-4.41,27.160000000000004,8.68223716297,-0.63003019058,2.5783859926299995,-14.990500000000003,-6.713000000000001,22.372000000000007
1.363440966999974,9.286544510599999,-1.6151552549999997,2.4215364712,-12.46,-4.130000000000001,25.270000000000003,8.72566689316,-0.6823133643899999,2.5669004441499994,-15.197,-6.394500000000001,22.96
1.3705009459999928,9.4492564474,-1.6414763035999997,2.3497517932,-8.680000000000001,-3.5000000000000004,24.080000000000002,8.7924266437,-0.76414789731,2.554936331149999,-15.144500000000003,-6.132000000000001,23.439500000000002
1.3775549250000267,9.5066841898,-1.6725829973999997,2.2875384055999994,-5.11,-3.9200000000000004,23.240000000000002,8.86827912012,-0.8183453291999999,2.537947290689999,-14.745500000000003,-5.939500000000001,23.922500000000003
1.3845909039999924,9.597611448599999,-1.6606188843999998,2.2995025185999998,-3.43,-3.5000000000000004,23.520000000000003,8.94939580626,-0.8714659909199998,2.5203600445799994,-14.161000000000005,-5.8134999999999994,24.458000000000002
1.3916628829999809,9.6263253198,-1.6390834809999997,2.321037922,-3.1500000000000004,-2.0300000000000002,23.94,9.02847859319,-0.9256634228099998,2.5057638267199995,-13.485500000000005,-5.67,25.011000000000003
1.3987198629999966,9.676574594399998,-1.7252250945999998,2.2755742925999995,-4.550000000000001,-1.4000000000000001,25.62,9.10744173899,-0.9858429112,2.4879372983499994,-12.838000000000005,-5.516,25.55
1.4056628419999697,9.4971128994,-1.4739787215999998,2.321037922,-6.16,0.07,27.580000000000002,9.16594625156,-1.0335797220699996,2.4722643103199995,-12.274500000000007,-5.250000000000001,26.068
1.4126638210000237,9.4348995118,-1.6175480775999997,2.309073809,-7.7700000000000005,2.1,29.680000000000003,9.218109784240001,-1.0894521297799995,2.45730916907,-11.840500000000004,-4.8020000000000005,26.610500000000002
1.4197677999999314,9.669396126599999,-1.8448662245999998,2.2396819535999994,-9.940000000000001,5.040000000000001,28.140000000000004,9.27757142585,-1.1566904448399995,2.43960228183,-11.532500000000004,-4.123,27.009499999999996
1.4267817789999526,9.5330052384,-1.9190437251999999,2.0721843715999997,-13.160000000000002,6.86,27.37,9.321838643949999,-1.2313465099599994,2.41579369696,-11.333000000000004,-3.335500000000001,27.2965
1.4338867579999715,9.571290399999999,-2.1487546948,2.0961125976,-35.21,7.7700000000000005,26.880000000000003,9.3547399547,-1.3203595106799997,2.3974886040699994,-12.222000000000005,-2.537500000000001,27.4575
1.4409017369999901,9.477970318599999,-2.0961125976,1.9956140484,-22.05,7.630000000000001,26.880000000000003,9.37448074115,-1.40901358801,2.37403894259,-12.453000000000005,-1.7640000000000007,27.527499999999996
1.448002716000019,9.389435882399999,-2.2636101795999997,1.9860427579999997,-23.310000000000002,7.000000000000001,26.53,9.383094902509999,-1.50424792749,2.3495125109399995,-12.799500000000004,-1.0535,27.4435
1.4550806949999924,9.3128655592,-2.309073809,2.0075781614,-21.35,6.090000000000001,24.150000000000002,9.388598394489998,-1.5986447790599998,2.324986079289999,-13.125000000000004,-0.4095000000000004,27.1495
1.462129674000039,9.3009014462,-2.2612173569999996,2.129612114,-18.900000000000002,5.32,21.42,9.393144757429997,-1.6827524934499998,2.3058434984899994,-13.415500000000003,0.17850000000000002,26.652499999999996
1.4692016530000274,9.2554378168,-2.2612173569999996,2.1056838879999997,-17.5,4.83,19.46,9.399605378449998,-1.7581264053499996,2.281915272489999,-13.611500000000001,0.7384999999999999,26.029500000000002
1.4763156320000235,9.207581364800001,-2.3712871966,2.0721843715999997,-15.190000000000001,5.250000000000001,17.92,9.407860616419999,-1.8272789784900003,2.2505692964299993,-13.691999999999998,1.281,25.354
1.483334611000032,9.169296203199998,-2.3353948576,2.0865413072,-13.650000000000002,6.16,16.66,9.412765902749996,-1.88482636202,2.2218554252299993,-13.632499999999999,1.8445,24.703000000000003
1.4904405899999347,9.0735832992,-2.2157537275999997,2.1655044529999996,-11.690000000000001,6.510000000000001,14.980000000000002,9.411449850319999,-1.9274186043000001,2.20319140895,-13.447,2.387,24.024
1.4974825689999989,9.080761767,-2.2205393728,2.2348963083999998,-11.830000000000002,6.86,13.790000000000001,9.40582671721,-1.96462699573,2.18883447335,-13.254500000000002,2.9505,23.355500000000003
1.5044775489999438,9.102297170399998,-2.2923240507999996,2.2277178405999996,-12.670000000000002,5.8100000000000005,12.600000000000001,9.3966143502,-1.99848543552,2.17914354182,-13.265,3.4474999999999993,22.722000000000005
1.511641526999938,9.0664048314,-2.2516460665999998,2.2444675987999996,-15.120000000000001,4.69,10.71,9.3774717694,-2.02899392367,2.1738793321,-13.587,3.857,22.053500000000003
1.5186505069999612,9.142975154599998,-2.1631116304,2.2277178405999996,-16.240000000000002,3.9200000000000004,9.590000000000002,9.35928631764,-2.0535203553200003,2.17088830385,-14.143500000000003,4.2490000000000006,21.371000000000002
1.5256734859999597,9.2051885422,-2.1080767106,2.1798613885999996,-35.49,2.8000000000000003,8.540000000000001,9.339665172320002,-2.07589324663,2.1649062473500003,-15.746500000000003,4.564,20.622000000000003
1.532711465000034,9.250652171599999,-2.1583259852,1.9788642901999998,-20.37,1.8900000000000001,8.89,9.320881514910003,-2.10185537184,2.1477975657600004,-16.6075,4.76,19.869500000000002
1.5404594419999285,9.343972252999999,-1.9214365477999997,2.0769700168,-19.810000000000002,2.5200000000000005,8.47,9.304251397840002,-2.1116659445000003,2.1378673519699998,-17.370500000000003,4.956,19.012000000000004
1.5475374210000155,9.286544510599999,-2.177468566,2.1870398563999998,-21.840000000000003,1.4700000000000002,9.100000000000001,9.293722978400002,-2.1468404367200007,2.1311674486899994,-18.154500000000002,5.026,18.088000000000005
1.5545453999999381,9.1190469286,-2.0291135648,2.2157537275999997,-23.660000000000004,1.61,10.15,9.27793034924,-2.1674187110800003,2.1265014446199997,-18.949000000000005,5.0015,17.1115
1.5615653789999442,9.049655073199999,-2.2707886474,2.2181465501999997,-23.1,2.45,10.010000000000002,9.24694329657,-2.1887148322200005,2.1254246744499996,-19.607000000000006,4.872,16.205
1.5686353579999377,9.0520478958,-2.3880369548,2.1678972755999997,-21.21,2.7300000000000004,8.610000000000001,9.22289542944,-2.2121644937,2.1302103196499997,-20.009500000000003,4.6655,15.267000000000001
1.5756603369999311,9.085547412199999,-2.333002035,2.141576227,-17.71,2.24,6.16,9.19860828005,-2.2213768607100004,2.1324835011200003,-19.134500000000006,4.389,14.231
1.5825563170000123,9.1573320902,-2.3114666315999997,2.1008982428,-11.760000000000002,1.8900000000000001,2.66,9.182576368629999,-2.23214456241,2.13774771084,-18.62,4.102,13.020000000000001
1.5902932939999346,9.1190469286,-2.3856441322,2.0721843715999997,-8.89,1.12,1.4000000000000001,9.169056920939997,-2.2382462600399995,2.14205479152,-17.899,3.8080000000000007,11.763499999999999
1.5974902729999485,8.645268053799999,-2.3186450994,2.177468566,-4.2700000000000005,1.7500000000000002,0.77,9.135677045669997,-2.2387248245599993,2.15054931175,-17.044999999999998,3.591,10.5945
1.6045302520000178,9.164510558,-2.2061824372,2.3138594542,-2.9400000000000004,2.1700000000000004,0.56,9.128857501259997,-2.2359730785699994,2.15976167876,-16.246999999999996,3.4335,9.551500000000003
1.6114782309999782,9.296115801,-2.2157537275999997,2.1918255016,0.6300000000000001,1.8200000000000003,0.8400000000000001,9.130891400469997,-2.2336998971,2.16406875944,-15.340499999999997,3.283,8.620500000000002
1.618485210000017,9.1860459614,-2.2109680824,2.3617159062,-0.28,1.05,1.6800000000000002,9.129814630299999,-2.22568394139,2.17854533617,-14.594999999999999,3.073,7.808500000000002
1.6255701889999727,9.1094756382,-2.2899312282,2.4741785683999997,-2.1,1.33,1.8900000000000001,9.126823602049999,-2.22341075992,2.19792719923,-14.017500000000002,2.8315,7.070000000000002
1.6325431679999838,9.0113699116,-2.4071795355999996,2.5220350203999993,-5.11,1.54,1.1900000000000002,9.12371293267,-2.2329820503199995,2.2157537275999992,-13.688500000000001,2.5829999999999997,6.3805000000000005
1.6395671469999797,8.958727814399998,-2.5292134882,2.6033909887999998,-7.840000000000001,1.6800000000000002,0.42000000000000004,9.117611235039998,-2.24841575609,2.2341784616199996,-13.489,2.3239999999999994,5.7120000000000015
1.6466931259999456,8.977870395199998,-2.6225335696,2.6249263922,-10.010000000000002,2.45,-0.7000000000000001,9.111389896279999,-2.26492623203,2.2540388891999994,-13.356,2.1559999999999997,5.047000000000001
1.6538351039999952,8.937192411,-2.6943182475999996,2.6153551017999996,-11.97,2.66,-1.7500000000000002,9.10492927526,-2.2870598410799996,2.2725832643499997,-13.198500000000005,2.0545,4.424
1.661036082999999,8.908478539799999,-2.6656043763999993,2.6416761503999995,-13.72,2.8000000000000003,-2.45,9.093204444520001,-2.31218447838,2.29328117984,-13.072500000000002,1.9985,3.822
1.6680650619999824,8.894121604199999,-2.7110680057999996,2.6033909887999998,-13.440000000000001,2.8000000000000003,-3.22,9.07765109762,-2.34233404314,2.3144576598500004,-11.970000000000002,1.9985,3.2340000000000004
1.6751060409999354,8.836693861799999,-2.7326034091999993,2.572284295,-11.270000000000001,2.1700000000000004,-3.99,9.05695318213,-2.37104791434,2.3441286600900004,-11.515000000000002,2.0125,2.59
1.6821830190000355,8.7864445872,-2.7517459899999994,2.5531417142,-8.4,1.4000000000000001,-4.130000000000001,9.029076798839998,-2.41256338645,2.3679372449600007,-10.944500000000001,1.9564999999999997,1.9599999999999997
1.6891869989999577,8.697910150999999,-2.7804598611999998,2.5698914723999993,-4.69,0.9100000000000001,-5.460000000000001,8.99964508086,-2.44271295121,2.3870798257600003,-10.087,1.9285000000000003,1.232
1.6961739779999334,8.760123538599998,-2.7086751831999996,2.5531417142,-2.1,0.56,-7.07,8.981698911359999,-2.4766910321299997,2.4039492250900008,-9.009,1.8760000000000006,0.3710000000000001
1.7032309569999597,8.7888374098,-2.6081766339999994,2.4861426813999996,17.57,0.28,-7.98,8.968658028190001,-2.4935604314599997,2.4173490316500006,-6.975500000000002,1.7675000000000005,-0.5285
1.7102779360000113,8.8247297488,-2.5698914723999993,2.476571391,1.33,0.14,-8.47,8.957292120839998,-2.50265315734,2.43278273742,-5.8485,1.6380000000000003,-1.3824999999999998
1.717393914000013,8.8486579748,-2.5387847785999997,2.5244278430000002,2.24,0.35000000000000003,-8.4,8.94544764897,-2.5129422945199993,2.45192531822,-4.851000000000001,1.5435000000000003,-2.1105
1.7244168930000114,8.836693861799999,-2.4957139718,2.6297120374,2.1,0.42000000000000004,-8.610000000000001,8.929415737549999,-2.52215466153,2.47836600795,-4.1579999999999995,1.4700000000000002,-2.6740000000000004
1.7315278720000151,8.812765635799998,-2.5172493751999996,2.7206392962,0.14,0.56,-9.24,8.914101672909998,-2.5287349236800005,2.5107887541799996,-3.7065000000000006,1.4420000000000002,-3.2060000000000004
1.738630851000039,8.810372813199999,-2.5531417142,2.7254249414,-2.0300000000000002,0.8400000000000001,-9.38,8.92235691088,-2.5404597544199996,2.538186572949999,-3.5945,1.3965000000000003,-3.7135
1.7456318299999793,8.822336926199998,-2.5603201819999994,2.7206392962,-3.5000000000000004,0.28,-9.520000000000001,8.905248229289999,-2.5581666416599997,2.558525565049999,-3.6225,1.3020000000000003,-4.217499999999999
1.7527368089999982,8.7505522482,-2.5674986497999996,2.7278177639999996,-3.3600000000000003,-0.14,-10.010000000000002,8.877970051649998,-2.5757538877700004,2.5853251781699993,-3.822,1.2040000000000002,-4.76
1.7598117869999896,8.697910150999999,-2.572284295,2.7445675222,-2.9400000000000004,-0.77,-10.64,8.853563261129997,-2.5938196984,2.6044677589699994,-3.9549999999999996,1.1130000000000002,-5.3759999999999994
1.766809766999927,8.6835532154,-2.548356069,2.7254249414,-0.9800000000000001,-0.9100000000000001,-11.340000000000002,8.832267139989998,-2.6067409404400004,2.6170300776199995,-3.899,1.0010000000000001,-6.0375
1.7740737450000097,8.638089586,-2.4981067943999995,2.7086751831999996,1.6800000000000002,-1.7500000000000002,-11.760000000000002,8.81360312371,-2.61128730338,2.6263620857599994,-3.5595,0.8365000000000004,-6.685
1.78112372399994,9.166903380599999,-2.3952154225999998,2.6799613119999997,4.2,-2.8000000000000003,-11.48,8.82401190202,-2.6045874001000002,2.6301906019200003,-2.9575,0.6125000000000002,-7.279999999999999
1.7881207030000041,8.573483375799999,-2.3617159062,2.6727828442,6.090000000000001,-3.08,-11.340000000000002,8.80379255105,-2.5915465169299994,2.63258342452,-2.1524999999999994,0.336,-7.811999999999999
1.7952196820000381,8.5375910368,-2.2755742925999995,2.6703900216,6.790000000000001,-3.1500000000000004,-10.57,8.783812482339998,-2.57060931918,2.6353351705100003,-1.2144999999999997,0.045500000000000006,-8.252999999999998
1.8021086610000339,8.6069828922,-2.2540388892,2.667997199,6.44,-3.0100000000000002,-9.450000000000001,8.768737699959999,-2.55003104482,2.6366512229400003,-0.2064999999999999,-0.24500000000000002,-8.602999999999998
1.8092766400000073,8.5399838594,-2.2612173569999996,2.7254249414,5.390000000000001,-3.3600000000000003,-8.610000000000001,8.751030812719998,-2.5275385123799996,2.64275292057,0.7349999999999997,-0.5529999999999999,-8.8725
1.8162836189999325,8.480163294399999,-2.2612173569999996,2.763710103,2.7300000000000004,-2.9400000000000004,-6.790000000000001,8.733204284349998,-2.5039692097699993,2.65232421097,1.435,-0.8085000000000001,-9.0125
1.8233425979999538,8.449056600599999,-2.2109680824,2.7349962317999994,-0.28,-3.1500000000000004,-5.180000000000001,8.716334885019998,-2.4769303143899997,2.6614169368499994,1.8410000000000004,-1.036,-9.065000000000001
1.831164574000013,8.398807326,-2.141576227,2.6823541345999997,-4.2,-3.1500000000000004,-3.99,8.701379743769998,-2.4449861326799995,2.6670400699599996,1.8654999999999995,-1.239,-8.9915
1.8382045529999687,8.470592003999998,-2.0985054202,2.596212521,-7.700000000000001,-3.3600000000000003,-2.66,8.686903167039997,-2.41447764453,2.6691936103,1.5854999999999997,-1.435,-8.771
1.8451995320000378,8.470592003999998,-2.0530417908,2.464607278,-9.8,-3.99,-0.9100000000000001,8.670990896749997,-2.38672090237,2.6681168401299997,0.21699999999999992,-1.6485000000000003,-8.4175
1.8523235110000087,8.4514494232,-2.0410776778,2.4478575198,-10.850000000000001,-4.340000000000001,0.77,8.652326880469996,-2.3602802126399998,2.66668114657,-0.39200000000000007,-1.8725000000000005,-7.955500000000001
1.8594514899999695,8.3174513576,-2.0650059038,2.4550359876,-10.010000000000002,-5.250000000000001,1.05,8.625766549609995,-2.3365912689,2.6632115537999996,-1.0045000000000002,-2.1525000000000003,-7.483
1.866468468999983,8.2480595022,-2.0793628394,2.4095723582,-9.66,-5.95,1.05,8.596334831629997,-2.3157737122799995,2.65220456984,-1.5925000000000002,-2.4710000000000005,-7.0
1.8736014469999418,8.2815590186,-2.0578274359999997,2.3856441322,-8.96,-6.720000000000001,1.05,8.569774500769999,-2.29280261532,2.63545481164,-2.0475000000000003,-2.8350000000000004,-6.485499999999999
1.8805744259999528,8.283951841199999,-2.045863323,2.3401805028,-7.07,-7.140000000000001,1.4700000000000002,8.543453452169999,-2.2674386957599992,2.6161925897100002,-2.2995,-3.2340000000000004,-5.943000000000002
1.8877054050000197,8.2863446638,-2.093719775,2.3760728418,-3.6400000000000006,-7.3500000000000005,2.45,8.516653839049999,-2.2441086754099997,2.5989642669900004,-2.3065,-3.6155,-5.344500000000002
1.89475938399994,8.274380550799998,-2.0841484845999996,2.4406790519999997,-1.61,-6.790000000000001,3.0100000000000002,8.49284525418,-2.21994116715,2.584607331390001,-2.2190000000000003,-3.9480000000000004,-4.693500000000002
1.9018793630000346,8.3461652288,-2.0673987264,2.4861426813999996,-0.7000000000000001,-6.510000000000001,3.8500000000000005,8.475258008070002,-2.19469688872,2.5716860893500004,-2.107,-4.235000000000001,-3.9690000000000003
1.9089473420000331,8.5088771656,-2.093719775,2.4933211492,-0.28,-6.300000000000001,4.83,8.46652420558,-2.1719650740199996,2.56008089974,-2.072,-4.504500000000001,-3.160500000000001
1.9158873210000138,8.6907316832,-2.1248264688,2.5148565526,-1.7500000000000002,-6.370000000000001,5.880000000000001,8.46915631044,-2.15330105774,2.55038996821,-2.2435,-4.735500000000001,-2.2785
1.9229162999999971,8.863014910399999,-2.0051853388,2.476571391,-1.9600000000000002,-6.300000000000001,7.700000000000001,8.45396188693,-2.13379955355,2.54022047216,-2.5515000000000003,-4.910500000000001,-1.3195000000000001
1.9299852789999932,8.910871362399998,-2.03389921,2.4406790519999997,-4.0600000000000005,-6.16,8.89,8.470831286260001,-2.1174087187399997,2.52861528255,-3.059,-5.064500000000001,-0.30799999999999994
1.9370942570000125,8.9994057986,-2.1128623558,2.3473589705999998,-5.53,-5.670000000000001,10.430000000000001,8.49392202435,-2.1092731219,2.5124637299999995,-3.6750000000000007,-5.190500000000001,0.7419999999999998
1.9442192359999808,9.0711904766,-2.1822542112,2.2660030021999997,-6.930000000000001,-5.53,12.32,8.517132403569999,-2.1056838879999993,2.4923640201599997,-4.343500000000001,-5.3165,1.8305000000000002
1.9512392149999869,9.0424766054,-2.2516460665999998,2.2205393728,-7.210000000000001,-5.670000000000001,12.670000000000002,8.54225704087,-2.10520532348,2.4671197417299995,-4.9735,-5.432,2.8945000000000003
1.958424194000031,8.925228298,-2.4095723582,2.2492532439999997,-4.62,-4.2,12.670000000000002,8.56451029105,-2.1126230735399996,2.44139689878,-5.341000000000001,-5.495,3.8675000000000006
1.965418172999989,8.97308475,-2.5339991334,2.321037922,-2.66,-3.0100000000000002,11.690000000000001,8.59071169852,-2.1287746260900002,2.42069898329,-5.460000000000001,-5.488,4.711
1.9723811520000254,8.9682991048,-2.6656043763999993,2.3401805028,17.220000000000002,-1.6800000000000002,10.57,8.61918628746,-2.15497603356,2.4035903017000004,-4.389,-5.414500000000001,5.439
1.9794971310000165,8.977870395199998,-2.7326034091999993,2.4071795355999996,2.31,-1.4000000000000001,8.260000000000002,8.64455020702,-2.1866809330100003,2.3941386524300006,-3.8885000000000005,-5.316500000000001,5.985000000000001
1.986507109999934,9.0520478958,-2.7828526837999994,2.5698914723999993,5.880000000000001,-1.1900000000000002,6.930000000000001,8.67362300161,-2.2231714776600002,2.3994028621500005,-3.104500000000001,-5.176500000000002,6.377000000000001
1.9936830880000116,9.147760799799999,-2.787638329,2.6129622791999996,9.590000000000002,-0.9100000000000001,5.6000000000000005,8.708438570439998,-2.26049951022,2.40765810012,-2.0825,-5.005000000000001,6.618500000000002
2.0007430670000304,9.286544510599999,-2.739781877,2.6584259086,10.500000000000002,-0.8400000000000001,5.250000000000001,8.75689322809,-2.29423830888,2.4178275961700004,-1.0569999999999997,-4.784500000000001,6.828500000000001
2.0078850459999558,9.365507656399998,-2.7038895379999994,2.7278177639999996,11.13,-0.9100000000000001,5.180000000000001,8.8127656358,-2.32546464381,2.4337398664600003,-0.017499999999999717,-4.532500000000001,7.035000000000002
2.014959024999939,9.4348995118,-2.7062823605999995,2.7182464736,10.360000000000001,-0.21000000000000002,7.210000000000001,8.87043266046,-2.3578873900399997,2.45036998353,0.9485000000000007,-4.207000000000001,7.343000000000002
2.021996004000016,9.578468867799998,-2.7469603447999997,2.7278177639999996,8.120000000000001,0.35000000000000003,8.120000000000001,8.935158511790002,-2.3929422411299996,2.4697518465899995,1.7080000000000006,-3.832500000000001,7.675500000000002
2.0290619830000196,9.473184673399999,-2.6895326023999995,2.6823541345999997,6.580000000000001,0.56,9.940000000000001,8.994500512270003,-2.4227328824999996,2.4850659112299995,2.2190000000000003,-3.4370000000000003,8.050000000000002
2.0361689609999303,9.5425765288,-2.7804598611999998,2.6488546182,3.43,-17.85,10.430000000000001,9.05791031117,-2.457548451329999,2.4954746895399995,2.4710000000000005,-3.9900000000000007,8.421000000000001
2.043213939999987,9.367900479,-2.8618158296000002,2.6775684894,1.12,-0.77,10.71,9.108997073680001,-2.49726930649,2.5050459799399993,2.5620000000000003,-3.7029999999999994,8.764000000000001
2.05025491899994,9.224331122999999,-2.8570301844,2.6297120374,-1.4000000000000001,-1.12,10.22,9.14476977155,-2.53543482696,2.511865524349999,2.5060000000000007,-3.4440000000000004,9.0335
2.0573448979999966,8.638089586,-2.895315346,2.5435704238,-2.0300000000000002,-1.12,9.31,9.142137666690001,-2.5739592708199996,2.5133012179099996,2.4920000000000004,-3.1814999999999998,9.205000000000002
2.0643828769999573,9.059226363599999,-2.9455646205999995,2.4885355039999997,-3.22,-1.2600000000000002,8.540000000000001,9.15194823935,-2.6209782349099995,2.5138994235599994,2.4290000000000003,-2.9295,9.247000000000002
2.0715358559999686,9.104689993,-3.0580272828,2.4311077616,-5.040000000000001,-1.8900000000000001,7.7700000000000005,9.161639170880001,-2.6721846385499997,2.513420859039999,2.3800000000000003,-2.716,9.191
2.0785658349999494,8.9826560404,-3.0005995404,2.2683958248,-5.460000000000001,-2.0300000000000002,6.720000000000001,9.16080168297,-2.7165714977799995,2.50947270175,2.3835000000000006,-2.5340000000000003,9.005500000000001
2.0855898139999454,9.0161555568,-3.046063169799999,2.237289131,-4.340000000000001,-1.6800000000000002,5.040000000000001,9.158049936979998,-2.7597619457099998,2.5080370081899996,2.5130000000000003,-2.3415000000000004,8.6415
2.092669792000038,8.9467637014,-3.1441688964,2.1870398563999998,-2.66,-0.77,3.22,9.153264291779998,-2.8043880871999995,2.50636203237,2.7405,-2.0965,8.169
2.099643772000036,8.992227330799999,-3.0149564759999996,2.1583259852,-1.6800000000000002,0.56,1.8200000000000003,9.156614243419998,-2.83465729309,2.50181566943,2.8875,-1.8585000000000005,7.6265
2.106734749999987,8.956334991799999,-2.8570301844,2.1008982428,0.07,0.9100000000000001,1.05,9.155776755509997,-2.85080884564,2.49080868547,3.024,-1.6625,7.094500000000001
2.114458726999942,8.913264185,-2.8546373617999996,2.1750757434,0.9100000000000001,1.9600000000000002,0.21000000000000002,9.153025009519997,-2.8602604949100003,2.4825534475,2.2085,-1.4805000000000006,6.576500000000003
2.121433705999948,8.755337893399998,-2.8187450228,2.1678972755999997,3.0100000000000002,3.22,-0.07,9.141898384429997,-2.8645675755900006,2.4705893344999996,2.2435000000000005,-1.2495000000000003,6.160000000000001
2.1284716850000223,8.707481441399999,-2.7684957482,2.3042881638,3.6400000000000006,3.7800000000000002,-0.7000000000000001,9.124670061709999,-2.8638497288100004,2.4573091690699997,2.1314999999999995,-1.0010000000000003,5.7785
2.1354986640000106,8.724231199599998,-2.7445675222,2.309073809,6.65,4.760000000000001,-0.8400000000000001,9.103493581699999,-2.8616961884700003,2.4421147455599996,1.9845,-0.7175000000000002,5.4565
2.142535642999974,8.6476608764,-2.6129622791999996,2.3377876802,8.260000000000002,4.970000000000001,0.07,9.071549399990001,-2.8553552085800002,2.42608283414,1.8725,-0.4270000000000002,5.1975
2.1496166219999395,8.685946038,-2.6009981662,2.428714939,7.5600000000000005,3.5700000000000003,0.9100000000000001,9.03757131907,-2.8502106399900002,2.4111276928899996,1.6940000000000004,-0.2030000000000002,4.984
2.156635600999948,8.7050886188,-2.5507488916,2.4885355039999997,5.460000000000001,1.4700000000000002,1.6800000000000002,9.00108077442,-2.8424339665400007,2.3996421444099996,1.4490000000000003,-0.11900000000000015,4.7075
2.16380958000002,8.7314096674,-2.4693929231999996,2.5268206656,3.3600000000000003,0.8400000000000001,2.5200000000000005,8.9587278144,-2.82855559546,2.38959228949,1.2110000000000003,-0.09450000000000022,4.427499999999999
2.170900557999971,8.721838377,-2.4095723582,2.5603201819999994,1.05,-0.28,3.22,8.921160499580001,-2.8145575832500005,2.3834905918600002,0.9345000000000002,-0.13650000000000015,4.091499999999999
2.177945537000028,8.7409809578,-2.3401805028,2.548356069,-1.54,-0.42000000000000004,4.760000000000001,8.88108072103,-2.79254361533,2.3784656643999997,0.6860000000000003,0.7350000000000001,3.8080000000000007
2.185016516000019,8.8151584584,-2.2803599377999997,2.4406790519999997,-3.3600000000000003,-0.49000000000000005,6.16,8.853443619999998,-2.76347082074,2.3666211925300003,0.4620000000000003,0.7490000000000001,3.5805
2.192098494999982,8.800801522799999,-2.309073809,2.4215364712,-4.69,-0.35000000000000003,7.280000000000001,8.832267139989998,-2.7360730019699995,2.35621241422,0.2975000000000002,0.7875000000000001,3.4335
2.1990914739999425,8.748159425599999,-2.2660030021999997,2.3784656643999997,-7.000000000000001,-0.35000000000000003,9.100000000000001,8.837770631969999,-2.7046073847799996,2.3479571762499996,0.049000000000000196,0.8259999999999998,3.4230000000000005
2.2061284530000194,8.6596249894,-2.2444675987999996,2.3545374384,-7.7700000000000005,0.7000000000000001,10.500000000000002,8.817790563259997,-2.66955253369,2.34125727297,-0.17849999999999994,0.9239999999999997,3.521000000000001
2.213194432000023,8.721838377,-2.2612173569999996,2.3401805028,-7.420000000000001,1.4000000000000001,11.830000000000002,8.798647982459997,-2.6297120374,2.33671091003,-0.2975,1.0884999999999996,3.724000000000001
2.2202494109999407,8.6955173284,-2.285145583,2.3497517932,-5.390000000000001,2.24,12.600000000000001,8.784291046859998,-2.5939393395300003,2.34077870845,-0.29399999999999993,1.3019999999999996,4.018000000000001
2.227359389999947,8.671589102399999,-2.2301106632,2.3282163898,-3.7800000000000002,3.0100000000000002,13.860000000000001,8.767062724139999,-2.5531417142,2.3453250713899996,-0.2659999999999999,1.5364999999999998,4.459
2.234395369000026,8.638089586,-2.237289131,2.3258235672,-3.9200000000000004,2.24,17.01,8.75162901837,-2.5077977259299997,2.35226425693,-0.32900000000000007,1.6869999999999998,5.1485
2.241500346999942,8.6309111182,-2.2803599377999997,2.4502503424,-4.48,1.7500000000000002,19.110000000000003,8.733563207740001,-2.4710678990200003,2.3668604747899993,-0.4690000000000002,1.7464999999999997,6.013
2.2485583259999657,8.6428752312,-2.2995025185999998,2.4406790519999997,-4.760000000000001,1.6800000000000002,21.000000000000004,8.71789021971,-2.44319151573,2.3838495152499997,-0.7105000000000002,1.7849999999999997,7.010500000000002
2.2556143049999946,8.532805391599998,-2.2683958248,2.5100709073999994,-3.99,1.8900000000000001,22.820000000000004,8.69886728004,-2.4138794388800004,2.4005992734499992,-0.9555,1.7814999999999999,8.141000000000002
2.2626642840000386,8.5854474888,-2.285145583,2.5100709073999994,-4.550000000000001,2.9400000000000004,24.500000000000004,8.69037275981,-2.3871994668900003,2.4177079550399996,-1.3335,1.7674999999999996,9.3695
2.269676262999951,8.470592003999998,-2.4143580034,2.572284295,-3.5000000000000004,3.3600000000000003,27.37,8.678528287939999,-2.3694925796499997,2.4311077615999994,-1.6905000000000001,1.7465000000000004,10.773
2.2768042420000256,8.4514494232,-2.4358934068,2.5818555854,-1.6800000000000002,2.9400000000000004,29.050000000000004,8.664889199120001,-2.35405887388,2.44474685042,-2.107,1.6555000000000004,12.267500000000002
2.283776221000039,8.3700934548,-2.4526431649999996,2.5507488916,-0.56,1.05,30.17,8.651010828039997,-2.34604291817,2.4553949109900004,-2.548,1.4595000000000002,13.772500000000003
2.2907491999999365,8.338986761,-2.081755662,2.7302105865999997,-3.7800000000000002,-2.0300000000000002,31.710000000000004,8.633662864189997,-2.32008079296,2.47046969337,-3.115,1.1795000000000002,15.3125
2.29786017899994,8.3581293418,-3.1274191382,2.2133609049999996,-15.330000000000002,-10.430000000000001,33.6,8.61631490034,-2.3489143052899992,2.45671096342,-4.1545000000000005,0.5845,16.9085
2.3046711590000086,8.207381518,-2.9120651042,2.7038895379999994,-12.670000000000002,-13.440000000000001,35.0,8.59011349287,-2.371047914339999,2.4655644070400005,-4.956000000000001,-0.1295000000000001,18.532500000000002
2.3117161379999516,8.1260255496,-2.7924239741999997,2.5651058271999996,-14.070000000000002,-14.490000000000002,34.230000000000004,8.5603228515,-2.3901904951399997,2.4658036893000004,-5.7120000000000015,-0.8400000000000002,20.083000000000006
2.318764116000011,8.123632727,-3.194418171,2.3042881638,-18.900000000000002,-15.120000000000001,33.81,8.52945543996,-2.4329023785499997,2.45360029404,-6.580000000000001,-1.5750000000000002,21.535500000000003
2.3257780950000324,8.0087772422,-3.4887353508,2.1655044529999996,-21.910000000000004,-15.330000000000002,34.93000000000001,8.48913637915,-2.4933211492,2.43984156409,-7.5075,-2.317,22.974000000000004
2.3328300739999577,8.087740388,-3.3451659947999994,2.1439690496,-24.290000000000003,-15.120000000000001,35.7,8.45348332241,-2.5451257584899993,2.42596319301,-8.4875,-3.0555000000000008,24.395000000000003
2.339942052999959,7.934599741599999,-3.5078779316,2.0291135648,-25.060000000000002,-14.350000000000001,34.86000000000001,8.412805338210003,-2.6072195049599993,2.40849558803,-9.390500000000001,-3.7555000000000005,25.683000000000003
2.347078032000013,7.886743289599999,-3.7184463204,2.0027925162,-23.87,-14.070000000000002,34.720000000000006,8.37416125322,-2.6809184410399998,2.3909083419200003,-10.195500000000001,-4.494000000000001,26.894000000000005
2.3540900110000393,8.0255270004,-3.7136606751999994,1.9669001771999999,-22.12,-13.3,33.67,8.33934568439,-2.7535406069499992,2.37224432564,-10.930500000000002,-5.229000000000001,27.986
2.3610779900000125,7.996813129199999,-3.8213376921999997,1.8424734019999998,-19.740000000000002,-13.440000000000001,32.34,8.304410474429998,-2.830350212409999,2.3468804060800004,-11.648000000000001,-6.013000000000001,28.973000000000003
2.3681879690000187,7.8460653054,-3.8189448695999997,2.4335005842,-15.260000000000002,-13.790000000000001,30.800000000000004,8.26313428458,-2.9097919227299993,2.3521446158,-12.222000000000001,-6.853,29.820000000000004
2.3752409479999415,8.070990629799999,-3.9505501125999998,1.9286150155999997,-11.13,-12.950000000000001,29.540000000000003,8.23477933677,-2.995454971809999,2.33228418822,-12.5825,-7.6125,30.446500000000004
2.38225592699996,8.1738820016,-4.1826539047999995,1.9788642901999998,-6.23,-12.32,27.090000000000003,8.21192788094,-3.0905696701599994,2.30871488561,-12.67,-8.315999999999999,30.845500000000005
2.389941904000011,8.207381518,-4.235296001999999,2.129612114,-3.43,-10.780000000000001,25.480000000000004,8.19015319528,-3.187359344329999,2.2931615387099997,-12.6035,-8.938999999999998,31.069500000000005
2.3970908819999295,8.3964145034,-4.3932222936,2.2109680824,-1.7500000000000002,-10.360000000000001,22.750000000000004,8.18333365087,-3.2936006677699994,2.27820639746,-12.4915,-9.5515,31.066000000000003
2.4039518619999853,8.5016986978,-4.6396830214,2.2444675987999996,-3.6400000000000006,-10.71,21.07,8.179146211319999,-3.4113275396899994,2.2649262320299997,-12.446000000000002,-10.234,30.89450000000001
2.411108839999997,8.437092487599998,-4.6923251185999995,2.3904297774,-5.880000000000001,-11.06,19.110000000000003,8.177471235499999,-3.5252258954499993,2.25583350615,-12.565000000000001,-10.955000000000002,30.48150000000001
2.418138818999978,8.4634135362,-4.701896409,2.4981067943999995,-9.940000000000001,-9.940000000000001,16.520000000000003,8.17806944115,-3.638526045559999,2.2516460665999998,-12.978,-11.599,29.85500000000001
2.425229798000032,8.6835532154,-4.7808595548,2.4861426813999996,-13.860000000000001,-7.490000000000001,15.120000000000001,8.193742429179999,-3.7549368650499995,2.24841575609,-13.643000000000004,-12.026,29.10250000000001
2.4322477769999296,8.6787675702,-4.716253344599999,2.4598216327999998,-16.87,-5.670000000000001,14.21,8.210731469639999,-3.88666174918,2.2348963083999998,-14.297500000000003,-12.208,28.227500000000003
2.439210755999966,8.7409809578,-4.5655055207999995,2.4574288101999997,-18.340000000000003,-4.2700000000000005,13.020000000000001,8.229874050439998,-3.95856606831,2.2470997036599996,-14.448000000000002,-11.900000000000002,27.198500000000003
2.4462537350000275,8.793623055,-4.5367916496,2.3904297774,-16.94,-4.2700000000000005,12.670000000000002,8.259186127289997,-4.03980239558,2.2314267156299996,-14.661500000000004,-11.441500000000001,26.082
2.4532537139999704,8.810372813199999,-4.606183505,2.4215364712,-15.680000000000001,-4.62,12.530000000000001,8.293403490469998,-4.130490372120001,2.22424824783,-14.742,-10.948000000000004,24.997000000000003
2.460283692999951,8.760123538599998,-4.5152562462,2.464607278,-13.650000000000002,-5.11,11.48,8.325228031049999,-4.19653227588,2.23226420354,-14.479500000000002,-10.447500000000003,23.8805
2.4673346719999927,8.717052731799999,-4.433900277799999,2.4047867129999996,-12.110000000000001,-5.040000000000001,10.22,8.36064180553,-4.2437905222299985,2.24422831654,-13.989500000000001,-9.933000000000003,22.645000000000003
2.4743986510000013,8.805587167999999,-4.5798624564,2.4215364712,-9.31,-4.9,8.260000000000002,8.396534144529998,-4.305525345309999,2.25810668762,-13.240500000000003,-9.422,21.273000000000003
2.481489629999942,8.769694828999999,-4.594219391999999,2.4622144553999994,-7.210000000000001,-5.460000000000001,6.300000000000001,8.438288898899998,-4.3598424183299995,2.2797617321500003,-12.348000000000003,-8.977500000000003,19.845000000000002
2.488544608999973,8.769694828999999,-4.618147618,2.5148565526,-5.32,-5.460000000000001,4.41,8.48243647587,-4.404827483209999,2.3053649339700004,-11.4205,-8.547000000000002,18.329500000000003
2.4955205879999767,8.8845503138,-4.5655055207999995,2.4717857457999997,-3.22,-5.180000000000001,1.8200000000000003,8.525387641539998,-4.447419725489999,2.3306092124,-10.475500000000002,-8.141000000000002,16.737000000000002
2.5024315670000306,8.9419780562,-4.5487557626,2.476571391,-2.31,-5.460000000000001,1.1900000000000002,8.57264588789,-4.48379062901,2.36231411185,-9.604000000000003,-7.742000000000002,15.179500000000008
2.5095295459999534,8.9204426528,-4.3956151162,2.5316063108,-0.7000000000000001,-5.040000000000001,1.05,8.626364755260001,-4.51262414134,2.36721939818,-8.876000000000001,-7.304500000000002,13.692000000000004
2.5165715250000176,9.001798621199999,-4.402793583999999,2.5339991334,0.14,-5.460000000000001,0.77,8.672905154830001,-4.53523631491,2.3974886040700003,-8.312500000000002,-6.9300000000000015,12.2535
2.5236855040000137,8.97308475,-4.400400761399999,2.5052852621999997,0.56,-6.370000000000001,0.42000000000000004,8.71286529225,-4.546123657739999,2.4238096526699997,-7.973000000000002,-6.632500000000002,10.920000000000002
2.530731482999954,8.822336926199998,-4.3142591478,2.5220350203999993,0.7000000000000001,-7.5600000000000005,0.35000000000000003,8.74361306266,-4.550071815029999,2.4434307979899996,-7.766500000000002,-6.471500000000003,9.6635
2.537852460999943,8.8271225714,-4.3764725354,2.5866412305999997,0.8400000000000001,-8.540000000000001,-0.14,8.765148466060001,-4.549234327119999,2.4622144554,-7.6370000000000005,-6.380500000000003,8.519
2.544848440999999,8.662017811999998,-4.3286160834,2.5603201819999994,-17.360000000000003,-9.870000000000001,-1.4700000000000002,8.77316442177,-4.53368098022,2.4780070845599993,-8.323000000000002,-6.3385000000000025,7.392000000000001
2.5519664189999958,8.709874264,-4.261617050599999,2.4335005842,-1.8900000000000001,-10.71,-3.2900000000000005,8.78680351059,-4.512145576819999,2.4801606248999994,-8.123500000000002,-6.321000000000001,6.272000000000002
2.559025398000017,8.673981925,-4.335794551199999,2.428714939,-2.45,-9.73,-5.880000000000001,8.79733193003,-4.493840483929999,2.4766910321299997,-7.7490000000000006,-6.310500000000001,5.152
2.5659273779999694,8.6835532154,-4.206582130799999,2.2492532439999997,-1.9600000000000002,-8.4,-8.05,8.79733193003,-4.465126612729999,2.46484656026,-7.153999999999999,-6.356000000000001,3.9935
2.573107356000037,8.709874264,-4.335794551199999,2.1320049365999996,-1.33,-7.98,-8.610000000000001,8.79888726472,-4.44610367306,2.4484557254499997,-6.377,-6.471500000000002,2.8525
2.5801333350000277,8.6883388606,-4.2975093896,2.0434705004,-0.21000000000000002,-7.420000000000001,-7.98,8.79625515986,-4.4327038665,2.42775780996,-5.4704999999999995,-6.6290000000000004,1.8024999999999984
2.5878403120000257,8.721838377,-4.146761565799999,1.9692929997999997,2.45,-6.86,-7.280000000000001,8.79266592596,-4.41320236231,2.40670097108,-4.5009999999999994,-6.758500000000002,0.8049999999999999
2.5949512910000294,8.671589102399999,-4.206582130799999,1.9501504189999996,5.11,-5.670000000000001,-6.86,8.78572674042,-4.393222293599999,2.3831316684699995,-3.4614999999999996,-6.811000000000002,-0.16450000000000017
2.6018902700000126,8.003991596999999,-4.18743955,1.9501504189999996,8.33,-3.8500000000000005,-5.670000000000001,8.74792014334,-4.376831458789999,2.3574088255199994,-2.3625,-6.748,-1.022
2.60881024899993,8.520841278599999,-4.0654055974,1.8807585635999997,9.520000000000001,-3.0100000000000002,-5.95,8.738109570679999,-4.35840672477,2.331207418049999,-1.2810000000000001,-6.646500000000001,-1.8305
2.6157712279999714,8.4562350684,-4.1060835816,1.9573288867999998,10.430000000000001,-4.130000000000001,-6.16,8.720641965699999,-4.334717781029999,2.307997038829999,-0.29400000000000037,-6.608000000000001,-2.5515000000000008
2.622820207000018,8.4012001486,-4.046263016599999,2.0315063874,10.22,-5.53,-7.910000000000001,8.702217231679999,-4.307319962259999,2.286461635429999,0.5775000000000003,-6.611500000000001,-3.2620000000000005
2.6298751859999356,8.3007015994,-3.9696926934,2.0626130812,9.38,-6.090000000000001,-8.260000000000002,8.678767570199998,-4.27489721603,2.2638494618599987,1.3125,-6.643000000000001,-3.8955000000000006
2.6367011649999768,8.274380550799998,-3.8572300311999994,2.0793628394,7.490000000000001,-6.510000000000001,-7.700000000000001,8.648259082049998,-4.23948344155,2.244228316539999,1.848,-6.709500000000001,-4.3715
2.643885143000034,8.3054872446,-3.7447673690000003,2.0793628394,4.69,-6.510000000000001,-6.370000000000001,8.61643454147,-4.1992840218700005,2.224367888959999,2.198,-6.7620000000000005,-4.7495
2.650977121999972,8.303094422,-3.649054465,2.0291135648,2.8000000000000003,-8.47,-5.670000000000001,8.585567129929997,-4.16195598931,2.1992432516599996,2.373,-6.9335,-5.0855000000000015
2.6580001009999705,8.274380550799998,-3.4408788988,1.9525432415999997,0.56,-9.31,-1.8900000000000001,8.54919622641,-4.1138602550500005,2.1701704570699993,2.394,-7.126,-5.218500000000001
2.665066079999974,8.197810227599998,-3.2685956715999995,1.8400805794,-2.1,-11.06,6.720000000000001,8.51043250029,-4.05727000056,2.136910222929999,2.261,-7.3605,-4.903500000000001
2.6726310569999896,8.528019746399998,-3.5246276897999995,1.6414763035999997,-0.21000000000000002,-11.620000000000001,9.8,8.495716641299998,-4.017788427659999,2.0928822870899997,2.2154999999999996,-7.5635,-4.431000000000001
2.679744034999999,8.3342011158,-3.3906296242,1.7036896912000001,-0.7000000000000001,-11.55,7.700000000000001,8.47107056852,-3.9684962820999994,2.0487347101199993,2.1384999999999996,-7.714000000000001,-4.039000000000001
2.686830013999952,8.338986761,-3.5437702705999996,1.7012968685999998,0.14,-8.96,5.880000000000001,8.45491901597,-3.92925399146,2.0057835444499994,3.0134999999999996,-7.668500000000002,-3.671500000000001
2.6939649930000087,8.3102728898,-3.4791640604,1.7706887239999998,2.24,-6.720000000000001,3.7800000000000002,8.43493894726,-3.89013134195,1.9726429514399997,3.2199999999999998,-7.469000000000001,-3.3180000000000014
2.7009139719999666,8.1427753078,-3.5676984965999994,1.6606188843999998,4.0600000000000005,-1.9600000000000002,4.41,8.4083786164,-3.8517265392199986,1.9342381487099995,3.5455000000000005,-7.0805000000000025,-2.803500000000002
2.7079809499999783,8.118847081799998,-3.6035908356,1.722832272,4.2,-0.28,6.16,8.380143309720001,-3.8215769744599997,1.9079171001099997,3.8535000000000013,-6.674500000000002,-2.093000000000001
2.714993929000002,8.0542408716,-3.8093735791999994,1.7778671918,4.340000000000001,0.6300000000000001,7.000000000000001,8.3473616401,-3.79525592586,1.89021021287,4.137000000000001,-6.244000000000001,-1.3125000000000007
2.7220869079999375,8.0015987744,-3.833301805199999,1.7491533205999998,5.880000000000001,1.54,5.11,8.31302463579,-3.77204554664,1.87549435388,4.4415000000000004,-5.795999999999999,-0.6580000000000006
2.7291348869999865,7.9704920806,-3.7375889011999996,1.8185451759999998,5.32,0.9800000000000001,2.8000000000000003,8.27545732097,-3.75158691341,1.8679569626899997,4.585000000000001,-5.404,-0.15400000000000041
2.7361378660000355,7.9728849032,-3.720839143,1.7778671918,4.69,0.77,3.1500000000000004,8.24052211101,-3.7272997640200005,1.85934280133,4.564,-5.081999999999999,0.34649999999999964
2.7432268439999916,8.128418372199999,-3.5653056739999998,1.7898313048,4.130000000000001,1.05,3.6400000000000006,8.24674344977,-3.6961930702200005,1.8513268456199998,4.353999999999999,-4.837,0.8119999999999997
2.7502628229999573,8.279166196,-3.3906296242,1.7730815465999998,2.87,1.9600000000000002,5.11,8.234659695640001,-3.6624542715600006,1.8459429947700001,4.0215000000000005,-4.588500000000001,1.3649999999999998
2.7573648019999837,8.329415470599999,-3.2997023654,1.7802600144,1.8900000000000001,3.5700000000000003,7.420000000000001,8.22831871575,-3.6221352107500002,1.8370895511499996,3.594500000000001,-4.203500000000001,2.044
2.7643577809999442,8.4251283746,-3.2231320422,1.7730815465999998,-0.07,4.83,10.290000000000001,8.22951512705,-3.58097866203,1.8241683091099996,3.0800000000000005,-3.685500000000001,2.9539999999999997
2.7714607589999787,8.4993058752,-3.218346397,2.4047867129999996,-3.7800000000000002,4.83,15.260000000000002,8.23944534084,-3.54341134721,1.8412769906999997,2.422,-3.139500000000001,4.130000000000001
2.778544737999937,8.542376681999999,-3.2709884942,1.9070796122,-7.7700000000000005,4.83,18.55,8.252845147399999,-3.51409927036,1.8326628293399998,1.6589999999999996,-2.5725000000000002,5.442500000000001
2.7855257169999277,8.4634135362,-3.4959138185999996,2.03389921,-14.770000000000001,4.69,22.820000000000004,8.26074146198,-3.50165659284,1.8303896478699997,0.6859999999999998,-2.0125000000000006,6.902000000000001
2.79259369600004,8.4442709554,-3.6562329327999996,2.1008982428,-19.39,5.250000000000001,24.990000000000002,8.26780028865,-3.5020155162299993,1.8339788817699998,-0.42350000000000004,-1.3265000000000007,8.435
2.799593674999983,8.350950873999999,-3.7902309983999998,2.1128623558,-24.990000000000002,4.62,25.62,8.27162880481,-3.51948312121,1.8419948374799997,-1.701,-0.6300000000000004,9.810500000000001
2.8064276540000037,8.331808293199998,-3.8620156764,2.0961125976,-31.570000000000004,3.22,26.880000000000003,8.278328708090001,-3.5491541214500004,1.8547964383899997,-3.1745000000000005,0.0839999999999997,10.818500000000002
2.8137616320000234,8.3222370028,-3.8668013215999997,2.03389921,-34.790000000000006,1.8900000000000001,28.140000000000004,8.268039570910002,-3.5662628030399994,1.8744175837100001,-4.9035,0.7594999999999998,11.735500000000002
2.820840610999994,8.362914987,-3.8572300311999994,1.9477575963999998,-36.260000000000005,1.2600000000000002,29.470000000000002,8.26947526447,-3.5895928233900003,1.8866209789700001,-6.6815000000000015,1.4,12.824000000000002
2.827897589000031,8.362914987,-3.7782668854,1.2538390423999999,-36.89,0.9800000000000001,33.040000000000006,8.27067167577,-3.60131765413,1.8642480876600005,-8.533000000000001,1.8969999999999998,14.182000000000002
2.8349305680000043,8.506484342999999,-3.6969109170000003,1.7898313048,-37.1,1.33,35.42,8.280482248430001,-3.612204996959999,1.8652052167000004,-10.500000000000002,2.2994999999999997,15.764000000000001
2.841846546999932,8.6165541826,-3.7351960785999996,1.7587246109999999,-38.080000000000005,2.5900000000000003,39.620000000000005,8.304171192170001,-3.620579876059999,1.8701105030300003,-12.607000000000003,2.527,17.524500000000003
2.8487975259999985,8.640482408599999,-3.8261233374,1.7874384822,-38.290000000000006,4.9,43.400000000000006,8.33025295851,-3.63170650115,1.8733408135400005,-14.731500000000002,2.786,19.3865
2.8558325049999667,8.685946038,-3.7830525305999996,1.7587246109999999,-38.290000000000006,9.590000000000002,47.74,8.361838216829998,-3.63039044872,1.8723836845000001,-16.863000000000003,3.2339999999999995,21.4235
2.8628904839999905,8.7266240222,-3.7016965622,1.7491533205999998,-40.11000000000001,11.410000000000002,53.410000000000004,8.39808947922,-3.6238101865699996,1.8723836845000001,-19.1625,3.7275,23.838500000000003
2.869979462999936,8.6069828922,-3.7423745464,1.5960126742,-42.28,12.950000000000001,57.89000000000001,8.4299140198,-3.6240494688299996,1.86125705941,-21.5425,4.326,26.593000000000007
2.877096440999935,8.484948939599999,-3.8907295475999994,1.519442351,-43.96,13.160000000000002,64.05000000000001,8.455517221619997,-3.63254398906,1.8483358173700002,-23.975,4.9455,29.638000000000012
2.884129420000022,8.3964145034,-3.9960137419999997,1.4620146085999999,-44.59,13.090000000000002,72.38000000000001,8.468917028179998,-3.6540793924599995,1.83194498256,-26.411,5.5475,33.075
2.8912313989999348,8.2456666796,-4.031906081,1.5026925928,-44.03,11.48,75.25000000000001,8.467242052359998,-3.6861432152999996,1.8184255348700002,-28.756,6.0235,36.58200000000001
2.898222378000014,7.9633136127999995,-4.208974953399999,1.7108681589999999,-42.84,10.99,84.91000000000001,8.448936959469998,-3.7316068447,1.8149559420999999,-30.9925,6.3945,40.456500000000005
2.905056357000035,7.633104094,-4.6612184247999995,2.0147566292,-40.32000000000001,12.180000000000001,92.12,8.409335745439998,-3.80351116383,1.8270396962300002,-33.005,6.7620000000000005,44.548
2.912131336000016,7.4943203832,-4.682753828199999,2.0626130812,-36.470000000000006,13.160000000000002,89.74000000000001,8.35908647084,-3.8767315353900003,1.8099310146399996,-34.639500000000005,7.1785,48.272000000000006
2.91915631400002,7.2263242519999995,-4.740181570599999,2.0267207422,-35.35,11.270000000000001,77.35000000000001,8.29328384934,-3.9501911892100003,1.8159130711399996,-36.0185,7.500500000000001,51.212
2.9262412929999755,7.0636123152,-4.740181570599999,1.9716858223999998,-35.21,8.82,69.58000000000001,8.223293788289999,-4.012404576810001,1.8128024017599997,-37.04050000000001,7.7070000000000025,53.55
2.933256271999994,7.137789815799999,-5.070391089399999,1.9716858223999998,-33.39,8.540000000000001,65.59,8.15796973131,-4.08311248464,1.8063417807399997,-37.74050000000001,7.8715,55.58
2.9402852509999775,7.367500785399999,-5.14456859,1.6917255782,-28.910000000000004,9.100000000000001,65.52000000000001,8.108797226880002,-4.15082936422,1.7852849418599999,-37.93650000000001,8.0955,57.575
2.9473452299999963,7.6067830453999985,-5.276173832999999,1.4835500119999998,-26.110000000000003,7.7700000000000005,68.67,8.07254596449,-4.22153727205,1.75465681258,-37.663500000000006,8.323,59.66450000000001
2.9549912070000346,7.6737820782,-5.3431728658,1.423729447,-21.630000000000003,6.790000000000001,72.38000000000001,8.040123218259998,-4.29535584926,1.7241483244300002,-37.005500000000005,8.568,61.87650000000001
2.962091184999963,7.597211754999999,-5.446064237599999,1.4452648504,-19.53,5.880000000000001,76.23,8.001838056659999,-4.374797559580001,1.6990236871300002,-36.169,8.799,64.21450000000002
2.9691161639999564,7.4943203832,-5.4628139957999995,1.543370577,-18.340000000000003,6.090000000000001,80.78,7.958408326469998,-4.4590249151000005,1.7135002638599999,-35.2415,9.0545,66.60150000000002
2.9761491429999296,7.647461029599999,-5.410171898599999,1.3974083984,-17.290000000000003,7.630000000000001,85.61000000000001,7.9154571608,-4.5446879641799995,1.6938791185400004,-34.251,9.369499999999999,69.11100000000002
2.983228122000014,7.4153572373999985,-5.745167062599999,1.3567304141999996,-17.360000000000003,6.930000000000001,90.79,7.855397313540001,-4.64518651338,1.6737794087000004,-33.215,9.5865,71.66950000000001
2.990449099999978,7.087540541199999,-5.9126646445999995,1.6319050132,-17.57,7.3500000000000005,94.64000000000001,7.777750220170001,-4.749513578739999,1.6660027352500002,-32.179,9.709,74.23150000000001
2.9974980790000245,6.5012990042,-6.1758751306,1.9118652573999997,-18.76,10.080000000000002,90.65,7.66851786848,-4.86915470874,1.67365976757,-31.202500000000008,9.733500000000001,76.37700000000001
3.0043790579999268,6.0083775485999995,-6.520441584999999,2.0985054202,-19.950000000000003,12.250000000000002,79.31,7.532605544800002,-5.0100919598800004,1.69112737255,-30.194500000000012,9.775500000000001,77.67200000000001
3.0115680359999715,6.0227344842,-6.8219372326,2.4143580034,-25.900000000000002,13.160000000000002,62.09,7.4033931244,-5.16407009419,1.73204463901,-29.375500000000006,9.786000000000001,77.88200000000002
3.0186220150000054,5.977270854799999,-6.955935298199999,1.9764714675999997,-32.2,11.48,54.53000000000001,7.2780092201599995,-5.31733038172,1.7548960948399999,-28.787500000000005,9.702000000000002,77.406
3.025661993999961,6.2715880346,-7.2957161074000005,1.7276179172000001,-37.730000000000004,9.520000000000001,51.38,7.1717678967200005,-5.4823154999899995,1.7681762602700002,-28.444500000000005,9.523500000000002,76.35600000000001
3.0326719729999922,6.4079789228,-7.381857720999999,1.4452648504,-36.190000000000005,6.23,52.92,7.07988350888,-5.6498130819900005,1.76530487315,-28.052500000000002,9.261,75.2395
3.039726951000034,6.6209401342,-7.154539573999999,1.3208380751999997,-33.040000000000006,0.49000000000000005,55.440000000000005,7.01276483495,-5.797091313019999,1.74580336896,-27.562500000000007,8.736,73.766
3.04675893000001,6.668796586199999,-7.3052873978,1.1988041226,-23.87,-1.6800000000000002,56.84,6.964549459559999,-5.92929476167,1.7050057436300001,-26.74,8.043,72.002
3.053868909000016,6.604190375999999,-7.6785677234,1.0576275892,-17.290000000000003,-3.7100000000000004,57.400000000000006,6.920042959199998,-6.07908545643,1.65475646903,-25.781,7.199499999999999,70.385
3.0609968869999875,6.415157390599999,-7.331608446399999,1.2945170265999997,-10.500000000000002,-2.5200000000000005,55.790000000000006,6.87948461613,-6.208656800219999,1.6181462832499995,-24.538500000000003,6.51,69.30700000000002
3.068045866000034,6.319444486599999,-7.824529902,1.3615160593999998,-4.83,17.85,51.59,6.842276224699999,-6.362874216789999,1.5876377950999998,-23.0195,6.961500000000001,68.4075
3.0751348449999796,6.1040904525999995,-7.814958611599999,1.5696916255999998,-3.1500000000000004,2.5200000000000005,46.830000000000005,6.790591256539999,-6.500102592899998,1.5675380852599998,-21.5075,6.660500000000002,67.4695
3.0821668239999553,5.9820565,-7.597211754999999,1.7611174335999997,-1.6800000000000002,6.300000000000001,37.03,6.721319042270001,-6.6227347511499985,1.5710076780299997,-20.146000000000004,6.5205,66.045
3.0891508029999386,5.9820565,-7.944171031999999,1.6845471104,-3.2900000000000005,8.33,31.360000000000003,6.640082715000001,-6.756134611099999,1.5810575329499998,-19.005000000000003,6.5485,64.17949999999999
3.0962377810000135,6.1375899689999995,-7.410571592199999,1.7395820302,-5.880000000000001,7.210000000000001,28.630000000000003,6.563273109540001,-6.859504547419999,1.5968501621100002,-18.217500000000005,6.5695,61.992
3.1031257600000117,6.1567325498,-7.7694949822,1.7994025952000001,-9.940000000000001,6.720000000000001,26.740000000000002,6.4912491492800015,-6.975676084649999,1.6145570493500003,-17.738000000000003,6.6114999999999995,59.5175
3.1101127389999874,6.187839243599999,-7.7479595788,1.7946169499999998,-12.950000000000001,7.000000000000001,26.390000000000004,6.425925092300001,-7.089933363799998,1.627119368,-17.468500000000002,6.656999999999999,56.798000000000016
3.1172387179999532,6.276373679799999,-7.858029418399998,1.5864413838,-15.610000000000001,7.07,28.35,6.35737072481,-7.212326239789999,1.6365710172699999,-17.384500000000003,6.629,53.935
3.124253696999972,6.259623921599999,-7.886743289599999,1.6438691261999998,-16.03,7.210000000000001,34.02,6.299584059020001,-7.3194050511399995,1.6509279528699998,-17.318,6.642999999999999,51.096500000000006
3.1313656749999836,6.357729648199999,-7.9728849032,1.6510475939999998,-15.190000000000001,7.700000000000001,38.43000000000001,6.26309351437,-7.422416064070001,1.65188508191,-17.199000000000005,6.660499999999999,48.286
3.138390653999977,6.278766502399999,-7.802994498599999,1.5792629159999998,-11.760000000000002,6.300000000000001,42.35,6.25196688928,-7.503772032469999,1.6352549648399997,-16.849000000000004,6.471500000000001,45.870999999999995
3.1452586340000153,6.032305774599999,-7.9393853868,1.6079767872,-7.5600000000000005,5.040000000000001,43.190000000000005,6.25316330058,-7.574719222560001,1.6107285331899999,-16.2295,6.111000000000001,44.065000000000005
3.1522706119999384,5.838487143999999,-7.9585279675999985,1.8400805794,-2.7300000000000004,4.0600000000000005,40.46,6.24395093357,-7.63154875931,1.5820146619899997,-15.071000000000003,5.656000000000001,42.98350000000001
3.1593805909999446,5.6183474648,-8.133204017399999,2.0027925162,0.35000000000000003,4.69,33.32,6.226004764069999,-7.6904121952699995,1.5833307144199997,-13.4435,5.316500000000001,41.923000000000016
3.1664385699999684,4.905286329999999,-8.571090553199998,2.1008982428,-2.24,5.880000000000001,27.160000000000004,6.157689678839999,-7.754180917559999,1.6019947306999995,-11.669,5.134500000000001,40.712
3.1735665479999398,5.551348432,-8.3748791,2.0961125976,-5.74,6.0200000000000005,1.8200000000000003,6.1148581542999985,-7.80383198651,1.6345371180599997,-10.146500000000001,5.124,38.15700000000002
3.180640527000037,5.740381417399999,-8.315058534999999,2.0315063874,-10.99,4.41,13.020000000000001,6.0708302184599985,-7.861857934559998,1.6700705336699997,-9.044,5.319999999999999,36.036000000000016
3.18767350600001,5.967699564399999,-8.3342011158,2.0386848552,-15.400000000000002,1.2600000000000002,12.46,6.0357753673699985,-7.913303620459999,1.7120645703000001,-8.620500000000002,5.4670000000000005,33.817000000000014
3.194712484999968,6.0490555328,-8.0733834524,1.7611174335999997,-17.220000000000002,0.35000000000000003,13.090000000000002,6.008018625209999,-7.93304440691,1.7472390625199998,-8.617,5.67,31.60150000000001
3.201654463999944,6.037091419799999,-8.123632727,1.5720844482,-16.310000000000002,0.35000000000000003,13.930000000000001,5.989115326669999,-7.97264562094,1.7611174336000002,-8.907500000000002,5.8134999999999994,29.508500000000005
3.2086304429999473,5.855236902199999,-8.0255270004,1.567298803,-14.000000000000002,1.7500000000000002,14.490000000000002,5.965904947449999,-7.98269547586,1.77140657078,-9.366,5.0085,27.653499999999998
3.2155804220000164,5.826523031,-8.1068829688,1.4691930763999999,-11.690000000000001,3.43,13.930000000000001,5.952026576369998,-7.9972916937199985,1.7663816433199997,-9.793,5.054,26.008499999999998
3.2226364009999315,5.886343596,-8.226524098799999,1.3663017045999997,-9.170000000000002,4.970000000000001,13.790000000000001,5.947240931169999,-8.028757310909999,1.74664085687,-10.1675,4.987499999999999,24.8465
3.229690378999976,5.7140603688,-8.216952808399999,1.5218351735999998,-7.98,7.280000000000001,12.740000000000002,5.933841124609999,-8.042396399729999,1.7385052600300004,-10.402,4.9350000000000005,23.9155
3.2374023559999614,5.7188460139999995,-8.3533436966,1.6797614652,-8.540000000000001,10.920000000000002,12.040000000000001,5.912903926859999,-8.089535004950001,1.7355142317800003,-10.535,5.1205,23.086000000000002
3.244476334999945,5.871986660399999,-8.4538422458,1.6821542877999998,-11.97,13.370000000000001,11.340000000000002,5.8986666323899986,-8.12375236813,1.72965181641,-10.6365,5.453000000000001,22.316000000000003
3.2514933139999584,5.647061336,-8.4921274074,1.495514125,-17.5,12.950000000000001,9.24,5.871627737009999,-8.16096075956,1.7146966751600001,-10.864,5.750500000000001,21.4585
3.2585002929999973,5.5728838354,-8.4562350684,1.3399806559999998,-18.970000000000002,9.24,8.190000000000001,5.83645324479,-8.19087104206,1.7023736387700001,-11.032,5.859,20.450499999999998
3.265494270999966,5.4771709314,-8.49452023,1.2179467034,-0.14,3.43,6.65,5.797330595279999,-8.221259889079999,1.68107751763,-10.2375,5.670000000000001,19.082
3.2725302499999316,5.469992463599999,-8.427521197199999,1.3495519463999999,-12.180000000000001,-0.77,4.130000000000001,5.75294373605,-8.243991703779999,1.6660027352499998,-10.087,5.246500000000001,17.367
3.2796892289999278,5.5609197223999995,-8.626125472999998,1.5457633995999998,-8.47,-2.5900000000000003,3.43,5.71705139705,-8.285148252499999,1.6643277594299994,-9.9225,4.8020000000000005,15.421000000000001
3.286699207999959,5.790630692,-8.5998044244,1.4787643668,-5.390000000000001,-1.6800000000000002,1.7500000000000002,5.704967642919998,-8.318169204380002,1.6578671384099994,-9.814000000000002,4.466,13.349
3.2938361860000214,5.7499527077999995,-8.391628858199999,1.5529418674,-6.300000000000001,-0.77,0.21000000000000002,5.700540921109999,-8.339824248910002,1.6435102028099995,-9.992500000000001,4.224500000000001,11.336500000000003
3.300921164999977,6.005984725999999,-8.3174513576,1.3040883169999997,-7.98,0.35000000000000003,0.42000000000000004,5.719922784169999,-8.349036615920001,1.6085749928499993,-10.409000000000002,4.0075,9.691500000000001
3.307995142999971,5.446064237599999,-8.817551280999998,1.6055839645999996,-10.22,1.4700000000000002,0.7000000000000001,5.746961679549999,-8.361359652309998,1.5838092789399998,-10.808000000000002,3.787,8.368500000000001
3.3150521219999973,6.0562340006,-8.1547394208,1.567298803,-12.180000000000001,6.86,-0.07,5.772205957979999,-8.350352668350002,1.5573685892099998,-11.13,3.8289999999999997,8.274000000000001
3.322059101000036,5.8217373858000006,-8.1068829688,1.4093725114,-13.930000000000001,9.870000000000001,0.07,5.776273756399999,-8.33994389004,1.5262618954099998,-11.277000000000001,4.102,7.6265
3.3290660799999614,5.642275690799999,-8.283951841199999,1.3926227532000002,-13.650000000000002,11.690000000000001,0.8400000000000001,5.7600025627199996,-8.337431426310001,1.4939587903100002,-11.189500000000002,4.623500000000001,7.0455
3.3360470589999522,5.6374900456,-8.118847081799998,1.3519447689999997,-12.110000000000001,13.440000000000001,0.21000000000000002,5.73942428836,-8.33970460778,1.4735001570799997,-10.934000000000001,5.2780000000000005,6.4015
3.3464450279999483,5.737988594799999,-8.0542408716,1.1437692027999997,-8.47,11.620000000000001,-1.7500000000000002,5.724469147110001,-8.33623501501,1.4520843948100002,-10.542000000000002,5.841500000000002,5.617500000000001
3.35356500599994,5.5369914964,-8.0135628874,1.1509476706000001,-2.66,9.66,-3.0100000000000002,5.708556876820001,-8.33563680936,1.4312668381900002,-9.975000000000001,6.237,4.742500000000001
3.3606489850000116,5.730810127,-8.2815590186,1.1940184774,2.0300000000000002,8.33,-3.22,5.703771231620001,-8.34437061185,1.4175081082400003,-9.289000000000001,6.482000000000001,3.8850000000000002
3.3676319639999974,5.697310610599999,-8.2959159542,1.2490533971999997,5.390000000000001,4.83,-4.62,5.69431958235,-8.347840204620002,1.41164569287,-8.561000000000002,6.475,2.9645000000000006
3.374697943000001,5.647061336,-8.0494552264,1.4691930763999999,12.740000000000002,2.5900000000000003,-9.170000000000002,5.690969630710001,-8.339465325519999,1.40901358801,-7.525,6.240499999999999,1.8690000000000009
3.381747920999942,5.8193445632000005,-8.0494552264,1.5314064639999998,18.76,1.8900000000000001,-10.850000000000001,5.695994558170001,-8.324270902010001,1.40159583795,-6.160000000000002,5.789,0.7245000000000008
3.3887578999999732,5.9102718219999995,-7.934599741599999,1.5218351735999998,19.040000000000003,1.6800000000000002,-10.850000000000001,5.69790881625,-8.2983087768,1.39357988224,-4.6095,5.2045,-0.3849999999999998
3.395838878999939,5.941378515799999,-7.905885870399999,1.5074782379999998,19.110000000000003,1.9600000000000002,-12.180000000000001,5.712624675239999,-8.26899669995,1.39417808789,-2.7790000000000012,4.655,-1.4560000000000002
3.4027678579999474,6.1471612594,-7.802994498599999,1.5146567058,19.110000000000003,3.5700000000000003,-13.23,5.74133854644,-8.23633467146,1.40291189038,-0.8749999999999998,4.3715,-2.527
3.409703836999938,6.1567325498,-7.616354335799999,1.6007983193999997,19.880000000000003,5.6000000000000005,-12.88,5.775316627359999,-8.19242637675,1.4220544711799998,0.12600000000000106,4.4799999999999995,-3.5035
3.41674281600001,6.0610196458,-7.558926593399999,1.6151552549999997,21.840000000000003,8.47,-12.110000000000001,5.804867986469999,-8.148996646559999,1.43533463661,1.8270000000000004,4.942,-4.3155
3.423862794999991,7.022934330999999,-7.262216591,1.5864413838,21.770000000000003,11.48,-11.9,5.877968716899999,-8.080801202459998,1.43736853582,3.3390000000000013,5.6455,-5.082
3.4310217729999977,5.3575298014,-8.523234101199998,1.8520446923999998,30.17,10.99,-17.92,5.85631367237,-8.076972686299998,1.4560325521,5.117000000000001,6.278999999999999,-6.0655
3.4379967520000037,5.0943193154,-8.7840517646,2.5555345367999998,33.18,14.21,-26.810000000000002,5.8235320027499995,-8.09659383162,1.50616218557,7.091000000000001,7.0280000000000005,-7.416500000000001
3.4449737310000046,5.2235317358,-7.573283528999999,2.0362920326,26.040000000000003,19.32,-30.310000000000002,5.784409353239999,-8.059385440189999,1.5427723713500001,8.792,7.9765,-8.953
3.4520377100000132,5.3934221404,-8.5040915204,1.5601203352,9.38,18.130000000000003,-24.220000000000002,5.78177724838,-8.043712452160001,1.5404991898799998,9.772,8.8095,-10.199
3.4590366889999586,5.644668513399999,-7.7120672398,1.9094724347999998,0.77,14.910000000000002,-22.750000000000004,5.76119897402,-8.021578843110001,1.55760787147,10.419500000000003,9.212,-11.333
3.466031668000028,6.017948839,-7.475177802399999,2.0243279195999997,12.250000000000002,14.700000000000001,-25.200000000000003,5.771009546679999,-7.989993584790001,1.5883556418800002,11.728500000000002,9.453499999999998,-12.5965
3.4730806459999712,5.9150574672,-7.683353368600001,1.7970097725999998,29.19,12.530000000000001,-26.390000000000004,5.7846486355,-7.959963661159999,1.60857499285,13.870500000000002,9.495499999999998,-13.958000000000002
3.4801516249999622,5.9246287576,-7.654639497399999,1.543370577,34.160000000000004,6.510000000000001,-22.89,5.7990055711,-7.93675328194,1.61814628325,16.184000000000005,9.148999999999997,-15.113
3.487312602999964,6.037091419799999,-7.4991060284,1.6199409001999998,38.64,3.2900000000000005,-17.5,5.81396071235,-7.908996539779999,1.6419548681200002,18.5395,8.732499999999998,-15.9005
3.4943215819999978,4.893322217,-8.391628858199999,0.6915257314000001,23.8,-2.24,2.24,5.781777248380001,-7.927899838319999,1.61898377116,19.862500000000004,8.1375,-15.638
3.5012615609999784,7.281359171799999,-6.855436748999999,2.7828526837999994,14.770000000000001,3.43,-1.1900000000000002,5.859304700620002,-7.856593724839999,1.69842548148,20.4995,7.892499999999998,-15.536499999999998
3.5082535399999415,6.388836342,-6.5778693274,1.2705888005999997,28.28,11.48,-6.65,5.893880987190002,-7.770691393499999,1.69950225165,21.644,8.224999999999998,-15.637999999999996
3.515238519000036,6.5228344075999996,-6.5611195692,1.5840485612,27.930000000000003,12.46,-2.9400000000000004,5.937669640770002,-7.696274610639999,1.7052450258899998,22.4035,8.718499999999999,-15.3265
3.522515496999972,6.293123438,-6.8243300552,1.9621145319999997,28.28,17.080000000000002,1.8200000000000003,5.96135858451,-7.635018352079999,1.72678042929,22.8795,9.478,-14.693000000000001
3.5301864739999473,6.2021961791999995,-7.1114687672,2.321037922,25.060000000000002,19.740000000000002,3.99,5.97595480237,-7.593861803359999,1.7667405667099998,23.180500000000002,10.381,-13.950999999999999
3.5372964529999535,5.991627790399999,-7.0253271536,2.4215364712,22.330000000000002,20.020000000000003,1.61,5.9784672661,-7.549833867519998,1.81244347837,23.341500000000003,11.284000000000002,-13.261499999999998
3.5443334320000304,5.647061336,-7.1688965096,2.5579273594,19.110000000000003,19.810000000000002,-1.8900000000000001,5.95346226993,-7.518128968069999,1.8646070110499995,23.341500000000003,12.096,-12.6945
3.551417409999999,5.4532427054,-7.3746792532,2.6344976825999997,16.310000000000002,15.680000000000001,-5.460000000000001,5.918287777710001,-7.5060452139399985,1.9162919792099995,23.163000000000004,12.600000000000001,-12.323500000000001
3.558458388999952,5.5944192388,-7.434499818199998,2.6105694566,14.63,11.06,-9.030000000000001,5.894957757359999,-7.499823875180001,1.9660626892899995,22.802500000000002,12.729500000000003,-12.169500000000001
3.565495368000029,5.620740287399999,-7.680960546,2.572284295,11.690000000000001,4.69,-9.870000000000001,5.82484805518,-7.52076107293,2.0153548348499997,22.2985,12.390000000000004,-12.068
3.5725183470000275,5.6925249654,-7.5134629639999995,2.4239292938,9.940000000000001,2.1700000000000004,-9.8,5.84159781338,-7.47027251607,2.04394906492,21.287000000000003,11.949000000000003,-11.662000000000003
3.5795703259999527,5.682953674999999,-7.523034254399999,2.3473589705999998,9.870000000000001,1.12,-9.66,5.871029531359999,-7.407221640559999,2.0335402866099996,20.1215,11.294500000000003,-10.804499999999999
3.5865433049999638,5.740381417399999,-7.5517481256,2.4143580034,10.64,1.6800000000000002,-9.940000000000001,5.89687201544,-7.406144870389999,2.05244358515,19.351499999999998,10.412500000000003,-9.786
3.594269281000038,5.826523031,-7.5924261098,2.3641087288,12.39,3.08,-10.430000000000001,5.91852705997,-7.360561599859999,2.0926430048299998,19.502,9.66,-9.096500000000002
3.601267259999986,5.895914886399999,-7.53739119,2.3784656643999997,12.670000000000002,3.3600000000000003,-10.010000000000002,5.931089378619999,-7.351827797369998,2.1160926663099993,20.097,9.082500000000003,-8.459500000000002
3.608195238999997,5.972485209599999,-7.5110701413999985,2.3952154225999998,12.740000000000002,3.3600000000000003,-8.610000000000001,5.928816197149998,-7.35362241432,2.1346370414599996,20.1215,8.515500000000003,-7.63
3.615260218000003,5.9054861768,-7.429714172999999,2.5292134882,12.950000000000001,3.7100000000000004,-6.580000000000001,5.928337632629998,-7.340940454540001,2.1712472272399994,19.3095,8.074500000000004,-6.6395
3.622262196999941,5.8217373858000006,-7.4560352216,2.6033909887999998,12.740000000000002,4.62,-5.53,5.923193064039999,-7.3310102407499995,2.22424824783,18.238500000000002,7.980000000000004,-5.7715000000000005
3.629390175000026,5.761916820800001,-7.489534738000001,2.6632115537999996,11.690000000000001,4.760000000000001,-5.180000000000001,5.909434334089999,-7.33053167623,2.2764117805099993,16.891000000000002,8.053500000000003,-5.155500000000001
3.63651315300001,5.7499527077999995,-7.470392157199999,2.7230321187999995,10.57,4.0600000000000005,-5.880000000000001,5.952265858629999,-7.284469841179998,2.3779870998799995,16.2295,8.368500000000003,-5.5615000000000006
3.6436581319999277,5.7332029496,-7.501498850999999,2.7541388125999995,9.590000000000002,2.0300000000000002,-6.090000000000001,5.874858047519998,-7.3167729462799995,2.3765514063199995,15.970500000000001,8.298500000000002,-5.806500000000001
3.65064811000002,5.666203916800001,-7.539784012599999,2.8450660714,9.24,-17.57,-7.5600000000000005,5.838726426259998,-7.364868680540001,2.4552752698599996,15.0185,6.846000000000004,-5.852
3.65753909,5.663811094199999,-7.5948189324,2.9072794589999997,9.170000000000002,-2.24,-9.31,5.79577526059,-7.416553648699998,2.5214368147499995,14.0805,6.111000000000001,-6.1705000000000005
3.664546067999936,5.6685967394,-7.623532803599999,2.9192435719999996,9.170000000000002,-5.11,-11.13,5.76454892566,-7.456513786119999,2.5692932667499995,13.125,5.001500000000002,-6.8180000000000005
3.67164504699997,5.635097223,-7.666603610399998,2.931207685,8.190000000000001,-7.840000000000001,-13.510000000000002,5.736193977850001,-7.484270528279998,2.599801754899999,12.281500000000003,3.622500000000001,-7.6930000000000005
3.678741025000022,5.706881900999998,-7.635496916599999,2.8570301844,5.6000000000000005,-10.010000000000002,-14.350000000000001,5.721956683380001,-7.514779016429998,2.6215764405599993,11.445,2.121,-8.491
3.68574700399995,5.967699564399999,-7.587640464599999,3.0580272828,0.07,-10.920000000000002,-13.440000000000001,5.7379885948,-7.535716214179999,2.64658143673,10.493000000000002,0.5844999999999994,-9.0685
3.6928759820000323,5.8169517405999995,-7.4488567537999995,3.026920589,1.05,-8.33,-12.110000000000001,5.75617404656,-7.539425089209997,2.66620258205,9.730000000000002,-0.6160000000000001,-9.401
3.699905961000013,6.0083775485999995,-7.587640464599999,2.775674216,-0.9100000000000001,-9.170000000000002,-11.270000000000001,5.77687196205,-7.547082121529998,2.6744578200199998,8.953,-1.6275,-9.513000000000002
3.7067509400000063,6.017948839,-7.477570624999999,2.7254249414,-1.54,-9.520000000000001,-9.520000000000001,5.79673238963,-7.536912625479998,2.68211485234,8.291500000000001,-2.338,-9.495500000000002
3.7140169179999702,5.9365928706,-7.4201428825999995,2.775674216,-0.56,-8.82,-9.520000000000001,5.808935784889999,-7.532246621409999,2.6997020984499995,7.766500000000001,-2.8875,-9.481500000000002
3.7210658970000168,5.931807225399999,-7.446463931199999,2.7134608283999992,0.6300000000000001,-7.140000000000001,-10.15,5.821378462409999,-7.528418105249999,2.71800719134,7.3045,-3.3005000000000004,-9.506000000000004
3.728135875000021,5.9150574672,-7.269395058799999,2.6751756667999995,0.07,-7.07,-11.06,5.8301122648999995,-7.5143004519100005,2.73104807451,6.776000000000001,-3.7379999999999995,-9.562000000000003
3.735140853999951,6.068198113599999,-7.917849983399999,2.4358934068,-1.05,-8.75,-10.22,5.842196019029999,-7.530571645590001,2.73463730841,6.103999999999999,-4.3295,-9.551500000000003
3.7421858330000077,6.0418770649999995,-7.223931429399999,2.5459632463999995,-3.2900000000000005,-10.57,-7.700000000000001,5.849494127959999,-7.514898657560001,2.7430121875099998,5.305999999999998,-5.026000000000001,-9.436000000000002
3.749213811000004,6.362515293399999,-7.4129644148,2.5387847785999997,-13.860000000000001,-13.370000000000001,-7.840000000000001,5.868995632149999,-7.509993371230001,2.75019065531,3.975999999999999,-5.8625,-9.3975
3.75623779,5.709274723599999,-7.233502719799999,3.1824540579999994,-10.430000000000001,-9.24,-8.05,5.859185059489999,-7.50018279857,2.7828526837999994,2.806999999999999,-6.510000000000001,-9.471
3.7633357690000366,5.812166095399999,-7.042076911799999,2.7254249414,-0.07,-4.550000000000001,-12.39,5.858706494969999,-7.479484883079998,2.7889543814299995,2.1664999999999983,-6.9685000000000015,-9.814000000000002
3.770461747000013,6.037091419799999,-7.156932396599999,2.7086751831999996,1.05,-5.180000000000001,-13.510000000000002,5.872465224919999,-7.4628547660099995,2.7912275628999996,1.6345000000000005,-7.465500000000001,-10.230500000000001
3.7775597249999464,6.032305774599999,-7.1234328802,2.8689942973999996,-1.1900000000000002,-7.000000000000001,-12.670000000000002,5.88658287826,-7.44550680216,2.79852567183,1.0465000000000004,-8.018500000000001,-10.570000000000002
3.784638704000031,6.0227344842,-7.154539573999999,2.6225335696,-7.210000000000001,-9.8,-10.22,5.90105945499,-7.428158838310002,2.7919454096799994,0.20650000000000085,-8.610000000000003,-10.7765
3.7916996829999334,6.0346985971999985,-7.240681187599998,2.950350265799999,-11.13,-14.280000000000001,-7.840000000000001,5.919484189009999,-7.41320369706,2.7972096193999993,-0.8119999999999999,-8.445500000000003,-10.7905
3.7987486609999905,5.941378515799999,-7.601997400199999,2.0434705004,-15.190000000000001,-17.430000000000003,-2.24,5.93336256009,-7.413562620449999,2.7540191714699995,-2.03,-9.205000000000002,-10.437000000000001
3.8056386399999838,6.218945937399999,-7.283751994399999,2.5770699402,-16.1,-19.950000000000003,4.2,5.9608800199899985,-7.396573579989999,2.736910489879999,-3.2935000000000003,-9.947000000000003,-9.6705
3.813352616999964,6.226124405199999,-7.334001268999999,2.3545374384,-15.330000000000002,-18.060000000000002,7.840000000000001,5.990431379099999,-7.379943462919999,2.7080769775499998,-4.4695,-10.458000000000002,-8.603000000000002
3.8205815950000215,6.1567325498,-6.8626152168,2.2444675987999996,-10.500000000000002,-8.47,5.040000000000001,6.01292391154,-7.3412993779299995,2.6774488482699996,-5.2745,-10.381000000000002,-7.633500000000003
3.8276395739999316,6.317051663999999,-7.037291266599999,2.0793628394,-10.15,-2.87,3.08,6.030391516519999,-7.31378191803,2.6285156260999996,-5.785500000000001,-9.9785,-6.807500000000002
3.8346325520000164,6.2979090831999995,-7.106683122,2.1032910653999997,-13.160000000000002,0.35000000000000003,3.99,6.054439383649999,-7.296673236439998,2.58233414992,-6.496,-9.544500000000003,-6.002500000000001
3.841751531,6.2404813408,-7.080362073399999,2.0985054202,-14.21,3.5700000000000003,4.62,6.066044573259999,-7.27130931688,2.5484757101299995,-7.161000000000001,-8.907500000000002,-5.208
3.848764509000034,6.2333028729999995,-7.278966349199998,2.2157537275999997,-14.350000000000001,4.760000000000001,4.130000000000001,6.07681227496,-7.26137910309,2.5229921494399994,-7.8015,-8.193500000000002,-4.5255
3.8557464880000225,6.2333028729999995,-7.283751994399999,2.2875384055999994,-13.930000000000001,6.580000000000001,2.87,6.091647775079999,-7.2545595586800005,2.4985853589199998,-8.47,-7.423500000000002,-3.906
3.862812467000026,6.0490555328,-7.2263242519999995,2.2444675987999996,-14.910000000000002,8.4,1.12,6.0975101904499995,-7.243552574720001,2.47513569744,-9.247,-6.646500000000001,-3.3425
3.8698264459999336,6.053841178,-7.2933232848,2.2899312282,-17.85,7.840000000000001,-1.4700000000000002,6.104449375989999,-7.244748986020001,2.4558734755099993,-10.142999999999999,-5.901000000000001,-2.8630000000000004
3.877044424000019,6.2165531148,-7.348358204599999,2.5459632463999995,-18.48,5.460000000000001,-2.9400000000000004,6.111867126049999,-7.216274397080001,2.4613769674899997,-11.0145,-5.190500000000002,-2.4989999999999997
3.8839454029999843,6.5060846494,-6.723831506,2.0506489682,-11.97,0.35000000000000003,-7.210000000000001,6.135077505269999,-7.1912694009099996,2.4366112535799997,-11.4485,-4.644500000000001,-2.4745
3.8912903799999867,6.544369811,-7.178467799999999,2.3880369548,-17.01,-9.520000000000001,-2.45,6.144170231149999,-7.179544570169999,2.42907386239,-11.605999999999998,-4.452,-2.2049999999999996
3.89842535899993,6.4462640844,-6.305087550999999,2.4239292938,-11.9,-13.370000000000001,1.05,6.181019699189998,-7.133123811729997,2.39114762418,-11.679499999999999,-4.6585,-1.7500000000000007
3.905266337999933,6.3673009386,-6.4677994878,2.2253250179999995,-10.64,-15.400000000000002,4.48,6.208776441349998,-7.104409940529999,2.3661426280099995,-12.207999999999998,-5.201000000000001,-0.9065000000000001
3.912312316999987,6.2548382764,-7.312465865599999,2.0123638066,-14.21,-13.580000000000002,8.680000000000001,6.219663784179998,-7.112186613979998,2.3313270591799995,-12.970999999999998,-5.621,0.2030000000000002
3.919416295000019,6.4582281973999995,-6.908078846199999,2.1990039693999996,-0.14,-8.540000000000001,12.88,6.240959905319999,-7.101418912279999,2.29782754278,-12.918499999999998,-5.698000000000001,1.4805
3.9264522739999848,6.9774707016,-6.412764567999999,1.8137595307999999,-3.99,5.390000000000001,14.560000000000002,6.288696716189999,-7.064330161979998,2.2573888408399996,-12.7575,-4.938500000000001,2.7195000000000005
3.9336242519999587,6.053841178,-6.860222394199999,1.6654045295999997,-10.780000000000001,4.83,17.57,6.289653845229999,-7.045307222309998,2.1931415540299994,-12.74,-3.983000000000002,3.9900000000000007
3.9406742310000027,6.3960148098,-7.173682154799999,2.4813570361999995,-11.9,9.870000000000001,13.23,6.312385659929999,-7.023891460039998,2.21503588082,-12.575500000000002,-2.6180000000000008,4.763500000000001
3.9477132089999714,5.678168029799999,-7.319644333399999,1.9262221929999996,-15.330000000000002,18.200000000000003,4.9,6.285346764549999,-7.025686076989999,2.18249349346,-12.537,-0.7104999999999997,4.798500000000001
3.954809188000013,6.125625855999999,-6.166303840199999,1.9142580799999998,-23.87,18.62,5.040000000000001,6.280321837089999,-6.967301205549998,2.16047952554,-12.964000000000002,1.1235,4.658500000000001
3.9618481659999816,6.546762633599999,-7.4991060284,1.9381863059999997,-9.24,14.070000000000002,15.400000000000002,6.299823341279999,-6.999125746129998,2.1451654609,-12.901000000000002,2.2504999999999997,5.176500000000002
3.968950145000008,5.891129241199999,-7.099504654199999,2.3736800192,-7.5600000000000005,7.700000000000001,16.87,6.27852722014,-7.002236415509998,2.1598813198899998,-12.771500000000003,2.7790000000000004,5.866000000000001
3.9759651240000267,5.6566326263999995,-6.7094745703999985,2.4239292938,-9.870000000000001,6.790000000000001,19.180000000000003,6.246463397299999,-6.98237598793,2.1759132313099996,-12.607000000000003,3.101,6.625500000000001
3.983031101999927,5.670989562,-7.250252477999999,1.8831513862,-6.790000000000001,5.880000000000001,20.930000000000003,6.2179888083599995,-6.990870508159999,2.1651455296099997,-12.236000000000002,3.2165,7.441000000000001
3.990186079999944,5.903093354199999,-7.2047888486,2.1008982428,-6.23,3.9200000000000004,23.17,6.20147833242,-6.98716163313,2.15940275537,-11.830000000000002,3.1745,8.393
3.9972880589999704,5.7260244818,-7.1593252192,1.9860427579999997,-9.31,1.7500000000000002,26.67,6.17611441286,-6.980940294369999,2.1443279729899993,-11.599000000000002,2.9330000000000003,9.583000000000002
4.004168037999989,5.8145589179999995,-7.281359171799999,1.9573288867999998,-12.39,1.9600000000000002,29.680000000000003,6.16438958212,-6.98369204036,2.1299710373899994,-11.473000000000003,2.611,11.011000000000001
4.01119801699997,5.850451257,-7.319644333399999,1.8448662245999998,-16.73,4.2700000000000005,31.990000000000002,6.15422008607,-6.985008092789999,2.1077177872099995,-11.417,2.4325000000000006,12.684000000000003
4.018247995000024,5.972485209599999,-7.1234328802,1.8161523534,-18.340000000000003,7.490000000000001,34.86000000000001,6.142016690809999,-6.97376182657,2.07122724256,-11.41,2.5340000000000003,14.574000000000003
4.025272974000018,6.053841178,-7.020541508399999,1.9046867895999997,-17.360000000000003,10.99,36.470000000000006,6.11940451724,-6.98859732669,2.06392913363,-11.6795,3.0660000000000007,16.758000000000003
4.032286953000039,6.051448355400001,-6.7262243286,1.9573288867999998,-15.47,13.23,39.2,6.094758444459999,-6.96598515312,2.0423937302299997,-11.6025,4.2035,18.840500000000006
4.039231932000007,5.761916820800001,-7.058826669999999,2.1463618722,-15.260000000000002,15.750000000000002,43.120000000000005,6.0605410812799985,-7.00367210907,2.02851535915,-11.7705,5.6594999999999995,20.944000000000006
4.046335910000039,5.288137946,-7.281359171799999,2.4957139718,-13.72,22.470000000000002,44.17,6.006582931649999,-7.04435009327,2.0420348068400003,-11.9245,7.553,22.928500000000007
4.053358889000037,5.2426743166000005,-7.357929495,2.356930261,-14.980000000000002,25.480000000000004,41.02,5.95597473366,-7.04662327474,2.05926312956,-11.963000000000001,9.506,24.545500000000004
4.060485867000011,5.2187460906,-7.5924261098,3.0436703471999995,-21.35,25.900000000000002,37.730000000000004,5.894000628319999,-7.08084063792,2.1014964484500003,-13.023500000000002,11.228000000000002,25.788000000000004
4.0675398459999315,4.9459643142,-7.735995465799999,2.3928225999999997,-29.120000000000005,27.020000000000003,36.89,5.7924253089499995,-7.147002182809999,2.1304496019100005,-14.280000000000001,12.3095,26.904500000000006
4.074581824000006,5.0273202826,-7.721638530200001,2.3545374384,-34.86000000000001,27.020000000000003,35.910000000000004,5.741099264179999,-7.19007298961,2.1649062473500003,-15.484000000000004,13.419,27.821500000000004
4.081691803000012,4.9076791526,-8.0685978072,2.2636101795999997,-42.56,27.580000000000002,35.28,5.66668248132,-7.23481877223,2.15401890452,-17.017000000000003,14.304499999999999,28.924
4.088688781999963,4.857429878,-8.853443619999998,2.045863323,-58.38,28.700000000000003,36.260000000000005,5.62564557373,-7.31150873656,2.16000096102,-19.1695,14.829500000000001,30.492
4.096329759000014,5.2785666556,-7.668996432999999,2.3186450994,-62.790000000000006,31.640000000000004,34.650000000000006,5.58329261371,-7.3866433661999995,2.18022031199,-21.1155,15.480500000000001,31.972499999999997
4.1033877369999345,5.2235317358,-6.668796586199999,2.1272192914,-39.970000000000006,34.790000000000006,29.820000000000004,5.51713106882,-7.345127894089998,2.18967196126,-22.652,16.5165,32.6935
4.110528714999987,5.276173832999999,-7.812565788999999,1.0983055734,-38.290000000000006,33.88,33.46,5.486383298409999,-7.380780950829998,2.12590323897,-24.188500000000005,17.8255,33.52300000000001
4.117579694000028,5.391029317799999,-7.9704920806,0.9954142015999999,-46.760000000000005,28.28,40.11000000000001,5.47310313298,-7.443831826339998,2.05447748436,-26.033000000000005,18.9,34.569500000000005
4.124617672999989,5.2857451234,-8.1044901462,1.0624132344,-41.300000000000004,27.650000000000002,46.480000000000004,5.45384091105,-7.486543709749999,2.01344057677,-27.758500000000005,19.9885,35.84700000000001
4.131689650999988,4.941178668999999,-8.1667035338,1.160518961,-32.760000000000005,27.650000000000002,48.440000000000005,5.40574517679,-7.534639444009999,1.9664216126799996,-29.085,21.175,37.11050000000001
4.138709629999994,4.965106894999999,-8.480163294399999,1.2538390423999999,-23.240000000000002,25.480000000000004,49.49,5.367699297450001,-7.600681347769999,1.9298114269,-29.781500000000005,22.3615,38.25150000000001
4.145746608999957,4.8957150396,-8.719445554399998,1.2179467034,-13.790000000000001,22.19,49.56,5.321757103530001,-7.6725856669,1.89284231773,-29.851500000000005,23.372999999999998,39.245500000000014
4.152765586999976,4.620540440599999,-9.028119669799999,1.6366906583999998,-7.98,18.830000000000002,48.300000000000004,5.26026156271,-7.75800943372,1.8824335394200002,-29.414000000000005,24.101,40.061
4.159760565999932,4.450650035999999,-8.7266240222,1.8113667082,-3.7800000000000002,19.250000000000004,42.77,5.184169804030001,-7.83816899082,1.88219425716,-28.686000000000007,24.689,40.456500000000005
4.1666055450000385,4.4362931003999995,-8.8510507974,1.9812571127999998,-4.62,19.39,39.27,5.103292400150001,-7.92969445527,1.8860227733200001,-28.049,25.108999999999998,40.596500000000006
4.173796523999954,4.3118663252,-8.934799588399999,1.722832272,-3.9200000000000004,21.35,35.910000000000004,5.01631329864,-8.040123218260002,1.8742979425799997,-27.4715,25.514999999999997,40.432
4.180888502000016,4.1587256788,-9.147760799799999,1.8735800958,-2.87,22.05,32.900000000000006,4.93615374154,-8.14456992475,1.8606588537599997,-26.852000000000004,25.829999999999995,39.92099999999999
4.187929480999969,4.2281175342,-9.0783689444,1.9740786449999996,-5.880000000000001,22.26,30.590000000000003,4.883152720949999,-8.234420413380002,1.83457708742,-26.46,25.819500000000005,39.242
4.195021459000031,4.3214376156,-9.104689993,1.8376877567999998,-5.6000000000000005,20.720000000000002,26.740000000000002,4.837090885899999,-8.32175843828,1.8086149622099998,-25.991000000000007,25.581500000000002,38.528
4.2020114379999995,4.146761565799999,-9.559326287,1.6031911419999998,3.7800000000000002,17.85,20.650000000000002,4.783491659659999,-8.42010344714,1.73659100195,-24.734500000000008,25.179000000000002,37.674
4.209021417000031,4.0199419679999995,-9.6358966102,1.5529418674,6.300000000000001,16.73,19.67,4.737190542349999,-8.51509850436,1.69459696532,-22.963500000000003,24.664500000000004,36.813
4.215975395999976,4.1730826144,-9.346365075599998,1.5696916255999998,3.08,16.380000000000003,17.85,4.694478658939999,-8.59633483163,1.6553546746799999,-21.066500000000005,24.132500000000004,35.910000000000004
4.22304137399999,4.2544385828,-9.1573320902,1.5912270289999997,-1.2600000000000002,15.05,16.380000000000003,4.66181663045,-8.65077154578,1.6217355171499999,-19.001500000000004,23.506000000000007,34.964999999999996
