time,aX,aY,aZ,gX,gY,gZ,faX,faY,faZ,fgX,fgY,fgZ
0.006474049000019022,7.4153572373999985,-4.9555356046,4.366901245,-12.600000000000001,3.99,-5.880000000000001,2.96614289496,-1.9822142418400002,1.746760498,-5.040000000000001,1.5960000000000003,-2.3520000000000003
0.017083130000003166,7.3914290114,-4.9459643142,4.273581163599999,-13.020000000000001,5.11,-5.8100000000000005,4.736257341536,-3.167714270784,2.75748876424,-8.232000000000001,3.0016000000000003,-3.7352000000000003
0.02730920800001968,7.231109897199999,-5.034498750399999,4.170689791799999,-13.580000000000002,5.53,-5.95,5.7341983638016,-3.9144280626303996,3.3227691752640003,-10.3712,4.0129600000000005,-4.6211199999999995
0.036402277999968646,7.001398927599999,-5.158925525599999,4.163511324,-13.440000000000001,6.790000000000001,-7.3500000000000005,6.24107858932096,-4.41222704781824,3.6590660347584003,-11.598720000000004,5.123776,-5.712672
0.04565834900000709,6.9367927173999995,-5.2498527844,4.838287297199999,-9.940000000000001,7.840000000000001,-11.13,6.519364240552575,-4.747277342450944,4.13075453973504,-10.935232000000001,6.2102656000000005,-7.879603200000001
0.05456541699999207,6.927221427,-5.168496815999999,4.4171505196,-8.190000000000001,8.540000000000001,-13.580000000000002,6.682507115131545,-4.915765131870566,4.245312931681024,-9.837139200000001,7.142159360000001,-10.159761920000001
0.06360748600002353,7.018148685799999,-5.02492746,4.5678983434,-6.790000000000001,9.030000000000001,-14.700000000000001,6.816763743398927,-4.95943006312234,4.374347096368615,-8.61828352,7.897295616000001,-11.975857152000001
0.07265055499999562,7.089933363799999,-4.8311088294,4.6372901988,-9.030000000000001,9.450000000000001,-14.910000000000002,6.926031591559357,-4.908101569633404,4.479524337341169,-8.782970112000001,8.518377369600001,-13.149514291200001
0.08187762500000417,7.1976103808000005,-4.7473600384,4.6516471344,-10.080000000000002,10.920000000000002,-14.21,7.034663107255613,-4.8438049571400414,4.548373456164701,-9.3017820672,9.47902642176,-13.57370857472
0.09086569400000144,7.283751994399999,-4.6995035864,4.591826569399999,-10.780000000000001,12.180000000000001,-13.72,7.134298662113367,-4.786084408844025,4.56575470145882,-9.893069240320001,10.559415853056002,-13.632225144832
0.10032476599997153,7.2454668328,-4.654039957,4.5870409242,-7.98,13.020000000000001,-12.180000000000001,7.178765930388019,-4.733266628106414,4.574269190555292,-9.127841544192002,11.543649511833602,-13.051335086899199
0.11000183999999535,7.2263242519999995,-4.620540440599999,4.814359071199999,-1.9600000000000002,13.790000000000001,-10.22,7.197789259032811,-4.688176153103848,4.6703051428131745,-6.2607049265152,12.44218970710016,-11.91880105213952
0.11896290900000395,6.9487568304,-4.673182537799999,5.1014977832,2.1700000000000004,14.000000000000002,-9.24,7.098176287579688,-4.6821787069823095,4.842782198967904,-2.8884229559091206,13.065313824260096,-10.847280631283713
0.12813097899999093,6.6592252958,-4.721038989799999,5.615954642199999,4.69,12.46,-9.520000000000001,6.922595890867812,-4.6977228201093855,5.152051176260742,0.14294622645452806,12.823188294556058,-10.316368378770228
0.1371290480000198,6.597011908199999,-4.689932295999999,5.948556983599999,5.460000000000001,9.450000000000001,-10.080000000000002,6.792362297800686,-4.694606610465631,5.470653499196446,2.2697677358727173,11.473912976733635,-10.221821027262138
0.14673312100001112,6.632904247199999,-4.644468666599999,6.283552147599999,3.6400000000000006,5.53,-10.080000000000002,6.72857907756041,-4.674551432919379,5.795812958557868,2.8178606415236307,9.09634778604018,-10.165092616357281
0.15603119200000037,6.632904247199999,-4.5320060043999995,6.3122660188,-0.42000000000000004,2.31,-9.170000000000002,6.690309145416246,-4.617533261511627,6.002394182654721,1.5227163849141785,6.381808671624109,-9.76705556981437
0.16534926299999597,6.7214386834,-4.5056849558,6.065805290999999,-3.7100000000000004,0.21000000000000002,-7.840000000000001,6.702760960609748,-4.572793939226976,6.027758625992833,-0.5703701690514933,3.9130852029744654,-8.996233341888622
0.1801263759999756,6.690331989599999,-4.589433746799999,5.4293144793999994,-7.420000000000001,-1.33,-4.970000000000001,6.697789372205849,-4.579449862256185,5.788380967355699,-3.3102221014308966,1.8158511217846791,-7.385740005133174
0.1922354689999679,6.546762633599999,-4.9076791526,5.120640363999999,-5.6000000000000005,-0.9100000000000001,-4.41,6.637378676763509,-4.710741578393711,5.52128472601342,-4.226133260858538,0.7255106730708073,-6.195444003079905
0.2041185589999941,6.4582281973999995,-5.0775695571999995,5.1014977832,1.54,-0.42000000000000004,-5.6000000000000005,6.565718485018104,-4.857472769916226,5.353369948888052,-1.9196799565151228,0.2673064038424843,-5.957266401847943
0.21572864799998115,6.4941205364,-4.883750926599999,5.230710203599999,5.180000000000001,-0.6300000000000001,-6.23,6.537079305570863,-4.867984032589735,5.304306050772832,0.9201920260909267,-0.09161615769450945,-6.066359841108766
0.22762473900002078,6.6137616663999985,-4.7952164904,5.321637462399999,5.53,-0.77,-5.32,6.567752249902517,-4.838877015713841,5.311238615423699,2.7641152156545563,-0.3629696946167057,-5.76781590466526
0.23898082599998816,6.632904247199999,-4.7282174576,5.4628139957999995,5.040000000000001,-0.9100000000000001,-5.32,6.59381304882151,-4.794613192468304,5.3718687675742185,3.674469129392734,-0.5817818167700234,-5.588689542799155
0.25057691400002113,6.671189408799999,-4.6372901988,5.515456092999999,5.74,-1.54,-5.180000000000001,6.624763592812906,-4.731683995000982,5.4293036977445315,4.500681477635641,-0.9650690900620142,-5.425213725679494
0.2624610049999774,7.334001268999999,-4.5320060043999995,5.615954642199999,3.43,-2.3800000000000003,-4.9,6.908458663287744,-4.65181279876059,5.503964075526718,4.072408886581385,-1.5310414540372088,-5.215128235407696
0.2741630950000058,6.884150620199999,-4.4219361648,5.4891350444,-2.1,-3.08,-3.9200000000000004,6.898735446052646,-4.5598621451763535,5.498032463076031,1.6034453319488304,-2.1506248724223256,-4.697076941244617
0.2862221870000212,6.800401829199999,-4.6037906824000006,5.1038906058,-7.700000000000001,-2.66,-3.7100000000000004,6.859401999311587,-4.577433560065812,5.3403757201656195,-2.117932800830702,-2.3543749234533955,-4.302246164746771
0.2978492760000222,6.860222394199999,-4.718646167199999,4.914857620399999,-10.290000000000001,-1.61,-4.41,6.859730157266952,-4.633918602919486,5.170168480259371,-5.386759680498422,-2.056624954072037,-4.345347698848062
0.30975836599998274,6.8721865072,-4.7928236678,4.7473600384,-9.870000000000001,-1.4700000000000002,-5.390000000000001,6.864712697240172,-4.697480628871692,5.001045103515622,-7.180055808299054,-1.8219749724432224,-4.763208619308838
0.32116445399998383,7.027719976199999,-4.654039957,4.7665026192,-10.57,-1.4000000000000001,-6.44,6.929915608824102,-4.680104360123015,4.907228109789373,-8.536033484979432,-1.6531849834659336,-5.433925171585303
0.3329165430000103,7.1282185253999995,-4.563112698199999,4.618147618,-11.9,-1.4700000000000002,-6.090000000000001,7.009236775454462,-4.633307695353809,4.791595913073624,-9.881620090987658,-1.5799109900795603,-5.696355102951182
0.3451446369999758,7.0660051378,-4.654039957,4.479363907199999,-11.97,-1.9600000000000002,-6.510000000000001,7.0319441203926765,-4.641600600012285,4.666703110724174,-10.716972054592595,-1.7319465940477363,-6.02181306177071
0.3571537280000143,7.2478596554,-4.5320060043999995,4.486542375,-11.410000000000002,-1.6800000000000002,-6.65,7.118310334395607,-4.59776276176737,4.594638816434505,-10.994183232755558,-1.711167956428642,-6.273087837062427
0.36882781799999975,7.176074977399999,-4.5032921331999995,4.9340002012,-14.770000000000001,0.6300000000000001,-7.000000000000001,7.141416191597363,-4.559974510340423,4.730383370340702,-12.504509939653335,-0.774700773857185,-6.5638527022374555
0.38104991099999097,6.955935298199999,-4.457828503799999,5.0656054442,-24.500000000000004,2.66,-9.170000000000002,7.067223834238418,-4.519116107724253,4.864472199884421,-17.302705963792,0.5991795356856892,-7.606311621342474
0.3919419939999784,6.951149652999999,-4.457828503799999,4.8670011684,-37.52,3.7800000000000002,-10.850000000000001,7.0207941617430505,-4.4946010661545515,4.8654837872906525,-25.389623578275202,1.8715077214114137,-8.903786972805484
0.4044630899999788,7.0085773954,-4.527220359199999,4.390829471,-44.660000000000004,4.62,-11.200000000000001,7.01590745520583,-4.507648783372732,4.6756220607743915,-33.09777414696512,2.9709046328468482,-9.82227218368329
0.4164061810000135,7.070790783,-4.570291166,4.1252261624,-40.6,4.130000000000001,-10.99,7.037860786323497,-4.5327057364236385,4.455463701424635,-36.098664488179075,3.434542779708109,-10.289363310209973
0.4278392680000138,7.1330041706,-4.6157547954,3.912264951,-33.46,2.7300000000000004,-10.430000000000001,7.075918140034098,-4.565925360014183,4.23818420125478,-35.04319869290745,3.152725667824866,-10.345617986125983
0.43932535599998346,7.386643366199999,-4.551148585199999,3.6825539814,-25.200000000000003,1.6800000000000002,-7.3500000000000005,7.200208230500457,-4.56001465008851,4.015932113312868,-31.105919215744468,2.5636354006949196,-9.14737079167559
0.4519554519999929,7.4177500599999995,-4.5966122145999995,3.8069807566,-13.72,1.33,-2.87,7.287224962300274,-4.5746536758931065,3.932351570627721,-24.151551529446678,2.070181240416952,-6.636422475005354
0.46398554399996783,7.288537639599999,-4.6037906824000006,4.1539400336,-9.31,2.66,-0.6300000000000001,7.287750033220165,-4.586308478495863,4.020986955816632,-18.21493091766801,2.3061087442501713,-4.233853485003213
0.475511632000007,7.0636123152,-4.6013978598,4.677968183,-12.81,4.340000000000001,-0.49000000000000005,7.198094946012099,-4.592344231017518,4.28377944668998,-16.052958550600806,3.119665246550103,-2.736312091001927
0.48725972199997614,6.9702922337999995,-4.7042892316,4.721038989799999,-17.5,4.83,-1.4700000000000002,7.106973861127259,-4.637122231250511,4.458683263933987,-16.631775130360484,3.803799147930062,-2.2297872546011566
0.4995558159999973,6.994220459799999,-4.8598227006,4.369294067599999,-22.96,6.16,-4.2700000000000005,7.0618725005963565,-4.726202418990306,4.422927585400392,-19.16306507821629,4.746279488758038,-3.045872352760694
0.5115119069999992,7.188039090399999,-4.893322217,4.0725840652,-26.110000000000003,7.5600000000000005,-5.8100000000000005,7.1123391365178135,-4.793050338194184,4.282790177320234,-21.941839046929775,5.8717676932548235,-4.151523411656417
0.5228599939999867,7.4129644148,-4.8670011684,3.8907295475999994,-24.71,10.22,-4.69,7.2325892478306875,-4.82263067027651,4.125965925432141,-23.049103428157867,7.611060615952894,-4.366914046993851
0.5345630830000232,7.4608208668,-4.9507499594,4.048655839199999,-16.73,11.200000000000001,-3.08,7.323881895418412,-4.873878385925906,4.095041890939285,-20.52146205689472,9.046636369571736,-3.8521484281963105
0.5464611740000009,7.566105061199999,-4.9483571367999994,4.4386859229999995,-10.57,9.8,-0.6300000000000001,7.420771161731048,-4.903669886275543,4.232499503763571,-16.540877234136833,9.347981821743042,-2.563289056917786
0.5577882609999847,7.424928527799999,-5.1828537516,4.8909293944,-10.15,8.89,0.21000000000000002,7.422434108158629,-5.015343432405325,4.495871460018143,-13.9845263404821,9.164789093045824,-1.4539734341506716
0.5689743460000045,7.1234328802,-5.410171898599999,5.2474599618,-13.370000000000001,8.4,-0.14,7.3028336169751755,-5.173274818883194,4.796506860730886,-13.738715804289262,8.858873455827496,-0.9283840604904031
0.5803614330000073,6.6951176348,-5.761916820800001,5.283352300799999,-16.94,7.5600000000000005,-2.1,7.059747224105105,-5.4087316196499176,4.991245036758531,-15.019229482573557,8.339324073496497,-1.3970304362942418
0.5919465210000112,6.262016744199999,-6.1304115012,5.230710203599999,-15.610000000000001,4.69,-6.65,6.740655032143062,-5.697403572269949,5.087031103495118,-15.255537689544136,6.879594444097898,-3.4982182617765454
0.6033106080000152,6.357729648199999,-6.0993048074,4.7090748768,-14.280000000000001,2.5900000000000003,-8.120000000000001,6.587484878565838,-5.8581640663219705,4.93584861281707,-14.865322613726482,5.163756666458738,-5.346930957065928
0.6152036990000056,6.276373679799999,-5.778666578999999,4.5320060043999995,-5.95,-4.2,-1.4000000000000001,6.463040399059501,-5.826365071393183,4.774311569450242,-11.29919356823589,1.418253999875243,-3.768158574239557
0.627941796000016,6.594619085599999,-5.678168029799999,5.020141814799999,8.33,-5.11,1.8900000000000001,6.515671873675702,-5.767086254755909,4.872643667590145,-3.4475161409415334,-1.1930476000748547,-1.5048951445437342
0.6398558870000102,6.0394842423999995,-6.051448355400001,5.8815579507999995,10.430000000000001,-2.3800000000000003,1.54,6.32519682116542,-5.880831095013544,5.2762093808740875,2.1034903154350806,-1.667828560044913,-0.2869370867262404
0.6517079779999904,5.678168029799999,-5.5944192388,5.9796636774,6.930000000000001,-2.0300000000000002,-1.05,6.066385304619253,-5.7662663525281275,5.557591099484451,4.034094189261048,-1.8126971360269477,-0.5921622520357442
0.6637510699999893,5.5944192388,-5.7140603688,5.7212388366,5.8100000000000005,-7.140000000000001,0.28,5.877598878291552,-5.745383959036876,5.623050194330671,4.74445651355663,-3.9436182816161693,-0.24329735122144652
0.675586160000023,5.4341001246000005,-5.556134077199999,5.2235317358,8.4,-15.400000000000002,0.14,5.700199376814931,-5.669684006302125,5.463242810918402,6.206673908133977,-8.526170968969701,-0.0899784107328679
0.6884192580000104,5.4341001246000005,-5.321637462399999,4.9124647978,15.260000000000002,-22.680000000000003,1.12,5.593759675928959,-5.530465388741275,5.242931605671041,9.828004344880387,-14.18770258138182,0.3940129535602793
0.7001123470000152,5.826523031,-4.8957150396,5.1397829447999985,22.400000000000002,-24.500000000000004,6.090000000000001,5.686865017957375,-5.276565249084765,5.201672141322624,14.856802606928234,-18.312621548829096,2.672407772136168
0.7100994240000205,6.089733516999999,-4.5008993105999995,4.7521456836,28.35,-31.780000000000005,9.450000000000001,5.848012417574425,-4.96629887369086,5.021861558233574,20.25408156415694,-23.699572929297457,5.3834446632817015
0.7193964950000122,5.6566326263999995,-3.8907295475999994,4.977071007999999,25.060000000000002,-27.020000000000003,15.400000000000002,5.771460501104655,-4.536071143254516,5.003945338140145,22.17644893849417,-25.027743757578477,9.39006679796902
0.7307425810000154,5.551348432,-4.2113677759999995,4.9076791526,19.180000000000003,-23.380000000000003,12.740000000000002,5.683415673462793,-4.4061897963527095,4.965438863924087,20.9778693630965,-24.368646254547087,10.73004007878141
0.7423396699999785,5.7236316592000005,-3.170489945,5.178068106399999,12.32,-26.740000000000002,13.23,5.699502067757676,-3.9119098558116256,5.050490560914452,17.514721617857898,-25.317187752728252,11.730024047268847
0.7540027590000022,6.1567325498,-2.8187450228,4.754538506199999,-1.4000000000000001,-24.990000000000002,1.7500000000000002,5.882394260574606,-3.4746439226069747,4.932109739028672,9.94883297071474,-25.186312651636953,7.738014428361308
0.7661388519999832,6.5252272302,-3.3834511564,4.570291166,-28.770000000000003,-22.540000000000003,11.410000000000002,6.139527448424763,-3.438166816124185,4.787382309817202,-5.538700217571158,-24.12778759098217,9.206808657016785
0.7781739440000024,6.865008039399999,-3.912264951,3.6586257553999992,-17.290000000000003,-28.630000000000003,26.46,6.429719684814858,-3.6278060700745103,4.335879688050322,-10.239220130542696,-25.928672554589305,16.108085194210073
0.7895300299999803,6.982256346799999,-4.247260115,3.8859439023999998,-5.250000000000001,-29.820000000000004,31.220000000000002,6.650734349608914,-3.875587688044706,4.155905373790193,-8.243532078325618,-27.485203532753584,22.152851116526048
0.8013521209999794,7.1306113479999995,-4.1300118076,3.0628129279999996,-11.97,-28.28,46.27,6.842685148965348,-3.9773573358668237,3.718668395474115,-9.734119246995373,-27.80312211965215,31.799710669915633
0.8131052100000034,7.094719008999999,-4.3716868902,3.4337004309999997,-15.750000000000002,-27.160000000000004,58.660000000000004,6.943498692979209,-4.1350891576000945,3.604681209684469,-12.140471548197224,-27.54587327179129,42.54382640194939
0.8246522979999895,6.362515293399999,-5.194817864599999,3.2303105099999994,-7.210000000000001,-27.580000000000002,56.84,6.711105333147526,-4.5589806404000575,3.454932929810681,-10.168282928918336,-27.559523963074778,48.26229584116964
0.8352613800000199,6.2045890018,-4.7258246349999995,3.4241291405999994,-6.790000000000001,-31.150000000000002,53.550000000000004,6.508498800608515,-4.625718238240034,3.4426114141264086,-8.816969757351002,-28.995714377844866,50.37737750470178
0.8467474670000001,7.3028945752,-3.1106693799999996,3.9242290639999995,-7.280000000000001,-37.52,61.60000000000001,6.826257110445108,-4.01969869494402,3.6352584740758447,-8.202181854410602,-32.40542862670692,54.866426502821064
0.8595865649999723,9.808179837399999,0.5288137946,5.941378515799999,-10.500000000000002,-56.14000000000001,122.15,8.019026201227065,-2.200293699126412,4.557706490765507,-9.121309112646362,-41.89925717602416,81.77985590169264
0.8715846569999712,11.6482604168,2.5938196983999995,5.551348432,-29.050000000000004,-68.04,162.19000000000003,9.470719887456239,-0.28264834011584716,4.955163267259305,-17.09278546758782,-52.3555543056145,113.94391354101559
0.8832977459999825,13.237094623199999,4.3812581806,4.331008905999999,-46.13,-38.010000000000005,214.06000000000003,10.977269781753746,1.5829142681704915,4.705501522755583,-28.707671280552695,-46.6173325833687,153.99034812460934
0.8953438379999739,15.498311980199999,3.3571301077999993,4.1802610821999995,-55.02,-31.990000000000002,261.52000000000004,12.785686661132244,2.292600604022295,4.4954053465333494,-39.23260276833162,-40.76639955002123,197.0022088747656
0.9072029289999932,17.4652121574,3.0604201053999995,3.840480273,-64.05000000000001,-12.32,304.71000000000004,14.657496859639345,2.5997284045733773,4.233435317120009,-49.15956166099897,-29.387839730012733,240.08532532485938
0.9188090179999904,18.5659105534,1.3926227532000002,2.8139593776000003,-55.02,3.5700000000000003,340.76000000000005,16.220862337143608,2.1168861440240265,3.665644941312006,-51.503736996599386,-16.20470383800764,280.35519519491567
0.9308711099999982,21.779471305199998,0.45942193919999996,3.4049865597999993,-10.500000000000002,24.71,377.02000000000004,18.444305924366162,1.4539004620944156,3.561381588707204,-35.10224219795963,0.16117769719541886,319.02111711694937
0.9425521989999766,26.201407469999996,-0.9523433947999999,5.6279187552000005,23.730000000000004,42.14,409.08000000000004,21.547146542619693,0.49140291933664937,4.3879964553043225,-11.56934531877578,16.952706618317254,355.04467027016966
0.9547012919999815,31.137800493799997,-3.6969109170000003,5.0560341538,30.450000000000003,69.58000000000001,433.72,25.383408123091815,-1.1839226151980105,4.655211534702593,5.238392808734534,38.00362397099036,386.5148021621018
0.9670203860000015,32.29592663219999,-8.800801522799999,1.6630117069999997,15.47,107.31000000000002,441.35,28.148415526735093,-4.2306741782388055,3.458331603621556,9.331035685240721,65.72617438259422,408.4488812972611
0.978496473000007,31.781469773199998,-11.401799688999999,-2.8115665549999997,25.410000000000004,87.43,438.27000000000004,29.60163722532105,-7.099124382543282,0.9503723401729337,15.762621411144435,74.40770462955655,420.3773287783567
0.99004456199998,30.652057505999995,-11.8037938858,-6.0801622266,96.11000000000001,69.16000000000001,421.33000000000004,30.021805337592628,-8.98099218384597,-1.86184148653624,47.90157284668667,72.30862277773394,420.75839726701395
1.001582649999989,30.774091458599994,-4.146761565799999,-4.8670011684,193.41000000000003,33.18,421.47,30.322719785995574,-7.0472999366275815,-3.063905359281744,106.104943708012,56.65717366664036,421.0430383602084
1.0135097410000071,27.046073847799995,3.445664544,-3.2303105099999994,256.76000000000005,8.610000000000001,470.82000000000005,29.012061410717344,-2.850114144376549,-3.1304674195690465,166.36696622480721,37.43830419998422,440.953823016125
1.0251498299999753,19.477575964,8.1882389372,-1.3160524299999998,306.88000000000005,12.39,511.07000000000005,25.198267232030403,1.565227088254071,-2.404701423741428,222.57217973488434,27.418982519990532,469.000293809675
1.037750926000001,1.3232308977999998,14.589039392199998,-1.8640088054,327.18,120.96000000000001,494.06000000000006,15.648252698338242,6.774752009832442,-2.1884243764048565,264.41530784093067,64.83538951199432,479.02417628580497
1.0494750149999845,-17.005790218199998,17.584853287399998,6.415157390599999,250.39000000000001,202.72000000000003,450.87000000000006,2.586635531722944,11.098792520859464,1.2530083303970858,258.80518470455837,119.9892337071966,467.76250577148306
1.0613451059999761,-27.972096194,17.8576350638,10.133603711,126.91000000000001,184.24,356.86,-9.636857158566233,13.802329538035679,4.8052464826382515,206.04711082273502,145.68954022431797,423.4015034628898
1.0723501900000088,-31.286155494999996,28.407589907200002,5.185246574199999,25.480000000000004,108.08000000000001,339.85,-18.29657649313974,19.644433685701404,4.957246519262951,133.82026649364101,130.64572413459078,389.98090207773396
1.0843892820000178,-34.7533554424,35.4400955286,-5.0560341538,49.980000000000004,-59.99000000000001,406.28000000000003,-24.87928807284385,25.962698422860846,0.9519342500377705,100.28415989618462,54.39143448075446,396.50054124664035
1.0959443699999838,-40.8718028306,35.219955849399994,-8.721838377,202.65,-108.71000000000001,558.74,-31.27629397594631,29.66560139347651,-2.9175748007773374,141.23049593771077,-10.84913931154733,461.3963247479842
1.107839460999969,-58.006805469199996,21.365512995399996,1.8951154991999999,366.03000000000003,18.76,587.58,-41.968498573247786,26.34556603424591,-0.9924986807864024,231.15029756262646,0.9945164130716037,511.86979484879055
1.1195645509999963,-67.4512762714,-5.6757752072,19.9058912094,287.70000000000005,175.91000000000003,353.36,-52.16160965250867,13.537029537667541,7.366857275288159,253.77017853757587,70.96070984784298,448.4658769092743
1.130924637000021,-59.8133865322,-24.6867507642,22.655244376799995,-162.12,141.4,-45.78,-55.22232040438521,-1.7524825830794741,13.482212115892894,87.41410712254552,99.13642590870579,250.76752614556455
1.1420087220000141,-44.06861382419999,-24.059831242999998,-7.53739119,-469.63000000000005,81.41000000000001,-296.17,-50.76083777231112,-10.675422047047684,5.074370793535738,-135.40353572647274,92.04585554522346,31.99251568733871
1.1537708120000048,-21.6119737232,-17.539389657999997,-14.251651405599999,-501.76000000000005,88.06,-402.43000000000006,-39.10129215266667,-13.42100909142861,-2.6560380861185573,-281.9461214358837,90.45151332713408,-141.77649058759678
1.1658039039999721,-7.855636595799999,3.9074793057999995,-6.4438712618,-260.19,105.56000000000002,-343.42,-26.60302992992001,-6.489613732537165,-4.171171356391135,-273.24367286153023,96.49490799628046,-222.4338943525581
1.1778429959999812,-1.6271193679999998,8.5998044244,5.175675283799999,-18.69,56.07000000000001,-218.61,-16.612665705152004,-0.45384646976229864,-0.4324327003146808,-171.42220371691812,80.32494479776828,-220.90433661153483
1.190011088999995,-3.6705898684,10.975877266200001,17.8097786118,134.54000000000002,1.33,-138.67000000000002,-11.435835370451201,4.118043024622621,6.864451824531192,-49.03732223015086,48.72696687866097,-188.01060196692092
1.201919179000015,-5.986842145199999,5.515456092999999,19.8699988704,24.080000000000002,-35.77,-150.78,-9.256238080350721,4.6770082519735725,12.066670642878714,-19.790393338090517,14.928180127196576,-173.11836118015256
1.2134152670000162,-6.4271215036,4.3262232608,17.273786349399998,-88.83000000000001,-35.49,-184.94000000000003,-8.124591449650433,4.536694255504143,14.14951692548723,-47.40623600285432,-5.239091923682057,-177.84701670809153
1.2254203589999975,-6.343372712599999,2.1320049365999996,12.540783246599998,-130.83,-12.250000000000002,-185.92000000000002,-7.4121039548302585,3.5748185279424862,13.506023453932338,-80.77574160171261,-8.043455154209235,-181.07621002485493
1.2374024499999905,-7.269395058799999,-0.6867400861999999,6.5419769884,-195.09000000000003,24.71,-194.25000000000003,-7.355020396418156,1.8701950822854916,10.7204048677194,-126.50144496102756,5.057926907474461,-186.34572601491294
1.2492945409999834,-8.231309743999999,-2.3952154225999998,1.7970097725999998,-217.70000000000002,42.49,-195.51000000000002,-7.705536135450891,0.164030880331295,7.151046829671641,-162.98086697661654,20.03075614448468,-190.01143560894778
1.2608776299999818,-10.470991697599997,-5.350351333599999,-2.7924239741999997,-215.95000000000002,43.470000000000006,-198.38000000000002,-8.811718360310534,-2.041722005241223,3.1736585081229847,-184.16852018596992,29.40645368669081,-193.35886136536865
1.27302172200001,-13.686945271999999,-9.583254513,-5.8815579507999995,-145.88000000000002,48.02,-216.79000000000002,-10.761809124986321,-5.058335008344734,-0.44842807544620955,-168.85311211158196,36.851872212014484,-202.73131681922123
1.2843148090000227,-16.642081183,-10.463813229799998,-6.257231098999999,-111.44000000000001,53.760000000000005,-250.95000000000002,-13.113917948191792,-7.22052629692684,-2.7719492848677256,-145.88786726694917,43.61512332720869,-222.01879009153274
1.2951738919999798,-21.9589330002,-11.1098753318,-5.2857451234,-97.23,56.63,-291.48,-16.65192396899507,-8.776265910876104,-3.7774676202806354,-126.4247203601695,48.82107399632522,-249.80327405491968
1.3070169819999933,-25.028924395999997,-10.899306943000001,-5.1014977832,-105.84,50.400000000000006,-354.76000000000005,-20.002724139797042,-9.625482323725661,-4.307079685448381,-118.19083221610171,49.452644397795126,-291.78596443295186
1.3183770690000074,-26.969503524599997,-8.879764668599998,-5.1637111708,-117.32000000000001,38.220000000000006,-404.39000000000004,-22.789435893718224,-9.327195261675396,-4.649732279589029,-117.84249932966104,44.95958663867708,-336.8275786597711
1.330307160000018,-24.3972192296,-4.7521456836,-7.195217558199999,-137.69000000000003,20.930000000000003,-434.98,-23.43254922807094,-7.497175430445237,-5.667926391033417,-125.78149959779662,35.34775198320625,-376.0885471958627
1.3421142500000087,-19.7623218534,-4.003192209799999,-9.676574594399998,-146.58,22.820000000000004,-443.1,-21.96445827820256,-6.099582142187142,-7.271385672380051,-134.10089975867797,30.33665118992375,-402.8931283175176
1.3537313379999887,-14.7254302804,-1.1533404932,-2.3760728418,-179.97000000000003,46.690000000000005,-458.15000000000003,-19.068847079081536,-4.121085482592285,-5.31326054014803,-152.44853985520677,36.87799071395425,-424.9958769905105
1.3653374269999858,-8.2959159542,-1.543370577,-9.6215396746,-110.81000000000002,79.38000000000001,-440.65000000000003,-14.759674629128922,-3.089999520355371,-7.036572193928819,-135.79312391312408,53.87879442837256,-431.2575261943063
1.3772805180000205,-6.209374646999999,-2.5531417142,-4.864608345799999,7.5600000000000005,84.42,-442.68000000000006,-11.339554636277354,-2.875256397893222,-6.167786654677291,-78.45187434787444,66.09527665702353,-435.82651571658386
1.388675605000003,-3.7184463204,0.5096712138,0.8111668613999999,59.99000000000001,54.32000000000001,-426.79,-8.29111130992641,-1.5212853532159334,-3.3762052482463742,-23.075124608724657,61.38516599421413,-432.2119094299503
1.3998636910000073,0.33020951879999993,0.8111668613999999,2.5004996169999996,85.75000000000001,5.880000000000001,-409.08000000000004,-4.842582978435846,-0.5883044673695602,-1.0255233021478245,20.454925234765213,39.18309959652848,-422.95914565797017
1.4112227769999777,5.4293144793999994,2.6057838114,4.9340002012,78.12,-8.47,-383.04,-0.7338239953015082,0.6893308441382638,1.3582860991913055,43.52095514085914,20.121859757917086,-406.9914873947821
1.4229628670000238,9.580861690399999,-1.0193424276,3.7040893847999996,7.420000000000001,-9.870000000000001,-369.25000000000006,3.392050278979095,0.005861535442958311,2.296607413434783,29.080573084515482,8.12511585475025,-391.8948924368693
1.43455495500001,13.3950209148,2.7708885708,8.8749790234,70.49000000000001,2.1700000000000004,-329.49,7.393238533307458,1.111872349585775,4.92795605742087,45.64434385070929,5.74306951285015,-366.93293546212163
1.4462910450000095,19.250257816999998,6.668796586199999,12.3565359064,38.080000000000005,11.830000000000002,-309.75000000000006,12.136046246784472,3.3346420442314644,7.899387997012521,42.61860631042558,8.17784170771009,-344.0597612772729
1.45817613600002,24.095723581999998,7.702495949399999,16.656438118599997,40.25000000000001,-3.2900000000000005,-291.34000000000003,16.919917180870684,5.081783606298879,11.402208045647512,41.67116378625535,3.590705024626055,-322.97185676636377
1.4703812289999973,28.3477693422,8.25523797,13.196416639,-16.1,-28.560000000000002,-187.18,21.49105804540241,6.351165351779327,12.119891482988507,18.562698271753206,-9.269576985224369,-268.6551140598183
1.482046318000016,30.240492018799998,8.3007015994,9.722038223799998,5.180000000000001,-58.17000000000001,-89.81,24.990831634761452,7.130979850827595,11.160750179313105,13.209618963051923,-28.829746191134628,-197.11706843589096
1.4940714100000037,28.857440555999997,4.8000021356,8.1619178886,73.78,-63.35000000000001,-17.92,26.537475203256868,6.198588764736558,9.961217263027864,37.43777137783116,-42.637847714680774,-125.43824106153458
1.505869500000017,23.944975758200002,1.1892328321999999,9.8608219346,114.45000000000002,-35.49,18.55,25.500475425234118,4.194846391721935,9.921059131656719,68.2426628266987,-39.778708628808474,-67.84294463692076
1.5180925930000058,17.895920225399998,-4.2975093896,9.322436849599999,84.21000000000001,-5.8100000000000005,3.5700000000000003,22.458653345300473,0.7979040791931602,9.681610218834031,74.62959769601923,-26.19122517728508,-39.277766782152455
1.5301206849999858,14.091332291399997,-5.3862436726,9.387043059799998,42.21,10.080000000000002,1.33,19.111724923740287,-1.6757550215241037,9.563783355220417,61.66175861761154,-11.682735106371048,-23.03466006929147
1.5417247729999985,9.8057870148,-9.260223461999999,5.8097732728,36.68000000000001,2.9400000000000004,-0.35000000000000003,15.38934976016417,-4.709542397714462,8.062179322252252,51.66905517056693,-5.833641063822628,-13.960796041574882
1.5537408650000089,7.925028451199999,-11.6578317072,2.7948167968,43.75000000000001,-7.420000000000001,-11.830000000000002,12.403621236578502,-7.488858121508678,5.955234312071351,48.50143310234015,-6.468184638293577,-13.108477624944932
1.5658389569999827,6.513263117199999,-13.103096557599999,0.4761716973999999,57.260000000000005,-10.780000000000001,-28.000000000000004,10.047477988827103,-9.734553495945205,3.7636092662028098,52.00485986140409,-8.192910782976147,-19.06508657496696
1.5776760480000007,6.1184473882,-12.751351635399999,-0.45942193919999996,77.63000000000001,-0.56,-39.27,8.475865748576261,-10.94127275172712,2.074396784041686,62.254915916842464,-5.139746469785688,-27.147051944980177
1.5895481379999978,6.223731582599999,-10.9854485566,0.062213387599999996,83.86000000000001,32.900000000000006,-49.77,7.575012082185757,-10.958943073676274,1.2695234254650114,70.89694955010548,10.076152118128588,-36.196231166988106
1.6013272280000024,5.5585268997999995,-8.13559684,1.8233308212,70.63000000000001,31.780000000000005,-57.330000000000005,6.768418009231454,-9.829604580205762,1.4910463837590069,70.79016973006328,18.757691270877157,-44.64973870019287
1.6128483159999973,5.3431728658,-7.1114687672,3.2949167202,50.540000000000006,36.89,-62.510000000000005,6.198319951858871,-8.742350255003457,2.212594518335404,62.690101838037975,26.0106147625263,-51.793843220115726
1.625026408999986,4.7090748768,-5.611168996999999,4.342973019,24.290000000000003,33.25,-69.86000000000001,5.602621921835323,-7.489877751802073,3.0647459186012425,47.33006110282278,28.90636885751578,-59.02030593206945
1.63651349700001,4.996213588799999,-4.1970108404,4.0773697104,5.670000000000001,21.840000000000003,-67.83000000000001,5.360058588621192,-6.172730987241244,3.4697954353207456,30.666036661693667,26.07982131450947,-62.54418355924167
1.6487785900000063,5.0943193154,-2.8666014748,3.2446674455999998,-5.53,8.89,-59.010000000000005,5.253762879332716,-4.850279182264746,3.379744239432447,16.1876219970162,19.20389278870568,-61.130510135545
1.6601176770000166,5.3551369788,-3.2590243811999993,1.4093725114,2.66,-17.78,-47.81,5.29431251911963,-4.213777261838848,2.5915955482194675,10.776573198209721,4.410335673223406,-55.802306081326996
1.6717707660000087,4.7234318124,-3.3786655112,1.5960126742,12.040000000000001,-3.5700000000000003,-42.63,5.065960236431779,-3.879732561583308,2.193362398611681,11.281943918925831,1.2182014039340432,-50.533383648796196
1.6841198600000098,4.9746781854,-3.4719855925999994,2.5627130046,18.200000000000003,-7.490000000000001,-34.93000000000001,5.029447416019067,-3.716633773989985,2.341102641007008,14.0491663513555,-2.2650791576395743,-44.29203018927772
1.6958779500000105,4.9124647978,-3.5676984965999994,3.1752755902,16.8,-15.190000000000001,-29.19,4.98265436873144,-3.6570596630339907,2.6747718206842044,15.149499810813301,-7.4350474945837455,-38.25121811356663
1.7074380380000207,5.292923591199999,-3.4648071248,3.5724841417999995,14.14,-24.360000000000003,-22.89,5.106762057718865,-3.580158647740394,3.0338567491305235,14.745699886487982,-14.20502849675025,-32.10673086813998
1.7190061260000107,5.922235935,-3.5700913191999994,3.6131621259999998,3.0100000000000002,-30.310000000000002,-16.03,5.432951608631318,-3.576131716324236,3.2655788998783137,10.051419931892788,-20.64701709805015,-25.67603852088399
1.7307062159999873,6.111268920399999,-4.0606199522,3.4743784152,-6.86,-34.160000000000004,-11.55,5.704278533338791,-3.7699270106745417,3.349098706006988,3.286851959135672,-26.05221025883009,-20.025623112530393
1.7420473020000031,6.0418770649999995,-4.3645084224,3.5437702705999996,-11.620000000000001,-38.57,-10.64,5.839317946003273,-4.007759575364725,3.426967331844193,-2.675888824518598,-31.05932615529806,-16.27137386751824
1.7536833909999814,6.3840506968,-4.3238304382,3.7471601916,-17.220000000000002,-44.17,-7.98,6.057211046321964,-4.134187920498835,3.555044475746515,-8.49353329471116,-36.303595693178835,-12.954824320510943
1.7658014830000184,7.549355302999999,-4.271188340999999,4.1491543884,-21.14,-48.650000000000006,-1.8900000000000001,6.654068748993177,-4.188988088699301,3.792688440807909,-13.552119976826697,-41.24215741590731,-8.528894592306566
1.7773745719999852,8.1547394208,-3.8955151927999996,4.9938207662,-35.980000000000004,-51.1,2.87,7.2543370177159066,-4.07159893033958,4.273141370964745,-22.523271986096024,-45.18529444954439,-3.969336755383938
1.787560649999989,8.6572321668,-3.1680971224,5.4293144793999994,-56.7,-71.05000000000001,5.390000000000001,7.815495077349544,-3.7101982071637485,4.735610614338848,-36.193963191657616,-55.531176669726634,-0.22560205323036242
1.8009887520000234,9.8057870148,-1.9142580799999998,4.5870409242,-78.82000000000001,-52.43000000000001,7.140000000000001,8.611611852329725,-2.991822156298248,4.676182738283308,-53.24437791499457,-54.290706001835986,2.720638768061783
1.8130848440000022,11.5381905772,-1.2394821068,5.228317380999999,-90.09,-47.18000000000001,16.17,9.782243342277836,-2.290886136498949,4.897036595369985,-67.98262674899676,-51.44642360110159,8.10038326083707
1.8250829360000012,14.584253747,0.7752745223999999,7.625925626199998,-88.97000000000001,-55.720000000000006,49.77,11.703047504166701,-1.0644218729393695,5.988592207701991,-76.37757604939806,-53.15585416066095,24.768229956502246
1.8372160289999897,17.0105758634,2.5914268758,8.4777704718,-98.14000000000001,-69.72000000000001,90.30000000000001,13.82605884786002,0.39791762655637836,6.984263513341194,-85.08254562963884,-59.78151249639657,50.98093797390135
1.8486711159999913,18.7453722484,1.8711872732,9.8560362894,-111.72000000000001,-71.12,113.4,15.793784208076012,0.9872254852138271,8.132972623764715,-95.73752737778331,-64.31690749783795,75.94856278434081
1.8605052059999707,19.7479649178,1.0384850084,9.6095755616,-136.01000000000002,-68.32000000000001,130.83,17.375456491965604,1.0077292944882963,8.72361379889883,-111.84651642666998,-65.91814449870277,97.90113767060448
1.8722812959999828,22.4231405846,2.380858487,9.353543543399999,-153.23000000000002,-58.59,148.96,19.394530129019362,1.5569809714929779,8.975585696699298,-128.39990985600198,-62.986886699221664,118.32468260236269
1.8833733810000126,28.488945875599995,3.9816568063999997,9.2171526552,-139.79000000000002,-64.12,192.92000000000002,23.032296427651612,2.5268513054557866,9.07221248009958,-132.9559459136012,-63.440132019533,148.16280956141765
1.8963954800000238,33.710084788799996,6.4247286809999995,5.694917788,-140.84,-93.03000000000002,246.54000000000002,27.303411772110962,4.086002255673471,7.721294603259747,-136.10956754816073,-75.2760792117198,187.5136857368506
1.9083885719999785,37.69174159519999,4.814359071199999,1.5936198515999997,-89.81,-77.91000000000001,286.51000000000005,31.45874370134658,4.377344981884083,5.270224702595848,-117.58974052889646,-76.32964752703188,227.11221144211038
1.9202976629999853,39.8309249996,4.563112698199999,-1.1629117836,-82.67,-21.560000000000002,299.46000000000004,34.80761622064795,4.45165206841045,2.696970108117509,-103.62184431733786,-54.42178851621913,256.0513268652662
1.9319437519999951,40.067814436999996,6.113661743,-2.2995025185999998,-52.43000000000001,30.17,298.76000000000005,36.91169550718877,5.11645593824627,0.6983810574305052,-83.14510659040272,-20.585073109731475,273.1347961191598
1.9437058409999963,38.981472976599996,10.748559119199998,-2.5052852621999997,-33.67,47.67,373.17,37.73960649495326,7.369297210627761,-0.5830854704216969,-63.35506395424163,6.716956134161118,313.1488776714958
1.9558939340000165,32.980273895799996,17.9007058706,0.48335016519999996,21.000000000000004,56.21000000000001,455.21000000000004,35.83587345529195,11.581860674616658,-0.1565112161730181,-29.613038372544978,26.51417368049668,369.97332660289754
1.9676530240000147,23.0715955092,25.6319156912,5.946164161,54.74,59.78000000000001,541.6600000000001,30.730162276855168,17.201882681249995,2.284558934696189,4.128176976473016,39.82050420829801,438.64799596173856
1.979533114999981,2.1870398563999998,30.029923629999995,9.001798621199999,51.24,50.470000000000006,601.3000000000001,19.3129133086731,22.333099060749998,4.971454809297714,22.97290618588381,44.08030252497881,503.7087975770432
1.9908862010000234,-23.7463714824,26.390440455399997,7.312465865599999,44.730000000000004,-6.44,585.5500000000001,2.089199392243859,23.95603561861,5.907859231818627,31.675743711530288,23.872181514987286,536.445278546226
2.0019832859999838,-44.9467797184,25.1078875418,-7.5517481256,40.81,-90.86000000000001,491.12000000000006,-16.725192252013684,24.416776387885996,0.5240162888511762,35.32944622691818,-22.020691091007638,518.3151671277357
2.0136123749999797,-49.06961305819999,24.0622240656,-20.918055169199995,61.32000000000001,-128.24,491.19000000000005,-29.66296057448821,24.274955458971597,-8.052812294369295,45.72566773615091,-64.5084146546046,507.4651002766414
2.0247424599999704,-59.9617415334,25.2945277046,-24.8781765722,72.66000000000001,-111.65,621.6700000000001,-41.78247295805292,24.682784357222957,-14.782958005501575,56.49940064169055,-83.36504879276275,553.1470601659848
2.0366925509999874,-78.3984396664,-8.9324067658,-21.9038980804,211.33,-108.99000000000001,597.6600000000001,-56.428859641391746,11.236707908013774,-17.63133403546095,118.43164038501435,-93.61502927565766,570.9522360995909
2.0485596419999865,-78.3984396664,-51.46243565819999,0.6436692794,253.40000000000003,-52.36000000000001,327.04,-65.21669165139505,-13.842949518471734,-10.321332709516566,172.4189842310086,-77.1130175653946,473.38734165975455
2.0602697310000053,-64.4722121344,-45.750768111999996,8.149953775599998,-101.78000000000002,-44.59,-118.23000000000002,-64.91889984459702,-26.60607695588304,-2.9328181154699404,62.739390538605164,-64.10381053923676,236.74040499585274
2.072080820999986,-25.887947709399995,-19.984854355199996,-14.400006406800001,-362.46000000000004,-32.2,-320.95000000000005,-49.306518990518214,-23.95758791560982,-7.519693432001963,-107.34036567683694,-51.34228632354206,13.664242997511623
2.0836079090000226,5.644668513399999,5.5609197223999995,-26.0291242428,-405.37000000000006,98.07000000000001,-272.02000000000004,-27.32604398895093,-12.150184860405894,-14.923465756321178,-226.55221940610218,8.422628205874766,-100.60945420149304
2.0956570010000064,14.579468101799998,7.312465865599999,-9.140582332,-95.13000000000001,194.04000000000002,-122.43,-10.563839152650555,-4.365124570003535,-12.610312386592707,-173.98333164366133,82.66957692352487,-109.33767252089582
2.107752092999988,0.6484549245999999,4.522434713999999,10.975877266200001,263.20000000000005,111.09000000000002,-58.38,-6.078921521750333,-0.8101008564021207,-3.1758365254756233,0.8900010138032145,94.03774615411493,-88.9546035125375
2.1199601860000143,-9.0185483794,-4.402793583999999,30.305098228999995,391.86,12.040000000000001,-2.24,-7.254772264810199,-2.247177947441272,10.216537376314626,157.27800060828199,61.23864769246895,-54.2687621075225
2.132435282000017,-13.4333060764,-1.9788642901999998,26.711078683799997,138.46,-27.720000000000002,-10.15,-9.726185789446118,-2.1398524845447633,16.814353899308777,149.7508003649692,25.655188615481368,-36.621257264513495
2.1439303689999747,-12.591032521199999,-6.8745793297999995,20.2169581474,-34.510000000000005,-71.68,-38.71,-10.87212448214767,-4.033743222646858,18.175395598545265,76.04648021898153,-13.278886830711183,-37.456754358708096
2.155588458000011,-12.607782279399999,-11.581261384,5.663811094199999,-60.06,-103.32000000000001,-42.7,-11.566387601048602,-7.052750487188114,13.17076179680716,21.603888131388906,-49.29533209842671,-39.554052615224855
2.1674515490000203,-11.1481604934,-13.521840512599999,-3.8715869667999994,-42.21,-100.94000000000001,-76.65,-11.399096757989163,-9.64038649735287,6.353822291364294,-3.9216671211666596,-69.95319925905603,-54.39243156913492
2.1803836479999745,-8.8151584584,-12.394821068,-7.185646267799999,-24.150000000000002,-40.95,-82.60000000000001,-10.365521438153497,-10.742160325611723,0.9380348676985766,-12.013000272699996,-58.351919555433625,-65.67545894148095
2.1922257379999905,-9.8440721764,-17.0177543312,-10.5810615372,-28.630000000000003,-25.200000000000003,-96.95,-10.156941733452099,-13.252397927847035,-3.669603694260854,-18.65980016362,-45.091151733260176,-78.18527536488857
2.203702825999983,-13.129417606199999,-15.5389899644,-7.3890361888,32.830000000000005,-3.6400000000000006,-116.48000000000002,-11.345932082551258,-14.16703474246822,-5.157376692076514,1.936119901828003,-28.510691039956104,-93.50316521893315
2.215915918999997,-18.5850531342,-14.9862479438,-2.6703900216,82.39000000000001,-3.3600000000000003,-145.04000000000002,-14.241580503210756,-14.49472002300093,-4.162582023885907,34.11767194109681,-18.45041462397366,-114.11789913135989
2.2280200110000123,-21.044874767,-14.270793986399998,-2.0673987264,67.76,-19.040000000000003,-185.15,-16.96289820872645,-14.405149608360558,-3.324508704891544,47.574603164658086,-18.686248774384197,-142.53073947881595
2.2400481029999924,-22.037896145999994,-12.940384620799998,-3.3212377687999997,23.94,-22.750000000000004,-232.40000000000003,-18.99289738363587,-13.819243613336335,-3.323200330454926,38.12076189879485,-20.311749264630517,-178.47844368728954
2.2519361939999953,-21.7316148532,-12.574282763000001,-4.5343988269999995,-10.22,-7.98,-240.17000000000002,-20.088384371461526,-13.3212592732018,-3.807679729072955,18.78445713927691,-15.379049558778311,-203.15506621237375
2.263147279000009,-19.0731889446,-11.4161566246,-5.895914886399999,-46.480000000000004,9.450000000000001,-262.22,-19.682306200716916,-12.559218213761083,-4.642973792003772,-7.321325716433858,-5.447429735266985,-226.7810397274243
2.275057370000013,-14.4191489876,-9.556933464399998,-5.804987627599999,-61.18000000000001,25.270000000000003,-282.66,-17.57704331547015,-11.358304314016646,-5.107779326242263,-28.86479542986032,6.83954215883981,-249.1326238364546
2.2868354600000202,-10.533205085199999,-7.202396026,-9.116654106,-47.46000000000001,20.580000000000002,-284.76000000000005,-14.759508023362088,-9.695940998809988,-6.711329238145359,-36.302877257916194,12.335725295303888,-263.3835743018728
2.298778550999998,-6.0131631938000005,-5.582455125799999,-8.9659062822,41.09,15.47,-283.22,-11.260970091537255,-8.050546649605993,-7.613160055767215,-5.345726354749714,13.589435177182335,-271.31814458112365
2.31000463700002,-3.1824540579999994,-2.4000010678,-1.9692929997999997,92.61000000000001,18.200000000000003,-278.39000000000004,-8.02956367812235,-5.790328416883595,-5.355613233380328,33.836564187150174,15.433661106309401,-274.1468867486742
2.320982721000007,-0.8063812161999999,-1.9764714675999997,1.1389835575999998,105.35000000000001,12.670000000000002,-277.69000000000005,-5.140290693353411,-4.264785637170157,-2.757774516988197,62.44193851229011,14.328196663785642,-275.56413204920455
2.3330858129999683,1.3710873497999998,-1.1533404932,4.3046878574,103.04,-12.530000000000001,-283.57000000000005,-2.5357394760920466,-3.0202075795820935,0.06721043276708172,78.68116310737406,3.5849179982713832,-278.76647922952276
2.3450659040000232,4.3836510032,-0.1483550012,5.6901321428,82.53,-38.85,-278.18,0.23201671562477202,-1.871466548229256,2.316379116780249,80.22069786442444,-13.389049201037173,-278.53188753771366
2.356755992999979,7.647461029599999,-0.18185451760000002,5.6566326263999995,35.84,-62.300000000000004,-267.75,3.1981944412148633,-1.1956217359775536,3.6524805206281488,62.468418718654675,-32.95342952062231,-274.2191325226282
2.368738085000018,9.877571692799998,-0.49052863299999994,3.0771698636,1.7500000000000002,-77.28,-266.0,5.869945341848919,-0.913584494786532,3.42235625781689,38.1810512311928,-50.684057712373395,-270.9314795135769
2.3797811690000117,14.919248910999999,0.2105683888,1.2681959779999998,-9.66,-54.46000000000001,-256.97,9.48966676950935,-0.46392334135191926,2.560692145890133,19.04463073871568,-52.194434627424044,-265.34688770814614
2.3914892579999787,19.1042956384,3.4384860762,2.7948167968,-22.19,-13.930000000000001,-236.95000000000002,13.335518317065608,1.0970404256688486,2.65434200625408,2.550778443229405,-36.88866077645443,-253.9881326248877
2.4030193460000078,22.277178405999994,2.0578274359999997,4.194618017799999,28.35,17.220000000000002,-194.11,16.912182352639363,1.481355229801309,3.270452410872448,12.870467065937644,-15.245196465872654,-230.03687957493264
2.415016438000009,23.066809864,1.2897313813999998,6.7860448936,68.11,11.06,-157.99,19.374033357183613,1.4047056904407855,4.6766894039634685,34.96628023956259,-4.723117879523591,-201.21812774495962
2.4266885270000103,22.360927196999995,2.5363919559999997,10.738987828799997,112.84000000000002,-11.270000000000001,-123.41000000000001,20.568790893110172,1.857380196664471,7.10160877389808,66.11576814373755,-7.341870727714156,-170.0948766469758
2.438911619999999,21.178872832599996,2.9144579268,12.0071838068,102.97000000000001,-34.86000000000001,-83.93,20.812823668906105,2.2802112887186827,9.063838787058847,80.85746088624254,-18.349122436628498,-135.62892598818547
2.4508397110000146,19.223936768399998,1.3112667848,10.4039926648,80.92,-44.800000000000004,-61.88,20.17726890870366,1.8926334871512096,9.599900338155306,80.88247653174552,-28.9294734619771,-106.1293555929113
2.462559800000008,18.0801675656,0.8590233134,8.128418372199999,61.88,-39.27,-39.760000000000005,19.338428371462197,1.4791894176507256,9.011307551773184,73.28148591904731,-33.06568407718626,-79.58161335574677
2.474557892000007,16.1132673884,-1.2035897677999998,6.125625855999999,59.150000000000006,-19.67,-12.81,18.04836397823732,0.4060777434704354,7.857034873463911,67.6288915514284,-27.70741044631176,-52.872968013448066
2.4855189759999803,15.060425444399996,-2.6105694566,5.850451257,59.220000000000006,-5.880000000000001,2.1700000000000004,16.853188564702393,-0.8005811365577388,7.054401426878346,64.26533493085704,-18.976446267787054,-30.85578080806884
2.4987610769999833,11.566904448399999,-5.362315446599999,4.8239303615999996,58.03000000000001,-1.54,6.23,14.738674918181436,-2.625274860574643,6.162213000767007,61.77120095851423,-12.001867760672233,-16.021468484841304
2.5102451639999686,7.5517481256,-7.8341011923999995,3.7734812401999998,62.09,-7.420000000000001,-5.53,11.863904201148861,-4.708805393304786,5.2067202965402055,61.89872057510855,-10.16912065640334,-11.824881090904782
2.52228725599997,5.9150574672,-8.738588135199999,3.4145578501999996,59.220000000000006,-8.680000000000001,-25.62,9.484365507569317,-6.3207184900628715,4.489855318004122,60.827232345065134,-9.573472393842005,-17.342928654542874
2.534239346999982,5.900700531599998,-8.092526033199999,3.0532416376,40.88,-6.510000000000001,-36.260000000000005,8.05089951718159,-7.029441507317722,3.9152098458424733,52.84833940703908,-8.348083436305203,-24.909757192725724
2.5464114399999858,5.950949806199999,-7.6115686905999995,1.7611174335999997,12.110000000000001,-0.9800000000000001,-39.06,7.210919632788955,-7.262292380630634,3.0535728809454845,36.553003644223445,-5.400850061783121,-30.56985431563544
2.558336531000009,5.0440700407999985,-7.527819899599999,0.7776673449999999,-4.48,7.280000000000001,-46.34,6.344179795993371,-7.3685033882183815,2.14321066656729,20.139802186534066,-0.3285100370698722,-36.87791258938127
2.5712086290000116,4.6372901988,-6.7549381998,0.6005984726,-5.8100000000000005,15.05,-57.260000000000005,5.661423957116023,-7.123077312851028,1.5261657889803741,9.759881311920438,5.822893977758078,-45.03074755362876
2.5812117059999764,4.4099720518,-5.972485209599999,1.7300107398,-3.8500000000000005,15.190000000000001,-64.47000000000001,5.160843194989614,-6.6628404715506155,1.6077037693082243,4.315928787152262,9.569736386654847,-52.80644853217726
2.593521798999973,4.4482572134,-5.0416772181999985,2.1750757434,-6.16,8.47,-70.63000000000001,4.8758088023537685,-6.01437517021037,1.8346525589449345,0.12555727229135671,9.129841831992907,-59.93586911930635
2.6057798929999763,4.689932295999999,-3.7328032559999995,2.9288148624000003,-18.41,0.77,-74.83000000000001,4.80145819981226,-5.101746404526223,2.2723174803269606,-7.288665636625187,5.785905099195745,-65.89352147158381
2.6171489799999677,5.034498750399999,-3.0819555087999997,2.5411776011999994,-39.550000000000004,-2.1700000000000004,-76.23,4.894674420047356,-4.293830046235733,2.379861528676176,-20.193199381975113,2.6035430595174467,-70.0281128829503
2.6298100760000125,5.443671415,-3.4480573665999996,2.356930261,-55.300000000000004,-6.790000000000001,-74.13000000000001,5.114273218028412,-3.95552097438144,2.3706890216057057,-34.23591962918507,-1.1538741642895327,-71.66886772977017
2.6413241639999683,5.845665611799999,-3.385843979,1.6821542877999998,-49.63,-10.500000000000002,-68.74000000000001,5.406830175537047,-3.7276501762288636,2.0952751280834234,-40.39355177751104,-4.8923244985737195,-70.4973206378621
2.6541522619999682,6.886543442799999,-3.0747770410000004,2.4741785683999997,-25.55,-17.150000000000002,-60.550000000000004,5.998715482442228,-3.466500922137318,2.2468365042100538,-34.45613106650663,-9.795394699144234,-66.51839238271727
2.6657443500000113,7.757530869199999,-2.8618158296000002,3.7567314819999997,-13.930000000000001,-27.860000000000003,-47.6,6.702241637145337,-3.2246268851223903,2.850794495326032,-26.24567863990398,-17.021236819486543,-58.95103542963036
2.6776494409999714,8.183453292,-3.1202406704,4.749752860999999,-11.200000000000001,-37.730000000000004,-36.400000000000006,7.294726299087203,-3.182872399233434,3.6103778415956196,-20.227407183942386,-25.304742091691928,-49.93062125777822
2.6904935389999878,7.862815063599999,-3.6179477711999994,6.0107703712,-22.330000000000002,-46.900000000000006,-35.0,7.521961804892321,-3.3569025480200607,4.570534853437372,-21.068444310365432,-33.94284525501516,-43.958372754666925
2.7023056290000227,7.9417782094,-3.6586257553999992,7.367500785399999,-70.98,-41.720000000000006,-45.50000000000001,7.689888366695392,-3.477591830972036,5.6893212262224235,-41.03306658621926,-37.05370715300909,-44.575023652800155
2.7137627170000087,7.372286430599999,-3.8668013215999997,6.8769721524,-123.06000000000002,-39.410000000000004,-51.940000000000005,7.562847592257236,-3.6332756272232216,6.164381596693453,-73.84383995173157,-37.99622429180546,-47.521014191680095
2.7257888080000043,8.341379583599998,-3.8763726119999995,2.4909283265999997,-153.72000000000003,-49.56,-47.81,7.874260388794341,-3.7305144211339325,4.695000288656073,-105.79430397103894,-42.62173457508327,-47.63660851500806
2.7376668989999757,8.7290168448,-5.2354958487999985,-0.7010970218,-131.04000000000002,-55.300000000000004,-36.89,8.216162971196605,-4.33250699220036,2.536561364473643,-115.89258238262337,-47.69304074504997,-43.337965109004834
2.7498349919999896,10.2963156478,-5.8791651282,-1.8951154991999999,-71.19000000000001,-46.13,-28.770000000000003,9.048224041837962,-4.951170246600215,0.7638906190041858,-98.01154942957402,-47.067824447029984,-37.5107790654029
2.7614160800000036,10.8825571848,-5.1254260092,1.495514125,-18.830000000000002,-31.150000000000002,-20.44,9.781957299022778,-5.02087255164013,1.0565400214025114,-66.3389296577444,-40.70069466821799,-30.68246743924174
2.7728231670000127,9.961320483799998,-5.2953164138,3.6179477711999994,-9.8,-18.62,-11.97,9.853702572933669,-5.130650096504078,2.0811031213215068,-43.723357794646645,-31.8684168009308,-23.197480463545045
2.782766242999969,9.722038223799998,-5.4053862534,4.9938207662,-22.470000000000002,-12.250000000000002,-8.610000000000001,9.8010368332802,-5.240544559262447,3.246190179272904,-35.222014676787985,-24.021050080558478,-17.362488278127028
2.795020335999993,9.126225396399999,-5.649454158599999,4.7641097966,-54.46000000000001,-9.450000000000001,-7.490000000000001,9.53111225852812,-5.404108398997468,3.8533580262037423,-42.91720880607279,-18.192630048335086,-13.413492966876218
2.8068704269999785,8.5926259566,-6.278766502399999,3.2207392195999995,-77.63000000000001,-13.930000000000001,-7.420000000000001,9.155717737756872,-5.753971640358481,3.600310503562245,-56.802325283643675,-16.487578029001053,-11.016095780125731
2.818450514999995,8.0805619202,-7.3028945752,0.7513462964,-81.69000000000001,-23.17,-7.910000000000001,8.725655410734124,-6.3735408142950885,2.4607248206973473,-66.75739517018621,-19.160546817400636,-9.77365746807544
2.8307256090000124,7.992027483999999,-8.49452023,-1.8664016279999998,-65.59,-25.830000000000002,-6.65,8.432204240040473,-7.221932580577052,0.7298742412184083,-66.29043710211172,-21.82832809044038,-8.524194480845264
2.8425186989999816,7.616354335799999,-8.044669581199999,-2.7684957482,-37.800000000000004,-15.96,-12.32,8.105864278344285,-7.5510273808262305,-0.669473754548955,-54.89426226126704,-19.480996854264227,-10.042516688507158
2.854618791000007,7.6761749007999995,-7.307680220399999,-2.3952154225999998,-20.790000000000003,-1.61,-16.94,7.933988527326571,-7.453688516655738,-1.359770421769373,-41.25255735676022,-12.332598112558534,-12.801510013104295
2.86575587599998,8.075776274999999,-6.3696937612,-1.4285150922,-15.190000000000001,6.580000000000001,-19.810000000000002,7.990703626395943,-7.0200906144734425,-1.3872682899416238,-30.82753441405613,-4.7675588675351195,-15.604906007862578
2.877830968000012,8.1930245824,-5.2905307686,-0.45942193919999996,-15.190000000000001,13.3,-20.23,8.071632008797566,-6.328266676124066,-1.0161297496449744,-24.57252064843368,2.4594646794789288,-17.45494360471755
2.889240055000016,8.102097323599999,-4.6851466508,-0.0382851616,-14.560000000000002,13.72,-18.62,8.083818134718538,-5.671018665994439,-0.6249919144269847,-20.56751238906021,6.963678807687358,-17.92096616283053
2.9005481410000016,8.3126657124,-3.833301805199999,0.25124637299999997,-13.23,14.910000000000002,-10.500000000000002,8.175357165791123,-4.935931921676662,-0.2744965994561907,-17.632507433436125,10.142207284612414,-14.952579697698319
2.9123802319999754,8.7720876516,-2.9072794589999997,0.5455635528,-8.82,16.450000000000003,17.150000000000002,8.414049360114674,-4.124470936605998,0.053527461446285556,-14.107504460061676,12.66532437076745,-2.1115478186189898
2.9243093229999886,9.3511507208,-2.4239292938,0.9044869427999999,4.2,14.350000000000001,14.21,8.788889904388805,-3.444254279483598,0.3939112539877713,-6.784502676037005,13.33919462246047,4.417071308828607
2.9357994100000155,9.3104727366,-2.4478575198,1.5050854154,22.19,9.450000000000001,26.880000000000003,8.997523037273282,-3.0456955756101594,0.8383809185526627,4.805298394377799,11.783516773476284,13.402242785297167
2.947497499999997,10.3226366964,-2.1750757434,2.380858487,36.120000000000005,4.2700000000000005,33.32,9.52756850092397,-2.6974476427260954,1.4553719459315975,17.33117903662668,8.778110064085771,21.3693456711783
2.959466591000023,13.136596073999998,-0.08614161359999999,3.5318061576,38.220000000000006,6.720000000000001,50.89000000000001,10.97117953015438,-1.6529252310756573,2.2859456305989583,25.68670742197601,7.9548660384514625,33.17760740270698
2.971036679000008,15.565311013,1.8783657409999999,3.2949167202,36.470000000000006,13.860000000000001,106.61000000000001,12.808832123292627,-0.24040884224539427,2.689534066439375,30.000024453185606,10.316919623070877,62.55056444162419
2.9822937650000085,17.816957079599998,3.0675985731999997,2.9694928465999992,56.14000000000001,11.340000000000002,161.00000000000003,14.812082105815577,1.0827941239327636,2.801517578503625,40.45601467191137,10.726151773842526,101.93033866497451
2.994428857999992,20.815163797399997,2.7661029256000003,2.3449661479999997,102.76,23.380000000000003,216.23000000000002,17.213314782449345,1.7561176445996582,2.6188970063021753,65.37760880314683,15.787691064305516,147.65020319898474
3.0071879550000062,25.7300214178,4.3836510032,4.378865358,157.29000000000002,45.36000000000001,260.61,20.619997436589607,2.8071309880397943,3.322884346981305,102.14256528188811,27.616614638583307,192.83412191939084
3.0190200449999907,30.096922662799997,5.757131175599999,5.2235317358,222.18000000000004,46.900000000000006,338.24,24.410767527073766,3.987131063063877,4.083143302508783,150.15753916913286,35.32996878314999,250.9964731516345
3.0311081369999897,35.952159564999995,6.6951176348,6.460621019999999,266.0,35.7,408.38000000000005,29.027324342244256,5.070325691758327,5.034134389505269,196.49452350147973,35.477981269889995,313.94988389098074
3.042254221999997,39.1274351552,6.1782679532,3.936193177,276.92,42.35,486.36000000000007,33.06736866742655,5.513502596334995,4.594957904503161,228.66471410088786,38.226788761933996,382.9139303345885
3.0536453089999895,38.19184151859999,3.3068808331999993,-3.936193177,266.63000000000005,77.91000000000001,496.93000000000006,35.11715780789592,4.630853891080997,1.1824974719018966,243.85082846053274,54.1000732571604,428.52035820075315
3.065823401999978,36.3876532782,2.8546373617999996,-9.6023970938,311.92,127.4,502.11000000000007,35.625355996017554,3.9203672793685973,-3.1314603543788624,271.07849707631965,83.42004395429625,457.95621492045194
3.0774594910000133,35.581272062,7.735995465799999,-9.487541608999999,436.17,117.88000000000001,557.62,35.60772242241053,5.446618553941159,-5.673892856227316,337.1150982457918,97.20402637257776,497.8217289522712
3.089913586000023,27.534209658199998,17.9724905486,1.6175480775999997,567.9100000000001,90.65,595.49,32.378317316726324,10.456967351804694,-2.7573164826963894,429.4330589474751,94.58241582354664,536.8890373713627
3.100597666999988,18.6664091026,25.222743026599996,7.575676351599999,603.0500000000001,98.07000000000001,666.8900000000001,26.89355403107579,16.36327762172282,1.3758806510221664,498.8798353684851,95.97744949412798,588.8894224228178
3.11382176799998,0.42592242280000003,20.358134680799996,3.2350961551999995,503.2300000000001,126.35000000000001,713.7900000000001,16.306501387765472,17.96122044535369,2.1195668526933,500.6199012210911,108.12646969647679,638.8496534536907
3.12584185999998,-18.5156612788,7.0325056213999995,-0.1459621786,481.95000000000005,63.980000000000004,568.4000000000001,2.377636321139283,13.589734515772214,1.21335524017598,493.1519407326547,90.46788181788607,610.6697920722145
3.1376379499999985,-31.066015815799997,11.688938401,-0.8829515394,437.29,-38.290000000000006,436.94000000000005,-10.99982453363643,12.829416069863326,0.37483252834558795,470.8071644395928,38.96472909073164,541.1778752433287
3.149971043999983,-31.4153679154,27.5796732876,-12.095718243,388.99,-85.89000000000001,339.36,-19.16604188634186,18.729518956958,-4.613387780192647,438.0802986637557,-10.97716254556102,460.4507251459972
3.1612041299999873,-26.7062930386,52.54877711859999,-28.558337730999998,415.66,-20.51,401.45000000000005,-22.182142347245115,32.257222221614796,-14.191367760515586,429.1121791982535,-14.790297527336612,436.8504350875983
3.1733112219999953,-41.012979363999996,57.53302659439999,-14.1367959208,572.3900000000001,206.50000000000003,561.47,-29.71447715394707,42.367543970728875,-14.169539024629353,486.42330751895213,73.72582148359804,486.698261052559
3.1851453119999746,-66.1759018256,46.8538593306,33.8991177742,723.1,329.07000000000005,677.46,-44.29904702260825,44.16207011467733,5.057923694902389,581.0939845113713,175.86349289015882,563.0029566315355
3.196853401999988,-75.1561650434,20.078174436599998,68.12126659939999,242.48000000000002,278.25,427.07000000000005,-56.64189423092494,34.528511843446395,30.283260856701432,445.6483907068228,216.81809573409532,508.6297739789214
3.2076824839999745,-77.0704231234,-23.557338497,38.804404104199996,-181.44000000000003,141.05,61.39000000000001,-64.81330578791496,11.294171707267832,33.691718155700855,194.81303442409364,186.5108574404572,329.7338643873528
3.2229676009999935,-51.9410001782,-24.844677055799995,-3.7806597079999995,-441.35,-135.59,-351.82000000000005,-59.66438354402898,-3.1613677979592993,18.70276701022052,-59.652179345543836,57.6705144642743,57.11231863241167
3.234681690000002,-6.750152554599999,9.798608546999999,-25.184457864999995,-293.44000000000005,-177.94000000000003,-395.71000000000004,-38.498691148257386,2.02262274002442,1.1478770601323096,-153.16730760732634,-36.57369132143543,-124.01660882055303
3.2448897680000073,14.7924293132,22.973489782599998,-17.8911345802,18.130000000000003,-149.52,-224.42000000000002,-17.18224296367443,10.40296955705465,-6.467727596000615,-84.6483845643958,-81.75221479286128,-164.17796529233186
3.2535998349999886,17.34796385,23.095523735199997,-4.7473600384,183.61,-141.26000000000002,-75.18,-3.3701602382046576,15.479991228312791,-5.779580572960369,22.65496926136253,-105.55532887571675,-128.57877917539912
3.267035937000003,11.162517429,16.199409001999996,7.0755764282,258.58000000000004,-85.82000000000001,45.36000000000001,2.442910828677205,15.767758337787672,-0.6375177724962213,117.02498155681754,-97.66119732543005,-59.00326750523947
3.278106020999985,3.840480273,18.915262653,15.2997077044,103.46000000000001,-12.950000000000001,-10.57,3.001938606406323,17.026760063872604,5.737372418262267,111.59898893409053,-63.77671839525803,-39.62996050314368
3.2897771099999886,-1.7922241274,14.3234360836,15.337992865999999,-36.330000000000005,10.850000000000001,-36.260000000000005,1.084273512883794,15.945430471763562,9.57762059735736,52.4273933604543,-33.926031037154814,-38.28197630188621
3.3015982009999902,-5.0057848792,6.836294168199999,9.6598248362,-96.46000000000001,-8.47,-38.290000000000006,-1.3517498439497233,12.301775950338136,9.610502292894417,-7.127563983727426,-23.74361862229289,-38.28518578113172
3.313527291000014,-9.6885387074,1.9070796122,7.140182638399999,-86.87,6.580000000000001,-57.75000000000001,-4.686465389329834,8.143897415082883,8.622374431096649,-39.02453839023646,-11.614171173375734,-46.07111146867903
3.324755376999974,-12.7681013936,0.5694917787999999,8.8845503138,-98.00000000000001,52.57000000000001,-96.18,-7.9191197910379,5.11413516056973,8.727244784177989,-62.61472303414188,14.059497295974564,-66.11466688120743
3.3367274679999923,-16.414763036,-1.0313065406,8.9635134596,-175.84,51.24,-160.23000000000002,-11.317377089022738,2.6559584801018374,8.821752254346793,-107.90483382048514,28.93169837758474,-103.76080012872447
3.3490185619999693,-19.645073546,-2.0434705004,10.4039926648,-193.06000000000003,40.53,-223.72000000000003,-14.648455671813645,0.7761868879011024,9.454648418528077,-141.9669002922911,33.57101902655084,-151.7444800772347
3.3609986529999674,-24.055045597799996,-1.698904046,10.7868442808,-206.01000000000002,6.790000000000001,-276.78000000000003,-18.411091642208184,-0.21384948565933856,9.987526763436845,-167.58414017537464,22.858611415930508,-201.75868804634084
3.3730377449999764,-25.7754850472,1.2442677519999998,9.980463064599999,-248.29000000000002,-25.62,-332.22,-21.356849004204904,0.36939740940439686,9.984701283902107,-199.8664841052248,3.4671668495583035,-253.94321282780453
3.384933836000016,-27.199214494199996,1.7347963849999999,8.985048863,-308.91,-45.78,-393.33000000000004,-23.693795200202942,0.915556999642638,9.584840315541264,-243.48389046313488,-16.231699890265023,-309.6979276966827
3.3966769250000084,-27.9457751454,2.4454646972,8.1308111948,-377.23,-18.55,-457.31000000000006,-25.394587178281764,1.527520078665583,9.003228667244759,-296.9823342778809,-17.159019934159016,-368.74275661800965
3.40838301499997,-25.641486981599996,4.816751893799999,6.0753765814,-458.43000000000006,3.7100000000000004,-507.29,-25.49334709960906,2.8432128047193497,7.832087832906854,-361.5614005667286,-8.811411960495409,-424.16165397080584
3.4200751039999773,-18.7621220066,6.5850477951999995,2.0362920326,-491.05000000000007,8.4,-515.13,-22.800857062405434,4.339946800911609,5.513769512784112,-413.3568403400371,-1.9268471762972448,-460.54899238248356
3.4311831879999772,-12.131610581999999,6.381657874199998,-1.8903298539999998,-469.77000000000004,16.94,-512.2600000000001,-18.533158470243258,5.156631230226965,2.5521297660704674,-435.9221042040223,5.619891694221654,-481.23339542949014
3.443841285000019,-4.9986064114,5.9054861768,0.6771687957999999,-424.69000000000005,-15.47,-503.79,-13.119337646705956,5.45617320885618,1.8021453779622807,-431.4292625224134,-2.8160649834670086,-490.25603725769406
3.4539013620000105,-1.471585899,5.826523031,1.6510475939999998,-380.1,-35.63,-469.07000000000005,-8.460236947623574,5.6043131377137065,1.741706264377368,-410.897557513448,-15.941638990080207,-481.7816223546165
3.4630554309999866,2.6321048599999997,4.9220360882,0.16749758199999998,-350.56000000000006,-82.11000000000001,-447.37000000000006,-4.023300224574144,5.331402317908223,1.1120227914264207,-386.7625345080688,-42.408983394048136,-468.01697341276997
3.473928514000022,5.283352300799999,5.553741254599999,-0.12442677519999999,-308.28000000000003,-109.34,-434.98,-0.300639214424487,5.420337892584934,0.6174429647758525,-355.3695207048413,-69.1813900364289,-454.802184047662
3.486070606999988,10.6791672638,6.795616184,0.7776673449999999,-270.97,-117.67000000000002,-388.64000000000004,4.091283376865308,5.970449209150961,0.6815327168655114,-321.6097124229048,-88.57683402185735,-428.3373104285972
3.498443700999985,13.170095590399999,7.046862557,4.06779842,-272.65000000000003,-89.95,-326.34000000000003,7.722808262279184,6.401014548290576,2.0360389981193068,-302.02582745374286,-89.12610041311441,-387.5383862571584
3.5098507879999943,16.9627194114,5.5776694806,6.053841178,-355.04,-82.60000000000001,-282.73,11.418772721927512,6.0716765212143455,3.643159870071584,-323.23149647224574,-86.51566024786864,-345.615031754295
3.521826879999992,20.970697266400002,1.4285150922,1.7922241274,-415.66,-64.82000000000001,-264.11,15.239542539716505,4.214411949608607,2.9027855730029506,-360.2028978833475,-77.83739614872118,-313.013019052577
3.533295967000015,23.018953411999995,-1.8879370314,-2.548356069,-408.24000000000007,-50.470000000000006,-247.17000000000002,18.3513068886299,1.7734723572051643,0.7223289162017704,-379.4177387300086,-66.89043768923271,-286.6758114315462
3.543257042999983,24.380469471399998,-3.8907295475999994,-2.6368905051999993,-326.55,-30.520000000000003,-229.95000000000002,20.762971921737943,-0.49220840471690175,-0.6213588523589378,-358.2706432380051,-52.342262613539624,-263.9854868589277
3.552492112999971,25.674986497999996,-4.0055850324,-0.6843472635999999,-257.6,-24.71,-190.4,22.727777752242766,-1.897559055790141,-0.6465542168553627,-318.0023859428031,-41.289357568123776,-234.5512921153566
3.5671822250000105,26.143979727599998,-5.5369914964,3.4719855925999994,-111.65,-37.59,-121.94000000000001,24.094258542385656,-3.3533320320340843,1.000861706926782,-235.46143156568186,-39.80961454087427,-189.506775269214
3.5793073180000192,23.681765272199996,-6.436692794,7.635496916599999,-19.180000000000003,-39.480000000000004,-90.51,23.929261234311394,-4.58667633682045,3.6547157907960686,-148.94885893940912,-39.67776872452456,-149.9080651615284
3.590777404999983,20.0231395168,-5.5226345608,11.129017912599998,11.340000000000002,-50.61000000000001,-78.47000000000001,22.366812547306836,-4.961059626412269,6.644436639517641,-84.83331536364547,-44.050661234714745,-121.33283909691706
3.6030224990000193,17.1589308646,-5.1397829447999985,9.710074110799999,-3.7800000000000002,-65.52000000000001,-69.16000000000001,20.2836598742241,-5.032548953767361,7.870691628030585,-52.41198921818729,-52.638396740828846,-100.46370345815023
3.6150055900000098,15.560525367799999,-5.5010991574,6.0083775485999995,-31.780000000000005,-60.690000000000005,-54.46000000000001,18.394406071654462,-5.2199690352204176,7.125765996258352,-44.159193530912376,-55.85903804449731,-82.06222207489014
3.626807680000013,14.189438017999999,-5.776273756399999,1.0911271056,-54.67,-24.080000000000002,-20.160000000000004,16.712418850192677,-5.44249092369225,4.711910439995011,-48.36351611854743,-43.14742282669838,-57.30133324493409
3.6369377569999983,12.2249306634,-6.278766502399999,-2.572284295,-63.980000000000004,7.630000000000001,-16.03,14.917423575475606,-5.77700115517535,1.7982325459970063,-54.610109671128455,-22.836453696019028,-40.79279994696046
3.646137827000018,10.346564922399999,-7.5900332872,-4.4051864065999995,-50.190000000000005,28.000000000000004,0.14,13.08908011424536,-6.50221400798521,-0.6831350350417964,-52.84206580267707,-2.5018722176114134,-24.41967996817627
3.654997895000008,7.6115686905999995,-8.484948939599999,-5.0416772181999985,-29.470000000000002,40.53,2.0300000000000002,10.898075544787217,-7.295307980631127,-2.4265519083050777,-43.49323948160624,14.710876669433155,-13.839807980905762
3.665217972999983,5.745167062599999,-9.190831606599998,-4.6612184247999995,0.9100000000000001,40.74,-2.1,8.83691215191233,-8.053517431018676,-3.3204185149030465,-25.731943688963742,25.122526001659892,-9.143884788543456
3.677347064999992,4.888536571799999,-8.638089586,-3.5605200288,28.770000000000003,27.020000000000003,-7.280000000000001,7.257561919867398,-8.287346293011204,-3.416459120461828,-3.9311662133782446,25.881515600995936,-8.398330873126074
3.690404165000018,4.687539473399999,-7.0731836056,-1.7754743692000001,33.53,14.63,-11.830000000000002,6.229552941280438,-7.801681218046721,-2.760065219957097,11.053300271973058,21.38090936059756,-9.770998523875647
3.701711251000006,5.670989562,-4.9674997176,-1.8664016279999998,13.72,14.910000000000002,-12.32,6.006127589568262,-6.668008617868034,-2.402599783174258,12.119980163183834,18.792545616358538,-10.790599114325389
3.7136643420000155,6.8410798133999995,-4.0965122912,-2.950350265799999,-5.11,27.020000000000003,-4.62,6.340108479100958,-5.63941008720082,-2.6216999762245554,5.2279880979103,22.08352736981512,-8.322359468595232
3.7256554339999752,6.860222394199999,-4.2017964856,-2.9024938137999996,-7.98,48.09,0.56,6.548154045140574,-5.064364646560492,-2.734017511254733,-0.05520714125382015,32.48611642188907,-4.76941568115714
3.7372545220000006,6.2309100503999995,-4.3405801963999995,-1.8281164663999998,-1.8200000000000003,64.19000000000001,1.2600000000000002,6.421256447244344,-4.774850866496295,-2.37165709331284,-0.7611242847522921,45.16766985313345,-2.3576494086942836
3.749022611999976,5.3072805268,-4.563112698199999,0.9834500885999999,5.95,66.92,-0.6300000000000001,5.975666079066607,-4.690155599177777,-1.029614220547704,1.9233254291486248,53.86860191188007,-1.6665896452165703
3.7607317009999974,4.749752860999999,-4.943571491599999,2.6632115537999996,7.5600000000000005,55.790000000000006,-3.9200000000000004,5.485300791839964,-4.791521956146666,0.44751608919137764,4.177995257489175,54.63716114712804,-2.5679537871299423
3.772504791000017,4.996213588799999,-5.156532702999999,3.5150563993999997,4.130000000000001,35.0,-4.2,5.289665910623978,-4.937526254887999,1.6745322132748264,4.158797154493506,46.78229668827682,-3.2207722722779653
3.7825438670000153,5.6566326263999995,-5.845665611799999,3.2374889777999996,3.2900000000000005,23.450000000000003,-5.880000000000001,5.4364525969343855,-5.300781997652798,2.2997149190848956,3.811278292696103,37.44937801296609,-4.28446336336678
3.794555958999979,6.027520129399999,-6.379265051599999,3.0963124444,2.1700000000000004,14.910000000000002,-11.690000000000001,5.672879609920631,-5.732175219231679,2.618353929210938,3.154766975617662,28.433626807779653,-7.246678018020068
3.8064820499999996,6.9726850564,-6.699903279999999,3.0101708308,0.56,15.750000000000002,-35.21,6.192801788512378,-6.119266443539007,2.7750806898465625,2.116860185370597,23.360176084667795,-18.43200681081204
3.818467140999985,7.5948189324,-6.845865458599999,3.385843979,-0.49000000000000005,21.07,-23.87,6.753608646067427,-6.409906049563404,3.019386005507937,1.074116111222358,22.444105650800676,-20.607204086487226
3.82977822700002,8.434699665,-6.8171515874,3.9649070481999997,-4.2,22.26,-29.120000000000005,7.426045053640455,-6.572804264698042,3.3975944225847625,-1.0355303332665853,22.370463390480406,-24.012322451892338
3.841720318,9.6358966102,-6.2644095667999995,4.0606199522,-8.82,19.040000000000003,-27.230000000000004,8.309985676264272,-6.449446385538824,3.6628046344308567,-4.149318199959952,21.038278034288243,-25.299393471135406
3.8537254099999814,11.736794853,-6.285944970199998,3.5126635768,-9.8,12.740000000000002,-17.290000000000003,9.680709346958563,-6.384045819403294,3.6027482113785148,-6.4095909199759715,17.71896682057295,-22.095636082681242
3.866343506000021,14.175081082399998,-5.761916820800001,2.8929225234,6.16,5.040000000000001,-2.1700000000000004,11.478458041135136,-6.135194219961976,3.3188179361871084,-1.3817545519855825,12.64738009234377,-14.125381649608746
3.8784615980000012,17.8815632898,-4.1970108404,3.7423745464,35.21,2.1,35.42,14.039700140601083,-5.359920868137186,3.488240580272265,13.254947268808653,8.428428055406261,5.692771010234755
3.889765684999986,20.554346133999996,-3.5461630931999997,4.139583098,83.65,-9.450000000000001,78.12,16.645558537960646,-4.634417758162312,3.7487775873633593,41.412968361285195,1.2770568332437566,34.66366260614086
3.901695775999997,22.937597443599998,-3.4169506728,4.0390845488,123.20000000000002,-14.070000000000002,120.61000000000001,19.162374100216386,-4.147430924017387,3.864900371938015,74.12778101677111,-4.861765900053747,69.04219756368452
3.9137318669999672,23.755942772799994,-2.9742784917999994,3.7399817237999997,165.13000000000002,-10.99,153.44000000000003,20.99980156924983,-3.6781699511304318,3.814932912682809,110.52866861006267,-7.313059540032248,102.80131853821072
3.927963976000001,24.782463668199995,-2.237289131,3.5820554322,194.18,3.3600000000000003,187.04000000000002,22.512866408829893,-3.1018176230782597,3.721781920489686,143.9892011660376,-3.043835724019348,136.49679112292642
3.9397160649999705,29.55135911,1.0456634761999999,1.7730815465999998,210.00000000000003,12.740000000000002,237.58,25.32826348929794,-1.4428251833669556,2.9423017709338115,170.39352069962257,3.2696985655883917,176.93007467375585
3.951194153000017,33.4301245446,1.8568303375999997,0.38763726119999997,264.39000000000004,8.610000000000001,313.04,28.56900791141876,-0.12296297498017317,1.9204359670402866,207.99211241977355,5.405819139353035,231.37404480425354
3.9627052409999806,37.057643606199996,1.8209379985999998,-3.5437702705999996,326.83000000000004,1.12,396.55,31.964462189331257,0.654597414451896,-0.26524652801582793,255.52726745186413,3.691491483611821,297.44442688255214
3.9759053409999865,37.0815718322,3.2925238975999997,-7.757530869199999,430.57000000000005,2.8000000000000003,432.25000000000006,34.01130604647875,1.7097680077111375,-3.2621602644894963,325.5443604711185,3.3348948901670923,351.36665612953124
3.988174435000019,34.4494669722,6.848258281199999,-9.7842516114,459.76000000000005,35.910000000000004,456.05000000000007,34.186570416767246,3.7651641171066816,-5.870996803253699,379.2306162826711,16.364936934100257,393.23999367771876
3.999816523999982,30.0275308074,11.3443719466,-8.7146599092,504.91,62.02,486.99000000000007,32.52295457302035,6.796847248904008,-7.008462045632219,429.5023697696027,34.62696216046016,430.7399962066313
4.0109256079999795,22.523639133799996,20.066210323599996,-5.2857451234,555.45,81.69000000000001,535.22,28.523228397332208,12.104592478782404,-6.319375276739331,479.8814218617616,53.4521772962761,472.53199772397875
4.0208916839999915,11.980862758199999,27.6562436108,-3.9218362414,536.5500000000001,104.37,581.7,21.90628214167932,18.32525293158944,-5.3603596626035985,502.548853117057,73.81930637776566,516.1991986343872
4.034311786999979,-4.151547211,27.8309196606,-5.388636495199999,557.97,105.56000000000002,647.2900000000001,11.483150400607594,22.12751962319366,-5.37167039564216,524.7173118702341,86.51558382665941,568.6355191806324
4.046368878999999,-32.0016094524,18.991832976199998,-0.6699903279999999,613.48,28.560000000000002,580.0200000000001,-5.910753540595444,20.873244964396196,-3.490998368585295,560.2223871221405,63.33335029599565,573.1893115083794
4.058376969999983,-33.164521236,28.2735918416,-7.252645300599999,632.94,-60.620000000000005,514.36,-16.812260618757264,23.83338371527772,-4.9956571413911774,589.3094322732843,13.752010177597382,549.6575869050276
4.0702190599999994,-36.856646507799994,37.552957884399994,-17.6901374818,692.1600000000001,-36.120000000000005,507.9200000000001,-24.830014974374357,29.321213382926636,-10.073449277554706,630.4496593639706,-6.196793893441572,532.9625521430166
4.082204151999974,-42.3194605036,52.187460906,-8.724231199599998,852.8100000000001,110.60000000000001,564.2700000000001,-31.825793186064615,38.46771239215598,-9.533762046372823,719.3937956183823,40.52192366393506,545.48553128581
4.094336243999976,-50.69673242619999,59.80860088699999,37.5170655454,832.7900000000001,258.02000000000004,606.4100000000001,-39.374168882118774,47.00406779009359,9.286568990336306,764.7522773710294,127.52115419836106,569.855318771486
4.106645338000021,-64.14200261559999,40.3932383106,78.34101192399999,436.59000000000003,290.5,510.02000000000004,-49.28130237551127,44.359735998296145,36.90834616380178,633.4873664226176,192.71269251901666,545.9211912628916
4.118426428000021,-63.44808406159999,-14.141581566,60.93083468639999,-222.18000000000004,107.66000000000001,149.94000000000003,-54.948015049946754,20.95920897257769,46.51734157284107,291.22041985357055,158.69161551141,387.528714757735
4.130210518000013,-44.767318023399994,-24.684357941599995,5.4364929472,-502.74000000000007,-70.14,-279.09000000000003,-50.87573623932805,2.7017822069066115,30.08500212258464,-26.36374808785773,67.15896930684599,120.88122885464095
4.141891606999991,-9.2386880586,-3.2733813167999997,-36.3661178748,-450.94000000000005,-144.20000000000002,-377.44000000000005,-34.22091696703683,0.3117167974239669,3.504554123630784,-196.19424885271468,-17.384618415892415,-78.44726268721546
4.153921699000023,12.906885104399999,8.5112699882,-32.45385292379999,-112.42000000000002,-69.72000000000001,-214.62000000000003,-15.369796138462096,3.5915380737343803,-10.878808695341531,-162.68454931162879,-38.31877104953545,-132.91635761232928
4.165663788000018,12.062218726599998,16.338192712799998,-5.845665611799999,247.8,-24.220000000000002,-22.26,-4.396990192437257,8.69019992936063,-8.865551461924918,1.5092704130227323,-32.67926262972127,-88.65381456739757
4.17778487999999,5.2139604454,17.0703964284,10.430313713399999,265.44,-4.970000000000001,35.56,-0.5526099373023544,12.042278528976379,-1.1472053917949505,107.08156224781366,-21.59555757783276,-38.96828874043854
4.189401969000016,0.3062812928,18.5156612788,17.441283931399997,94.78000000000002,19.180000000000003,15.190000000000001,-0.20905344526141265,14.631631628905826,6.28819033748303,102.16093734868821,-5.285334546699657,-17.30497324426312
4.200878057000011,-3.6275190615999997,13.416556318199998,17.096717477,-27.300000000000004,31.780000000000005,-19.740000000000002,-1.5764396917968473,14.145601504623498,10.611601193289816,50.37656240921292,9.540799271980209,-18.278983946557872
4.212706147000006,-6.3026947284,7.2287170746,9.3296153174,-93.87,12.39,-33.32,-3.4669417064381087,11.3788477326141,10.098806842933891,-7.32206255447225,10.680479563188126,-24.295390367934726
4.222585222000021,-8.4993058752,3.1202406704,6.4941205364,-69.58000000000001,-3.22,-48.02,-5.479887373942866,8.075404907728458,8.656932320320333,-32.22523753268335,5.120287737912874,-33.78523422076084
4.234460313,-9.2530449942,1.7324035624,5.761916820800001,-43.260000000000005,-7.630000000000001,-62.230000000000004,-6.98915042204572,5.538204369597074,7.498926120512198,-36.63914251961002,0.02017264274772444,-45.1631405324565
4.247043407999968,-11.3348006562,1.9645073545999996,9.8751788702,-70.56,10.15,-92.89000000000001,-8.727410515707431,4.108725563598245,8.449427220387319,-50.20748551176601,4.072103585648635,-64.25388431947391
4.25927150199999,-14.201402130999998,2.4335005842,13.820943337600001,-118.37,23.17,-149.66000000000003,-10.91700716182446,3.438635571838947,10.598033667272393,-77.47249130705963,11.711262151389183,-98.41633059168436
4.271127591999971,-15.0293187506,4.5774696338,14.0315117264,-173.25000000000003,10.430000000000001,-208.04000000000002,-12.561931797334672,3.8941691966233676,11.971424890923434,-115.78349478423578,11.19875729083351,-142.26579835501062
4.282903681999983,-16.534404165999998,5.8193445632000005,13.471591238,-240.73000000000002,-5.390000000000001,-257.81,-14.150920744800803,4.66423934325402,12.571491429754062,-165.76209687054148,4.563254374500106,-188.4834790130064
4.295026774000007,-17.1230385256,6.2548382764,11.6315106586,-315.35,-19.39,-289.17,-15.339767857120481,5.300478916512411,12.195499121292434,-225.59725812232486,-5.018047375299939,-228.75808740780383
4.30697586499997,-17.5417824806,5.716453191399999,8.626125472999998,-345.94000000000005,-21.630000000000003,-316.82000000000005,-16.220573706512287,5.4668686264674475,10.767749661975461,-273.7343548733949,-11.662828425179965,-263.9828524446823
4.319103957999971,-18.1208455498,4.6755753604,6.190232066199998,-386.75000000000006,17.360000000000003,-346.92,-16.980682443827373,5.150351320040468,8.936742623665275,-318.94061292403694,-0.05369705510797758,-297.1577114668094
4.331014047999986,-19.1042956384,3.1393832511999995,5.1254260092,-424.55000000000007,35.980000000000004,-374.92,-17.830127721656424,4.345964092504281,7.412215977879165,-361.18436775442217,14.359781766935216,-328.26262688008563
4.342274133999979,-20.671594441400003,-0.6101697629999999,5.479563754,-447.09000000000003,54.32000000000001,-413.77000000000004,-18.966714409553855,2.3635105503025686,6.639155088327498,-395.54662065265336,30.343869060161133,-362.4655761280514
4.354112224000005,-18.769300474399998,-0.45224347139999993,4.845465764999999,-449.40000000000003,56.42000000000001,-462.49000000000007,-18.887748835492314,1.237208941621541,5.921679358996499,-417.0879723915921,40.774321436096685,-402.47534567683084
4.364787305999982,-15.7304157724,0.6604190375999999,3.5844482548,-459.76000000000005,53.27,-486.01000000000005,-17.62481561025539,1.0064929800129245,4.986786917317899,-434.1567834349553,45.77259286165802,-435.88920740609854
4.3782424080000055,-9.678967416999999,-22.794028087599997,-8.860622087799998,-700.98,49.56,-493.71000000000004,-14.446476332953234,-8.513715447032245,-0.5521766847292606,-540.8860700609732,47.28755571699481,-459.0175244436591
4.390143498999976,-3.4265219632,1.6414763035999997,0.9738787981999999,-432.32000000000005,38.150000000000006,-495.32000000000005,-10.03849458505194,-4.451638746779347,0.058245508442443625,-497.4596420365839,43.632533430196894,-473.53851466619545
4.4018065879999995,-0.13160524299999998,2.4239292938,0.33738798659999997,-368.90000000000003,18.76,-476.28000000000003,-6.075738848231163,-1.7014115305476083,0.1699024997054662,-446.03578522195033,33.683520058118134,-474.6351087997173
4.413315675999968,1.5625131578,1.5361921092,3.0580272828,-277.34000000000003,-10.010000000000002,-456.40000000000003,-3.0204380458186972,-0.40637007464856495,1.3251524129432797,-378.55747113317017,16.20611203487088,-467.3410652798304
4.423272751000013,4.429114632599999,3.0317062341999996,5.766702466,-264.25,-41.09,-411.25000000000006,-0.040616974451218306,0.968860448890861,3.1017724341659676,-332.8344826799021,-6.7123327790774745,-444.90463916789827
4.432499822000011,6.982256346799999,4.584648101599999,6.037091419799999,-291.34000000000003,-82.04,-379.47,2.768532354049269,2.4151755099745165,4.2759000284195805,-316.23668960794123,-36.84339966744649,-418.73078350073894
4.441083886999991,10.217352501999999,5.970092386999999,4.259224228,-325.71000000000004,-116.62,-342.51000000000005,5.7480604132295605,3.83714226078471,4.269229708251748,-320.02601376476474,-68.75403980046791,-388.2424701004433
4.45101796299997,14.093725114,4.850251410199999,-0.42592242280000003,-342.37,-145.88000000000002,-283.5,9.086326293537736,4.242385920550825,2.3911688558310487,-328.96360825885887,-99.60442388028075,-346.345482060266
4.462844052999969,18.876977491399998,0.8327022647999999,-4.8622155232,-285.32000000000005,-141.89000000000001,-221.69000000000003,13.00258677268264,2.8785124582504955,-0.5101848957813708,-311.50616495531534,-116.51865432816845,-296.4832892361597
4.474013137999975,21.592831142399998,-1.9764714675999997,-5.891129241199999,-195.44000000000003,-108.29,-174.51000000000002,16.438684520569584,0.9365188879102971,-2.6625626339488226,-265.0796989731892,-113.22719259690109,-247.69397354169584
4.486189230999969,22.4398903428,-4.3166519704,-0.9451649269999999,-81.2,-79.10000000000001,-122.71000000000001,18.839166849461748,-1.1647494554138218,-1.9756035511692933,-191.5278193839135,-99.57631555814065,-197.70038412501754
4.498178322000001,20.796021216599996,-5.6925249654,5.3862436726,-23.8,-72.59,-87.99000000000001,19.621908596317045,-2.9758596594082927,0.969135338338424,-124.43669163034811,-88.7817893348844,-153.8162304750105
4.509769410999979,20.788842748799997,-7.1712893322,7.893921757399999,-17.430000000000003,-102.34,-80.85000000000001,20.08868225731023,-4.654031528524975,3.739049905963055,-81.63401497820885,-94.20507360093065,-124.62973828500631
4.521401498999978,19.7240366918,-7.312465865599999,7.7862447404,-21.35,-122.92000000000002,-82.88000000000001,19.942824031106138,-5.717405263354984,5.357927839737833,-57.52040898692531,-105.69104416055839,-107.92984297100378
4.533030587999974,19.393827173,-7.240681187599998,5.1014977832,-32.06,-123.20000000000002,-84.7,19.72322528786368,-6.326715633052991,5.255355817122699,-47.336245392155185,-112.69462649633505,-98.63790578260227
4.546015687000022,18.747765071,-7.444071108599999,2.6129622791999996,-26.950000000000003,-97.86000000000001,-79.10000000000001,19.333041201118206,-6.773657823271794,4.198398401953619,-39.181747235293116,-106.76077589780104,-90.82274346956136
4.55766377599997,17.0081830408,-7.666603610399998,0.6867400861999999,-7.07,-61.53000000000001,-70.28,18.403097936990925,-7.130836138123077,2.7937350756521715,-26.33704834117587,-88.66846553868062,-82.60564608173682
4.5698848690000204,14.6033963278,-8.0303126456,0.41874395499999995,10.57,-30.17,-56.980000000000004,16.883217293314555,-7.490626741113846,1.843738627391303,-11.57422900470552,-65.26907932320837,-72.35538764904209
4.581494957000018,11.942577596599998,-7.621139980999999,0.9212367009999999,16.1,-9.73,-47.11000000000001,14.906961414628732,-7.542832037068307,1.4747378568347815,-0.504537402823311,-43.05344759392502,-62.25723258942525
4.593407048000017,9.188438783999999,-8.035098290799999,0.7704888771999999,21.21,-5.8100000000000005,-38.71,12.619552362377238,-7.739738538560984,1.1930382649808688,8.181277558306014,-28.15606855635501,-52.83833955365515
4.6034351239999864,7.4512495764,-8.3677006322,0.6173482307999999,21.700000000000003,-4.340000000000001,-36.470000000000006,10.552231247986343,-7.990923376016591,0.9627622513085213,13.588766534983609,-18.629641133813006,-46.29100373219309
4.616542224,6.4654066652,-8.350950873999999,0.23449661479999998,18.69,17.220000000000002,-35.28,8.917501414871806,-8.134934375209955,0.6714559967051128,15.629259920990167,-4.289784680287802,-41.886602239315856
4.627049303999968,5.670989562,-7.795816030799999,0.36370903520000003,10.080000000000002,7.000000000000001,-36.68000000000001,7.618896673723082,-7.999287037445972,0.5483572121030676,13.409555952594099,0.2261291918273188,-39.80396134358952
4.637702385000011,5.2570312522,-7.2287170746,-0.07178467799999999,-3.6400000000000006,13.23,-37.24,6.67415050511385,-7.691059052307582,0.3003004560618405,6.589733571556459,5.427677515096392,-38.778376806153716
4.64982747800002,4.938785846399999,-6.788437716199999,-0.34217363179999993,-35.28,19.46,-38.36000000000001,5.980004641628309,-7.330010517864548,0.04331082091710432,-10.158159857066128,11.040606509057836,-38.61102608369223
4.661022563000017,4.962714072399999,-6.4079789228,-0.5479563754,-26.53,21.700000000000003,-45.92,5.573088413936985,-6.961197879838729,-0.1931960576097374,-16.706895914239677,15.304363905434702,-41.53461565021535
4.673279657000023,5.599204884,-4.9603212498,-0.30149564759999997,-25.830000000000002,17.430000000000003,-47.040000000000006,5.583535001962191,-6.160847227823238,-0.2365158936058424,-20.35613754854381,16.154618343260825,-43.73676939012921
4.685516749999977,6.2500526312,-4.785645199999999,0.11246266220000001,-15.330000000000002,7.98,-38.36000000000001,5.850142053657312,-5.610766416693942,-0.09692447128350545,-18.345682529126286,12.884771005956493,-41.586061634077524
4.696355831999995,6.0610196458,-4.926821733400001,1.0695917021999999,0.28,-2.9400000000000004,-33.39,5.934493090514387,-5.3371885433763655,0.3696819981098967,-10.895409517475771,6.554862603573896,-38.30763698044652
4.707214915000009,5.9389856931999985,-4.9986064114,1.6701901747999999,7.210000000000001,-11.13,-28.560000000000002,5.936290131588632,-5.201755690585819,0.889885268785938,-3.6532457104854617,-0.5190824378556629,-34.40858218826791
4.721440023000014,5.9605210966,-4.979463830599999,2.2923240507999996,5.390000000000001,-17.71,-25.060000000000002,5.945982517593179,-5.112838946591491,1.4508607815915626,-0.035947426291276514,-7.395449462713398,-30.669149312960744
4.733378114000004,6.374479406399999,-5.032105927799999,2.0721843715999997,0.9100000000000001,-23.520000000000003,-24.290000000000003,6.117381273115907,-5.080545739074894,1.6993902175949378,0.3424315442252341,-13.84526967762804,-28.117489587776447
4.74445319900002,6.608976021199999,-5.4819565766,2.0099709839999997,-3.08,-26.53,-26.180000000000003,6.314019172349544,-5.241110074084936,1.8236225241569628,-1.0265410734648597,-18.919161806576827,-27.34249375266587
4.756709291999982,7.3531438497999995,-5.761916820800001,1.686939933,-12.740000000000002,-26.53,-33.32,6.729669043329726,-5.449432772770961,1.7689494876941774,-5.711924644078916,-21.963497083946095,-29.733496251599522
4.768843384999968,8.614161359999999,-5.7643096434,0.849452023,-19.740000000000002,-23.590000000000003,-35.84,7.483465969997835,-5.575383521022577,1.4011505018165065,-11.323154786447352,-22.614098250367658,-32.17609775095971
4.778949462000014,9.509077012399999,-5.699703433199999,0.21296121140000002,-17.220000000000002,-19.950000000000003,-32.620000000000005,8.2937103869587,-5.625111485893545,0.9258747856499039,-13.681892871868412,-21.548458950220592,-32.35365865057583
4.791704558999982,10.061819032999999,-5.8097732728,0.057427742399999995,-0.14,-13.370000000000001,-25.62,9.000953845375221,-5.698976200656127,0.5784959683499423,-8.265135723121046,-18.27707537013236,-29.660195190345497
4.80295064500001,10.782058635599999,-5.3312087527999985,0.3613162126,19.53,-11.200000000000001,-16.520000000000003,9.713395761465133,-5.551869221513675,0.49162406604996534,2.8529185661273733,-15.446245222079414,-24.4041171142073
4.815008735999982,12.1244321142,-4.5343988269999995,0.8398807326,31.220000000000002,-8.540000000000001,15.190000000000001,10.67781030255908,-5.144881063708205,0.6309267326699793,14.199751139676426,-12.68374713324765,-8.566470268524377
4.82693982699999,14.964712540399997,-3.8979080153999996,0.39960137419999997,44.940000000000005,-8.82,16.520000000000003,12.392571197695446,-4.646091844384923,0.5383965892819876,26.495850683805855,-11.13824827994859,1.4681178388853757
4.838893917999997,16.9028988464,-3.5653056739999998,-0.0765703232,81.06,-2.1,40.18000000000001,14.196702257177268,-4.213777376230954,0.2924098242891926,48.321510410283516,-7.522948967969154,16.95287070333123
4.851027010999985,19.4871472544,-2.4239292938,0.8518448456000001,124.18,12.740000000000002,80.29,16.31288025606636,-3.497838143258572,0.5161838328135155,78.66490624617012,0.5822306192185077,42.287722421998744
4.862489097999969,20.958733153399997,-1.0097711372,1.8233308212,146.02,26.040000000000003,123.41000000000001,18.171221414999817,-2.502611340835143,1.0390426281681093,105.60694374770208,10.765338371531106,74.73663345319926
4.874087186999986,22.6624228446,-0.179461695,1.9884355805999996,164.36,39.34,169.26000000000002,19.967701986839888,-1.5733514825010861,1.4187998091408653,129.10816624862127,22.19520302291867,112.54598007191956
4.885383273000002,22.523639133799996,-0.0502492746,1.7491533205999998,162.61,55.370000000000005,199.01000000000002,20.990076845623932,-0.9641105993406514,1.5509412137245193,142.50889974917277,35.4651218137512,147.13158804315177
4.897545364999985,24.667608183399995,-0.2895315346,-1.3280165429999997,175.07000000000002,67.76,236.18000000000004,22.461089380734357,-0.6942789734443908,0.3993581110347115,155.53333984950368,48.383073088250725,182.75095282589106
4.909469456000011,27.428925463799995,-0.7298108929999999,-3.409772205,220.22000000000003,77.56,268.94,24.448223813960613,-0.7084917412666344,-1.124294015379173,181.40800390970222,60.05384385295044,217.22657169553466
4.920965544000012,30.9248392824,-0.5934200048,-6.4893348911999995,296.45000000000005,92.4,312.62,27.038870001336367,-0.6624630466799807,-3.270310365707503,227.42480234582132,72.99230631177026,255.3839430173208
4.932613633000017,32.410782117,-0.6963113766000001,-8.429914019799998,372.33000000000004,111.79,360.43,29.18763484760182,-0.6760023786479885,-5.334151827344502,285.3868814074928,88.51138378706217,297.4023658103925
4.944114720000016,29.185257252199996,-0.5096712138,-8.6428752312,419.72,129.57000000000002,372.26000000000005,29.186683809441092,-0.6094699127087931,-6.657641188886701,339.12012884449575,104.93483027223732,327.34541948623547
4.956408813999985,24.933211491999998,2.7326034091999993,-7.948956677199999,451.92,126.21000000000001,365.12000000000006,27.48529488246465,0.7273594160547242,-7.174167384212021,384.24007730669746,113.4448981633424,342.4552516917413
4.967750899999999,22.152751630799997,7.271787881399999,-6.6975104574,484.61000000000007,117.18,383.74,25.352277581798788,3.345130802192835,-6.983504613487211,424.3880463840185,114.93893889800545,358.9691510150448
4.979828992000023,18.317057003,15.8476640798,-7.470392157199999,493.29,140.21,416.08000000000004,22.53818935027927,8.3461441132357,-7.178259630972327,451.94882783041106,125.04736333880327,381.81349060902687
4.991385079999986,6.666403763599999,23.042881637999994,-7.721638530200001,487.55000000000007,177.8,468.72,16.189475115607564,14.224839123141418,-7.395611190663396,466.1892966982467,146.14841800328196,416.57609436541617
5.00321617100002,-6.0705909361999995,25.0791736706,-3.6562329327999996,492.38000000000005,200.76000000000002,507.99000000000007,7.285448694884538,18.56657294212485,-5.899859887518037,476.66557801894805,167.99305080196916,453.1416566192497
5.015390262999972,-23.9377972904,18.644873699199998,-0.8446663778,550.7600000000001,154.56,496.51000000000005,-5.203849699229276,18.59789324495491,-3.877782483630822,506.30334681136884,162.6198304811815,470.4889939715498
5.027110353000012,-31.671399933599997,22.5260319564,-1.8257236438,579.32,88.27000000000001,442.19000000000005,-15.790869792977565,20.169148729532942,-3.0569589476984933,535.5100080868212,132.87989828870892,459.1693963829299
5.0387794420000205,-38.5029084566,28.177878937599996,-6.2955162605999995,607.5300000000001,78.82000000000001,421.47,-24.87568525842654,23.37264081275977,-4.3523818728590955,564.3180048520928,111.25593897322535,444.0896378297579
5.051072535000003,-39.074793058,39.2686116886,-1.7419748528,615.1600000000001,162.54000000000002,453.11000000000007,-30.555328378255922,29.731029163095858,-3.3082190648354577,584.6548029112557,131.7695633839352,447.6977826978548
5.061085611999999,-44.5926419736,44.1691123734,22.839491716999998,590.3100000000001,229.81000000000003,516.74,-36.170253816393554,35.50626244721751,7.150865247898724,586.9168817467535,170.98573803036112,475.3146696187129
5.069898679000005,-50.74698170079999,32.77688397479999,43.2957321244,492.1700000000001,241.85000000000002,512.8900000000001,-42.00094497015614,34.41451105825051,21.608811998499238,549.0181290480522,199.33144281821666,490.34480177122776
5.080593759999999,-56.21697416439999,10.4829558106,52.76173832999999,96.18,199.71,372.19000000000005,-47.687356647853676,24.841888959190303,34.06998253109954,367.8828774288313,199.48286569093,443.08288106273665
5.092785853000009,-50.524449198999996,-20.8749843624,33.3726968022,-243.81000000000003,78.54,15.400000000000002,-48.82219366831219,6.555139630554179,33.79106823953972,123.2057264572988,151.10571941455802,272.00972863764196
5.10492194599999,-25.038495686399997,-12.3254292126,-3.4911281733999995,-365.68,-71.47000000000001,-207.27,-39.30871447554731,-0.9970879067074917,18.87818967436383,-72.34856412562074,62.0754316487348,80.29783718258517
5.116858036999986,-4.5080777784,3.3786655112,-22.4135692942,-298.20000000000005,-121.80000000000001,-236.39000000000001,-25.388459796688394,0.753213460455505,2.361486086938297,-162.68913847537246,-11.474741010759127,-46.37729769044892
5.128707126999984,6.915257314,12.342178970799997,-12.787243974399999,38.64,-86.24000000000001,-72.03,-12.466972952413034,5.388799664593304,-3.698005937597021,-82.15748308522348,-41.38084460645548,-56.63837861426935
5.139145206000023,5.5896335936,12.540783246599998,0.7585247641999999,208.39000000000001,-56.980000000000004,-11.48,-5.244330334007821,8.249593097395982,-1.9153936568782128,34.06151014886592,-47.620506763873294,-38.57502716856161
5.156057335000014,1.8424734019999998,18.654444989599998,14.187045195399998,83.37,7.840000000000001,-0.6300000000000001,-2.409608839604692,12.411533854277588,4.5255818840330715,53.784906089319556,-25.436304058323973,-23.397016301136965
5.166551415000015,-1.0767701699999999,15.586846416399998,14.270793986399998,-53.690000000000005,31.220000000000002,-1.2600000000000002,-1.8764733717628153,13.681658879126553,8.423666724979842,10.794943653591728,-2.7737824349943834,-14.542209780682178
5.178903509000008,-5.0081777018,5.7810594016,6.5276200528,-109.13000000000001,-3.5700000000000003,26.810000000000002,-3.1291551037776886,10.52141908811593,7.665248056107904,-37.17503380784496,-3.09226946099663,1.9986741315906957
5.190373597000018,-9.0257268472,-0.07178467799999999,2.9838497821999996,-36.120000000000005,-33.74,41.02,-5.487783801146613,6.284137581669559,5.792688746544743,-36.75302028470698,-15.351361676597978,17.60720447895442
5.202344687999982,-12.717852118999998,-2.333002035,6.3361942448,39.970000000000006,-13.860000000000001,3.99,-8.379811128287967,2.8372817350017354,6.010090945846845,-6.063812170824185,-14.754817005958786,12.160322687372652
5.2143357790000096,-14.584253747,-0.007178467799999999,12.363714374199999,-8.190000000000001,21.98,-37.38,-10.861588175772779,1.699497653881041,8.551540317188108,-6.914287302494512,-0.06089020357527048,-7.655806387576412
5.226348870999971,-16.953148120999998,0.8039883936,17.9868474842,-63.77,23.03,-84.21000000000001,-13.298212153863668,1.3412939497686245,12.325663183992864,-29.656572381496712,9.175465877854839,-38.277483832545855
5.2365359479999825,-17.790636031,0.6293123437999999,18.494125875399998,-121.24000000000001,0.21000000000000002,-134.4,-15.095181704718199,1.0565013073811746,14.793048260555718,-66.28994342889803,5.589279526712903,-76.72649029952753
5.245877020000023,-17.407784415,2.3784656643999997,17.209180139199997,-170.17000000000002,-21.840000000000003,-193.48000000000002,-16.02022278883092,1.5852870501887046,15.759501012013429,-107.84196605733884,-5.3824322839722605,-123.42789417971655
5.254554085999985,-15.503097625399999,4.206582130799999,14.1344030982,-215.67000000000002,-39.480000000000004,-225.33,-15.813372723458551,2.6338050824332226,15.109461846488056,-150.97317963440332,-19.021459370383358,-164.18873650782996
5.264564161999999,-14.658431247599998,4.151547211,10.755737586999999,-276.78000000000003,-49.77,-240.10000000000002,-15.351396133115129,3.2409019338599334,13.367972142692835,-201.29590778064198,-31.320875622230016,-194.55324190469798
5.2765802540000095,-13.689338094599998,3.8572300311999994,6.2404813408,-300.37,-61.46000000000001,-254.10000000000002,-14.686572917709077,3.4874331727959604,10.5169758219357,-240.9255446683852,-43.37652537333801,-218.3719451428188
5.288416343999984,-12.528819133599999,3.4313076084,5.0153561695999995,-286.58000000000004,-50.120000000000005,-252.07000000000002,-13.823471404065444,3.464982947037576,8.31632796100142,-259.1873268010312,-46.07391522400282,-231.8511670856913
5.300587436000001,-14.567503988799999,1.2251251712,6.163911017599999,-265.16,-14.14,-265.93,-14.121084437959269,2.569039836702545,7.455361183640852,-261.57639608061874,-33.300349134401685,-245.48270025141477
5.312699528999985,-16.8502567492,-0.6867400861999999,8.9635134596,-301.63000000000005,28.42,-310.03000000000003,-15.21275336245556,1.2667278675415272,8.05862209402451,-277.59783764837124,-8.61220948064101,-271.30162015084886
5.323836614000015,-17.733208288599997,-0.9547362173999999,9.858429112,-352.24,54.25000000000001,-356.3,-16.220935332913335,0.3781422335649161,8.778544901214707,-307.45470258902276,16.5326743116154,-305.30097209050933
5.333778688999985,-18.360127809799998,-2.3856441322,8.231309743999999,-404.32000000000005,80.99000000000001,-407.05,-17.076612323668,-0.7273723127410503,8.559650838328823,-346.20082155341373,42.31560458696924,-346.0005832543056
5.343314761999977,-15.778272224399998,-0.16510475939999997,8.063812162,-430.64000000000004,99.68,-441.77000000000004,-16.557276283960803,-0.5024652914046301,8.361315367797292,-379.9764929320483,65.26136275218155,-384.30834995258334
5.351967827999999,-13.674981159,-0.33260234139999995,5.02492746,-472.50000000000006,108.29,-470.47,-15.40435823397648,-0.4345201114027781,7.026760204678376,-416.985895759229,82.47281765130894,-418.77300997155004
5.363825917999975,-8.9539421692,1.0001998468,1.9310078382,-532.98,121.45000000000002,-480.48,-12.824191808065889,0.1393678718783332,4.988459258087026,-463.3835374555374,98.06369059078536,-443.45580598293003
5.37657001499997,-3.7639099497999995,-0.22971096959999998,-1.543370577,-491.33000000000004,117.04,-481.18000000000006,-9.200079064759533,-0.008263664713000083,2.3757273240522148,-474.56212247332246,105.65421435447122,-458.5454835897581
5.388742107999974,-2.9886354273999993,-0.9020941201999999,-1.5984054967999999,-405.93000000000006,109.76,-488.39000000000004,-6.71550160981572,-0.3657958469078001,0.7860741957113291,-447.1092734839935,107.29652861268275,-470.48329015385485
5.40040819699999,-1.6247265453999997,-1.543370577,0.7585247641999999,-334.11,100.73,-496.09000000000003,-4.679191584049431,-0.83682573894468,0.7750544231067973,-401.9095640903961,104.66991716760964,-480.7259740923129
5.4117372829999795,1.5314064639999998,1.1916256548,6.3266229543999986,-301.42,84.91000000000001,-484.47,-2.1949523648296587,-0.025445181446807998,2.9956818356240786,-361.71373845423767,96.76595030056578,-482.2235844553878
5.421758359000023,5.644668513399999,3.0005995404,8.8390866844,-353.43,40.11000000000001,-458.15000000000003,0.940895986462205,1.1849727072919152,5.333043775134447,-358.4002430725426,74.10357018033946,-472.5941506732327
5.4310694299999795,8.8199441036,2.8498517165999995,6.429514326199999,-400.05,16.59,-443.87000000000006,4.092515233317323,1.850924311015149,5.771631995560668,-375.06014584352556,51.098142108203675,-461.1044904039397
5.439814496999986,11.882757031599999,2.0267207422,2.5148565526,-407.19000000000005,-6.580000000000001,-426.79,7.208611952630394,1.9212428834890898,4.468921818376401,-387.91208750611537,28.026885264922203,-447.3786942423638
5.449799573000007,15.414563189199999,0.6795616184,-0.6604190375999999,-359.73,-11.55,-398.37000000000006,10.490992447258238,1.424570377453454,2.4171854759858404,-376.6392525036692,12.196131158953321,-427.7752165454183
5.459723648000022,17.9078843384,0.4881358103999999,-0.9068797653999999,-275.8,-3.6400000000000006,-357.28000000000003,13.457749203714942,1.0499965506320723,1.0875593794315042,-336.30355150220146,5.861678695371992,-399.577129927251
5.47026372900001,21.879969854399995,0.021535403399999997,1.5984054967999999,-179.83,-0.56,-292.53000000000003,16.826637463988966,0.6386120917392434,1.2918978263789023,-273.71413090132086,3.2930072172231957,-356.75827795635064
5.482001818000015,23.980868097199995,-1.5505490447999999,3.9864424516,-66.08000000000001,-8.89,-203.49,19.688329717273376,-0.2370523628764539,2.3697156764673415,-190.6604785407925,-1.5801956696660835,-295.45096677381036
5.493932909000023,22.784456797199997,-3.1752755902,7.6067830453999985,33.46,-33.53,-151.48000000000002,20.926780549244025,-1.4123416538058724,4.464542624040405,-101.01228712447549,-14.360117401799654,-237.86258006428622
5.5059730009999726,21.2745857366,-3.1776684127999997,10.16949605,77.7,-65.31,-117.95000000000002,21.065902624186418,-2.1184723574035234,6.746523994424242,-29.52737227468529,-34.740070441079794,-189.8975480385717
5.516649082000015,19.884355806,-2.8809584104000003,10.2077812116,93.66000000000001,-85.61000000000001,-89.81,20.59328389691185,-2.423466778602114,8.131026881294547,19.74757663518883,-55.08804226464789,-149.86252882314304
5.528781174000017,18.6903373286,-3.0675985731999997,9.308079914,88.97000000000001,-92.47000000000001,-59.57000000000001,19.83210526958711,-2.681119496441268,8.601848094376725,47.43654598111331,-70.04082535878872,-113.74551729388583
5.5412422690000085,17.1182528804,-4.398007938799999,7.453642399,60.690000000000005,-68.18,-46.410000000000004,18.746564313912266,-3.3678748733847605,8.142565816226035,52.737927588667986,-69.29649521527324,-86.81131037633149
5.552358353999978,15.862021015399998,-4.4458643908,6.2117674696,17.01,-13.510000000000002,-42.14,17.59274699450736,-3.799070680350857,7.370246477575622,38.44675655320079,-46.98189712916394,-68.94278622579888
5.562473431000001,13.517054867399999,-5.553741254599999,4.235296001999999,-28.770000000000003,26.390000000000004,-38.99,15.962470143664413,-4.500938910050514,6.116266287345374,11.560053931920475,-17.63313827749836,-56.96167173547934
5.5756935320000025,11.306086784999998,-7.3890361888,1.0217352502,-51.730000000000004,50.75000000000001,-32.550000000000004,14.099916800198647,-5.656177821550308,4.0784538724872235,-13.755967640847718,9.720117033500985,-47.1970030412876
5.585886608999999,8.6524465216,-8.800801522799999,-0.9188438783999999,-32.06,54.25000000000001,-22.96,11.920928688759188,-6.914027302050185,2.079534772132334,-21.077580584508635,27.53207022010059,-37.50220182477256
5.597262695999973,6.3481583578,-9.343972252999999,-1.6941184008,14.21,48.440000000000005,-13.23,9.691820556375513,-7.88600528243011,0.5700735029594003,-6.96254835070518,35.89524213206035,-27.793321094863536
5.6099797929999795,5.900700531599998,-8.745766602999998,-1.4380863825999999,57.330000000000005,38.50000000000001,-8.190000000000001,8.175372546465306,-8.229909810658068,-0.2331904512643598,18.754470989576898,36.93714527923621,-19.95199265691812
5.622113884999976,5.5728838354,-7.6115686905999995,-0.5838487144,77.77000000000001,35.0,-3.43,7.134377062039184,-7.98257336263484,-0.3734537565186159,42.36068259374615,36.16228716754172,-13.343195594150872
5.6337249740000175,4.905286329999999,-6.7381884416,0.24406790519999996,75.53,35.980000000000004,-4.0600000000000005,6.24274076922351,-7.484819394220903,-0.12644509183116953,55.62840955624769,36.089372300525035,-9.629917356490523
5.645376061999968,4.8717868136,-5.776273756399999,0.9690931529999999,63.14000000000001,42.00000000000001,-8.190000000000001,5.694359186974108,-6.801401139092543,0.3117702061012983,58.63304573374862,38.45362338031502,-9.053950413894315
5.657323152999993,4.9220360882,-5.324030284999999,1.4428720278,34.300000000000004,46.13,-8.96,5.3854299474644645,-6.210452797455526,0.7642109347807788,48.89982744024917,41.52417402818902,-9.016370248336589
5.66991724899998,4.259224228,-5.5609197223999995,1.8999011443999998,20.090000000000003,42.84,-16.1,4.934947659678678,-5.950639567433315,1.2184870186284673,37.375896464149506,42.05050441691341,-11.849822149001954
5.682045341999981,4.390829471,-5.312066171999999,2.0602202586,13.3,32.480000000000004,-0.28,4.717300384207207,-5.695210209259988,1.5551803146170802,27.745537878489703,38.222302650148045,-7.221893289401172
5.69424843500002,4.3214376156,-5.3024948815999995,2.0506489682,15.47,16.66,-13.510000000000002,4.5589552767643235,-5.5381240781959935,1.7533677760502486,22.835322727093825,29.597381590088826,-9.737135973640704
5.705224518000023,4.3860438258,-5.2689953651999994,2.0793628394,20.51,5.250000000000001,-10.99,4.489790696378594,-5.430472592997595,1.883765801390149,21.905193636256293,19.8584289540533,-10.238281584184424
5.718515619000016,4.560719875599999,-5.422136011599999,2.3641087288,25.900000000000002,-2.5900000000000003,-5.8100000000000005,4.518162368067156,-5.427137960438558,2.0759029723540894,23.50311618175378,10.879057372431978,-8.466968950510655
5.730682711999975,4.606183505,-5.6685967394,2.9886354273999993,23.660000000000004,-10.010000000000002,-6.44,4.553370822840293,-5.5237214720231345,2.440995954372453,23.56586970905227,2.5234344234591854,-7.656181370306392
5.742329800999983,4.9483571367999994,-5.8193445632000005,3.4217363179999998,15.400000000000002,-15.47,-10.22,4.7113653484241755,-5.641970708493881,2.833292099823472,20.299521825431363,-4.67393934592449,-8.681708822183836
5.753551885999968,5.651846981199999,-5.797809159799999,3.7328032559999995,0.07,-17.71,-13.930000000000001,5.087558001534505,-5.7043060890163275,3.1930965622940826,12.207713095258818,-9.888363607554695,-10.781025293310304
5.765461976999973,6.206981824400001,-5.778666578999999,3.5485559157999993,-14.21,-21.000000000000004,-18.41,5.535327530680703,-5.734050285009798,3.3352803036964493,1.64062785715529,-14.333018164532817,-13.832615175986183
5.7765550610000105,6.9367927173999995,-5.716453191399999,3.1680971224,-26.46,-25.130000000000003,-22.330000000000002,6.095913605368422,-5.727011447565878,3.26840703117787,-9.599623285706828,-18.651810898719692,-17.23156910559171
5.787923148000004,7.566105061199999,-6.077769404,2.3449661479999997,-25.410000000000004,-29.19,-21.770000000000003,6.683990187701053,-5.867314630139528,2.8990306779067216,-15.9237739714241,-22.867086539231817,-19.046941463355026
5.799938240000017,8.7314096674,-5.525027383399999,2.1846470337999997,-14.070000000000002,-29.120000000000005,-18.62,7.502957979580631,-5.730399731443716,2.6132772202640333,-15.182264382854461,-25.36825192353909,-18.876164878013018
5.811523328000021,10.269994599199999,-5.7140603688,3.0029923629999997,0.7000000000000001,-24.71,-12.250000000000002,8.609772627428377,-5.723863986386229,2.7691632773584196,-8.829358629712676,-25.10495115412346,-16.22569892680781
5.8228204139999775,12.0406833232,-4.9483571367999994,4.465006971599999,10.57,-0.8400000000000001,-6.44,9.982136905737026,-5.4136612465517375,3.447500755055052,-1.069615177827604,-15.398970692474075,-12.311419356084688
5.83454750300001,14.076975355799998,-4.4171505196,4.7641097966,11.760000000000002,-10.780000000000001,1.9600000000000002,11.620072285762214,-5.015056955771041,3.9741443716730314,4.062230893303438,-13.551382415484444,-6.602851613650811
5.845549586999994,18.357734987199997,-2.0099709839999997,5.326423107599999,24.64,-1.2600000000000002,38.57,14.31513736633733,-3.813022567062625,4.515055866043818,12.293338535982064,-8.634829449290667,11.466289031809517
5.8579046809999795,21.4540474316,0.057427742399999995,6.687939167,70.7,5.390000000000001,110.67000000000002,17.1707013924424,-2.264842443277575,5.3842091864262915,35.656003121589244,-3.0248976695743997,51.14777341908572
5.868942764999986,24.193829308599998,1.698904046,7.188039090399999,125.65,1.1900000000000002,169.89000000000001,19.979952558905435,-0.679343847566545,6.105741148015775,71.65360187295354,-1.3389386017446396,98.64466405145144
5.880955857000004,25.581666416599994,2.1631116304,9.1381895094,191.52,-0.35000000000000003,238.63000000000002,22.220638101983265,0.45763834362007305,7.318720492569465,119.60016112377214,-0.9433631610467837,154.6387984308709
5.891317935000018,27.309284333799997,1.9980068709999999,10.0474620974,208.74,8.260000000000002,283.99,24.256096594709955,1.0737857545720437,8.410217134501679,155.2560966742633,2.7379821033719303,206.37927905852254
5.900968008999996,29.2833629788,2.2253250179999995,9.473184673399999,199.22000000000003,22.26,309.89000000000004,26.267003148345967,1.5344014599432263,8.835404150061006,172.84165800455798,10.54678926202316,247.78356743511358
5.911537088999978,31.0923368644,1.9310078382,7.477570624999999,188.16000000000003,29.890000000000004,344.89000000000004,28.19713663476758,1.6930440112459355,8.292270740036603,178.96899480273478,18.284073557213897,286.62614046106813
5.924507188000007,34.097722049999994,1.8544375149999999,4.1491543884,206.22000000000003,18.69,422.66,30.557370800860546,1.7576014127475612,6.635024199381961,189.86939688164088,18.44644413432834,341.0396842766409
5.936534279999989,35.473595044999996,1.4883356572,0.8327022647999999,278.39000000000004,-30.94,463.82000000000005,32.52386049851633,1.6498951105285364,4.314095425549176,225.27763812898456,-1.3081335194029988,390.1518105659846
5.948347370000022,34.2125775348,0.9475577495999999,-4.553541407799999,385.84000000000003,-67.41000000000001,517.5100000000001,33.1993473130298,1.368960166157122,0.7670406922095057,289.5025828773907,-27.748880111641807,441.0950863395908
5.959583454999972,32.1260362276,6.6209401342,-7.1593252192,503.44000000000005,-80.08000000000001,548.8000000000001,32.77002287885788,3.4697521533742726,-2.4035056723542962,375.0775497264345,-48.68132806698508,484.1770518037545
5.970632539999997,27.4552465124,12.3852497776,-7.283751994399999,555.6600000000001,-65.24000000000001,571.34,30.644112332274723,7.035951203064563,-4.355604201172579,447.3105298358607,-55.30479684019105,519.0422310822527
5.981577623000021,19.788642902,21.418155092599996,-6.0705909361999995,552.58,-13.650000000000002,588.07,26.301924560164835,12.788832758878735,-5.041598895183546,489.4183179015164,-38.64287810411464,546.6533386493516
5.9933607130000155,6.477370778199999,26.282763438399996,-6.879364975,498.12000000000006,45.85,606.97,18.3721030473789,18.186405030687244,-5.776705327110128,492.8989907409098,-4.845726862468779,570.780003189611
6.005316804000017,-11.4927269478,21.1908369456,-6.0203416616,478.73,44.45,584.7800000000001,6.4261710493073405,19.388177796652347,-5.874159860906076,487.2313944445459,14.872563882518735,576.3800019137667
6.016421887999968,-22.272392760799995,25.0145674604,-6.0969119848,523.5300000000001,-11.340000000000002,525.0,-5.053254474735597,21.638733662151406,-5.963260710463645,501.7508366667276,4.38753832951124,555.82800114826
6.028039976999992,-33.7651197086,26.6105801346,-16.9387911854,569.73,-38.85,495.46000000000004,-16.53800056828136,23.627472251130843,-10.353472900438188,528.9425020000366,-12.907477002293257,531.6808006889561
6.03996706800001,-38.2899472452,38.014772646199994,-19.240686526599998,695.2400000000001,33.88,468.23,-25.238779239048814,29.382392409158502,-13.908358350902912,595.461501200022,5.807513798624049,506.30048041337363
6.0520561600000065,-41.96771558139999,56.523255457199994,0.18664016279999998,849.45,147.77,566.72,-31.930353775989293,40.2387376283751,-8.270358945421748,697.0569007200132,62.592508279174446,530.4682882480241
6.063850249999973,-56.2744019068,54.5396055218,48.17709022839999,822.71,216.86,620.0600000000001,-41.667973028313575,45.959084785745056,14.308620724106952,747.3181404320079,124.29950496750469,566.3049729488146
6.0758183410000015,-69.12385926879999,29.883961451399998,78.3984396664,334.32000000000005,246.75000000000003,443.80000000000007,-52.65032752450815,39.52903545200704,39.94454830102417,582.1188842592047,173.27970298050283,517.3029837692887
6.088177434999977,-68.54958184479999,-23.420947608799995,47.8636304678,-381.78000000000003,88.9,-9.38,-59.010029252624875,14.349042227684219,43.1121811677345,196.55933055552282,139.5278217883017,306.6297902615732
6.1002765270000054,-40.1467775828,-10.884950007399999,-3.6107693033999997,-599.5500000000001,-97.44000000000001,-396.20000000000005,-51.46472858469493,4.255445333650531,24.423000979280694,-121.88440166668633,44.740693072981,25.497874156943904
6.112309618999973,-2.9886354273999993,10.8299150876,-42.57309969919999,-511.00000000000006,-148.96,-331.8,-32.074291321776954,6.88523323523032,-2.375439292111581,-277.5306410000118,-32.73958415621141,-117.42127550583368
6.12350070399998,18.891334427,13.890335192999999,-31.128229203399997,-14.490000000000002,-85.75000000000001,-108.29,-11.688041022266171,9.687274018338192,-13.876555256626947,-172.3143846000071,-53.943750493726846,-113.76876530350022
6.135515795000003,13.2418802684,16.0821606946,-6.891329088,340.27000000000004,-57.61000000000001,22.19,-1.7160725059997042,12.245228688842914,-11.082464789176168,32.719369239995764,-55.410250296236114,-59.38525918210012
6.147847888999991,9.1860459614,25.636701336399998,15.627524400599999,355.18,18.200000000000003,94.92000000000002,2.6447748809601777,17.60181774786575,-0.3984691132657008,161.70362154399746,-25.966150177741664,2.336844490739933
6.159842980999997,-0.6867400861999999,20.166708872799994,21.887148322199998,71.33000000000001,93.45,45.85,1.3121688940961063,18.62777419783945,8.515777860920581,125.55417292639848,21.800309893355006,19.74210669444396
6.1716730709999865,-6.451049729599999,10.537990730399999,19.0157612022,-107.94000000000001,69.65,24.570000000000004,-1.7931185553823366,15.391860810863669,12.71577119743235,32.15650375583908,40.94018593601301,21.67326401666638
6.183054157000015,-9.583254513,-0.7537391189999999,7.637889739199999,-102.55000000000001,-7.910000000000001,27.37,-4.909172938429402,8.933620838918202,10.684618614139408,-21.726097746496556,21.4001115616078,23.951958409999826
