time,aX,aY,aZ,gX,gY,gZ,faX,faY,faZ,fgX,fgY,fgZ
0.13451442600000973,8.985048863,-1.1318050897999998,1.8616159827999998,-2.24,-6.16,0.14,8.83513852711,-0.7311269454299999,2.1397816100499996,0.8154999999999998,-3.8850000000000007,-2.9750000000000005
0.14449938400002793,9.104689993,-1.8281164663999998,1.9214365477999997,0.21000000000000002,-3.5700000000000003,-1.8200000000000003,8.8510507974,-0.78939217574,2.1272192913999994,0.476,-4.0845,-2.6075000000000004
0.15430134199993972,9.104689993,-1.4404792052000002,2.0003996936,2.31,-1.54,-3.22,8.857272136159997,-0.83210405915,2.1201604647299996,0.4095,-4.1755,-2.3240000000000003
0.16377930199996626,9.162117735399999,-1.3280165429999997,1.9645073545999996,3.7100000000000004,-1.1900000000000002,-4.970000000000001,8.869834454809999,-0.86703926911,2.1153748195299995,0.46550000000000014,-4.207,-2.1699999999999995
0.17350925999994615,9.2554378168,-1.2490533971999997,2.0051853388,5.390000000000001,-0.56,-6.720000000000001,8.891489499339997,-0.89934237421,2.10759814608,0.6545,-4.179,-2.163
0.18199222399994142,8.662017811999998,-0.9643075077999999,2.0410776778,3.8500000000000005,1.33,-7.98,8.882755696849996,-0.9176474670999999,2.09814649681,0.7665000000000001,-4.0635,-2.2855
0.19062318700002834,9.3415794304,-1.3184452525999997,2.4430718745999997,1.8200000000000003,4.2700000000000005,-7.630000000000001,8.909076745449998,-0.9540183706200001,2.10891419851,0.8225000000000001,-3.773000000000001,-2.422
0.19920715099999597,9.4444708022,-1.2442677519999998,2.4454646972,-1.12,4.0600000000000005,-8.89,8.941619132809997,-0.98237331843,2.1186051300399997,0.7455,-3.4790000000000014,-2.6635
0.20789211399994656,9.384650237199999,-1.1916256548,1.9836499353999997,-4.550000000000001,2.9400000000000004,-10.290000000000001,8.969974080619997,-1.00450692748,2.10532496461,0.5355000000000001,-3.2165000000000012,-2.989
0.2166020769999477,10.162317582199998,-0.9260223461999999,1.8472590472,-5.74,8.89,-14.000000000000002,9.037451677939996,-1.0131210888399997,2.0865413072,0.31499999999999995,-2.646000000000001,-3.5245000000000006
0.22551903900000525,9.0759761218,-1.0791629926,1.9453647737999997,-2.3800000000000003,3.8500000000000005,-11.9,9.052765742579998,-1.0308279760799999,2.07038975465,0.2904999999999999,-2.254000000000002,-3.986500000000001
0.23495399799992356,9.518648302799999,-1.0959127508,2.1032910653999997,-6.790000000000001,2.9400000000000004,-13.790000000000001,9.091050904179998,-1.04937235123,2.06069882312,-0.02450000000000001,-1.8865000000000003,-4.581500000000001
0.2480899419999787,9.559326287,-0.8685946038,2.1032910653999997,-7.490000000000001,5.8100000000000005,-15.610000000000001,9.134480634369998,-1.06277215779,2.0475382988199997,-0.546,-1.3230000000000004,-5.309500000000001
0.2589688959999421,9.6454679006,-0.5647061335999999,2.1463618722,-8.190000000000001,6.23,-14.700000000000001,9.178987134729999,-1.06516498039,2.04694009317,-1.0290000000000001,-0.7525000000000001,-6.009500000000001
0.2700828490000049,9.8057870148,-0.40677984199999995,2.0985054202,-4.340000000000001,6.370000000000001,-10.22,9.22768107464,-1.0521240972199997,2.04119731893,-1.288,-0.1540000000000002,-6.4925000000000015
0.2809408019999182,9.7962157244,-0.44027935839999993,2.0434705004,-2.87,5.8100000000000005,-7.07,9.278049990369999,-1.0360921857999998,2.04035983102,-1.4735000000000003,0.46550000000000064,-6.856500000000001
0.2918277559999751,9.8057870148,-0.7226324252,2.0267207422,-2.0300000000000002,7.000000000000001,-6.510000000000001,9.330572446439998,-1.03405828659,2.03820629068,-1.6555000000000004,1.1969999999999998,-7.210000000000001
0.30330270699994344,9.722038223799998,-1.1078768637999998,2.2085752598,-1.33,7.3500000000000005,-5.880000000000001,9.374480741149998,-1.04602239959,2.0488543512499997,-1.7325,1.9460000000000002,-7.535500000000001
0.3137846619999891,9.7842516114,-0.9451649269999999,2.1008982428,-0.14,8.260000000000002,-9.520000000000001,9.41563728987,-1.04470634716,2.0577077948699998,-1.687,2.7440000000000007,-8.015
0.32396661899997525,9.530612415799999,-1.1485548479999999,2.141576227,-1.05,9.030000000000001,-10.430000000000001,9.442556544119999,-1.05009019801,2.07158616595,-1.6485000000000003,3.556000000000001,-8.550500000000001
0.33426557500001763,9.518648302799999,-1.0528419439999999,2.2420747762,0.0,10.080000000000002,-10.64,9.469236516109998,-1.04614204072,2.09060910562,-1.5365000000000004,4.368,-9.089500000000001
0.34348153600001297,9.475577496,-0.8781658942,2.3425733254,3.22,10.430000000000001,-10.64,9.487780891259998,-0.9986445121099999,2.1116659444999994,-1.3860000000000006,5.0680000000000005,-9.5305
0.35263249699994503,9.4468636248,-0.7130611348,2.3473589705999998,7.630000000000001,12.040000000000001,-9.520000000000001,9.50488957285,-0.96227360859,2.1290139083499993,-1.1199999999999999,5.747000000000002,-9.8455
0.36521944300000087,9.317651204399999,-0.6436692794,2.5052852621999997,10.010000000000002,13.3,-7.840000000000001,9.512666246299998,-0.92805624541,2.1560528037299997,-0.8049999999999999,6.471500000000002,-9.989
0.3755713990000231,9.0831545896,-0.6987041992,2.6560330859999994,10.290000000000001,11.13,-6.65,9.50405208494,-0.90053878551,2.1885951910899997,-0.5599999999999998,7.056000000000002,-9.9855
0.3861093539999274,8.817551280999998,-1.2059825903999999,2.8881368781999996,10.71,7.98,-5.180000000000001,9.511828758389997,-0.9126225396400001,2.2309481511099998,-0.21699999999999992,7.3885000000000005,-9.8455
0.3968043080000143,8.915657007599998,-0.39481572899999995,2.8402804261999997,9.73,4.550000000000001,-4.62,9.490532637249999,-0.8664410634599999,2.2508085786899996,0.1785000000000002,7.402500000000001,-9.695
0.4072392639999407,8.7361953126,-0.5240281494,2.8019952645999995,4.62,2.1,-3.2900000000000005,9.455118862769998,-0.83042908333,2.26863510706,0.4655000000000003,7.304500000000002,-9.415000000000001
0.41746421999994254,8.6644106346,-0.3493520996,2.7613172804,-17.64,0.7000000000000001,-2.0300000000000002,9.419106882639998,-0.7883154055699999,2.30751847431,-0.1889999999999999,7.1925,-9.001999999999999
0.4277691759999698,8.475377649199999,-0.4450650036,2.7373890543999995,-1.4700000000000002,-1.33,-0.49000000000000005,9.33475988599,-0.76426753844,2.3520249746700004,0.02450000000000021,6.6815,-8.326500000000003
0.43824113199991643,8.4634135362,-0.39481572899999995,2.6727828442,-1.4700000000000002,-3.08,0.56,9.304131756709998,-0.7300501752599998,2.38839587819,0.06999999999999998,6.335,-7.703500000000001
0.44884508699999515,8.3844503904,-0.36610185780000004,2.6177479243999993,-1.05,-4.48,1.33,9.247421861089999,-0.6935596306099998,2.41411872114,0.35699999999999954,5.964,-6.947500000000001
0.45916404299998703,8.3342011158,-0.3565305674,2.5698914723999993,17.71,-5.74,3.5000000000000004,9.186165602529998,-0.66795642879,2.43744874149,1.6169999999999998,5.386500000000001,-5.992000000000002
0.4695039989999259,8.3102728898,-0.28474588939999995,2.5794627627999995,1.2600000000000002,-6.44,5.390000000000001,9.119405851989997,-0.6539584165799999,2.45910378602,2.0895,4.753000000000001,-4.987500000000001
0.4800009539999337,8.1930245824,-0.32303105099999996,2.5268206656,1.4700000000000002,-7.7700000000000005,7.7700000000000005,9.038767730369997,-0.64977097703,2.4805195482899998,2.38,4.046,-4.088000000000002
0.4899499109999397,8.1547394208,-0.2895315346,2.6656043763999993,1.9600000000000002,-9.940000000000001,11.270000000000001,8.956693915189998,-0.6422335858399999,2.5116262420899997,2.6215,3.2585000000000006,-3.171000000000001
0.4999938689999226,8.0805619202,-0.45702911659999995,2.6799613119999997,2.5200000000000005,-10.500000000000002,15.190000000000001,8.87043266046,-0.6289534204099999,2.5442882705799996,2.8490000000000006,2.3835000000000006,-2.086000000000001
0.510368824000011,7.944171031999999,-0.6723831505999999,2.7062823605999995,1.1900000000000002,-12.600000000000001,17.71,8.78153930087,-0.60717873475,2.5691736256199995,2.9750000000000005,1.3859999999999997,-0.9065000000000009
0.5211457780000046,7.781459095199999,-0.9140582331999999,2.7254249414,-2.1700000000000004,-15.330000000000002,18.69,8.681399675060002,-0.6056234000599999,2.6003999605499994,2.8735000000000004,0.20649999999999996,0.5039999999999999
0.5320667319999757,7.7742806274,-0.9116654106,2.6871397797999994,-3.8500000000000005,-16.73,19.740000000000002,8.593583085640002,-0.5937789281899999,2.6276781381899994,2.7335000000000003,-1.0815000000000001,2.0125
0.5424966869999253,7.795816030799999,-0.8662017812,2.6177479243999993,-4.48,-18.270000000000003,22.400000000000002,8.507441472040002,-0.5844469200500001,2.6464617955999996,2.5095,-2.4989999999999997,3.6645000000000003
0.5528046439999343,7.767102159599999,-0.8255237969999999,2.5770699402,-5.74,-20.23,26.110000000000003,8.42201770522,-0.58181481519,2.6581866263399996,2.0614999999999997,-4.032,5.502000000000001
0.563481597999953,7.7048887719999986,-0.7369893607999999,2.5674986497999996,-5.670000000000001,-23.1,30.03,8.334918962580002,-0.5830112264899999,2.6691936103,1.3965,-5.7890000000000015,7.479500000000002
0.5735205549999591,7.616354335799999,-0.5814558918,2.6321048599999997,-6.0200000000000005,-26.880000000000003,33.88,8.249854119150001,-0.5799005571099999,2.6755345901899994,0.5949999999999998,-7.798,9.5655
0.5846805080000195,7.680960546,-0.4019941968,2.823530668,-4.0600000000000005,-29.470000000000002,38.92,8.17974441697,-0.56506505699,2.6839094692899996,-0.12250000000000014,-9.828000000000001,11.844
0.5949284639999632,7.8173514342,-0.1698904046,2.763710103,-0.9100000000000001,-32.900000000000006,43.96,8.129734424629998,-0.5132604476999999,2.67768813053,-0.7035000000000002,-11.872000000000002,14.300999999999998
0.6053674199999932,8.3700934548,-0.23688943739999999,2.7828526837999994,-17.78,-38.92,47.46000000000001,8.102456246989998,-0.5053641331199998,2.674816743409999,-2.0789999999999997,-14.0455,16.905
0.615719375000026,8.5758761984,0.19381863059999999,2.7134608283999992,-0.8400000000000001,-38.78,57.540000000000006,8.09444029128,-0.46947179411999995,2.6703900216,-2.3520000000000003,-16.089499999999997,19.9465
0.6257303329999786,9.2171526552,0.5096712138,2.2181465501999997,-1.7500000000000002,-44.24,63.84,8.12207739231,-0.42652062845000005,2.64323148509,-1.5575000000000003,-18.3365,23.240000000000002
0.6359252889999425,10.057033387799999,1.2586246875999998,1.8472590472,-1.4700000000000002,-47.11000000000001,72.52000000000001,8.201160179240002,-0.3413361438900001,2.598724984729999,-1.5575,-20.6255,26.890499999999996
0.6466082439999354,11.2749800912,2.1798613885999996,1.7180466268,-0.6300000000000001,-47.11000000000001,85.33000000000001,8.341738506990001,-0.21260228801000008,2.55098817386,-1.5155,-22.827000000000005,31.129
0.6569772000000285,12.055040258799998,3.4648071248,2.1798613885999996,10.71,-36.96,103.81000000000002,8.52526800041,-0.02105683888000003,2.52909384707,-0.9275,-24.451,36.253
0.6675241550000237,15.1800665744,5.240281494,2.6416761503999995,41.370000000000005,-12.670000000000002,120.33000000000001,8.86756127334,0.25878376419000004,2.53268308097,0.25549999999999995,-24.797500000000003,42.094500000000004
0.6781291089999968,17.4939260286,7.367500785399999,3.0843483314,88.76,20.580000000000002,137.76000000000002,9.32674393028,0.64139609793,2.5579273594000003,4.6305,-23.446500000000007,48.71300000000001
0.688424065999925,20.563917424400003,9.365507656399998,3.9218362414,133.98000000000002,60.27,151.06,9.945288572379999,1.1258230332999999,2.6276781381900003,11.256,-20.044500000000003,55.87750000000001
0.6990950199999588,23.808584869999994,10.664810328200002,3.8069807566,161.77,95.34,169.68,10.727980844840001,1.6735401264399996,2.6847469572,19.246500000000005,-14.780500000000007,63.798000000000016
0.709594974999959,25.198814800599997,11.851650337799999,4.2807596314,155.61,114.52000000000001,184.94000000000003,11.583893488860001,2.28897409916,2.7647868731700003,26.901,-8.529500000000006,72.28550000000001
0.7199369310000066,27.933811032399998,12.330214857799998,4.6372901988,133.56,132.23000000000002,196.21,12.583375488880002,2.93910399958,2.8613372650800004,33.51950000000001,-1.2880000000000038,81.21050000000001
0.7302948870000137,28.941189346999998,12.090932597799998,3.5772697869999996,104.65,138.46,217.56000000000003,13.64136200147,3.5893535411299995,2.90392950736,38.860499999999995,6.401499999999999,91.15400000000001
0.7406418429999349,28.8981185402,10.260423308799998,2.2636101795999997,73.01,144.34,248.85000000000002,14.697553897110001,4.147957977100001,2.8827530273499997,42.703500000000005,14.454999999999998,102.60950000000003
0.7511837979999427,25.9429826292,7.0325056213999995,0.28235306679999994,73.36000000000001,150.43,293.23,15.604912227030002,4.54289334723,2.76598328447,46.5955,22.89,116.15100000000002
0.7614907539999649,24.2225431798,3.1585258319999996,-2.0602202586,142.8,157.92000000000002,349.79,16.427684278039997,4.74209582868,2.53411877453,54.0225,31.797500000000003,132.335
0.7718007099999795,21.221943639399996,0.6221338759999999,-3.4360932536,297.57000000000005,182.70000000000002,387.1,17.10353702141,4.81005199052,2.23393917936,69.1845,42.0875,150.1885
0.7825486639999326,16.0366970652,0.36610185780000004,-3.7663027724,445.76000000000005,221.41000000000003,388.99,17.524554157879997,4.857429878,1.91401879774,91.7735,54.50200000000001,167.94400000000002
0.7929036199999473,11.440084850600002,1.0265208954,-3.194418171,490.00000000000006,247.45000000000002,365.40000000000003,17.712510373109996,4.92885563261,1.6131213557900002,116.47650000000002,68.34800000000001,184.268
0.80354957499992,1.5074782379999998,2.9383861527999997,-2.1559331626,439.25000000000006,242.41000000000003,334.25000000000006,17.397016713299998,5.08426946048,1.3671391925099998,138.4845,82.11350000000002,198.7825
0.8140185299999985,-4.6923251185999995,3.6825539814,-2.7613172804,336.28000000000003,209.16000000000003,333.83000000000004,16.743895784629995,5.280241631420001,1.0899306943,156.18750000000003,94.51750000000001,213.10100000000003
0.8244274859999905,-11.483155657399998,1.4189438018,-5.079962379799999,255.99000000000004,184.24,335.02000000000004,15.740944191839995,5.341497889980001,0.7002595338900003,169.02900000000005,105.66850000000004,226.97500000000005
0.8350144409999984,-18.108881436799997,-0.45463629399999994,-5.2570312522,203.77,179.55,320.11,14.374642487239992,5.293282514590001,0.3265006437700001,179.30500000000004,116.85800000000003,239.78850000000003
0.8451943970000002,-21.635901949199997,0.7369893607999999,-6.1064832752,217.49,193.48000000000002,313.18,12.789995720389996,5.26720074825,-0.07118647235000033,190.25300000000001,128.88750000000002,251.82150000000001
0.8544403579999198,-26.959932234199997,2.4215364712,-6.0705909361999995,299.46000000000004,250.32000000000002,347.69000000000005,10.878250104119996,5.27928450238,-0.4606183504999999,205.25750000000002,143.75900000000007,264.93950000000007
0.8637843179999436,-30.640093393,3.7710884175999997,-4.788038022599999,392.84000000000003,316.82000000000005,369.81000000000006,8.743493421529994,5.294598567020001,-0.8090133210600001,224.36400000000003,161.44800000000004,278.2395
0.8729242790000171,-35.7439839988,3.1417760737999996,-0.7704888771999999,507.78000000000003,362.53000000000003,414.33000000000004,6.197290892869996,5.1896732960100005,-0.9796215724399999,247.6845,180.20800000000003,292.9395
0.881963240999994,-36.988251750799996,2.0626130812,8.724231199599998,617.8900000000001,409.22,445.48,3.473182003900001,4.9244289108,-0.6976274290300001,274.141,199.64000000000004,308.32550000000003
0.8902512050000269,-36.4379025528,-0.6412764567999999,19.7216438692,699.58,427.91,416.57000000000005,0.6230910050400009,4.42408970514,0.09236295236000007,302.42100000000005,218.02200000000008,321.601
0.8986061699999937,-32.57588687639999,0.3062812928,34.4375028592,693.0000000000001,436.52000000000004,295.33000000000004,-2.1961325822799993,3.906163253369999,1.6238890574900005,328.9825,235.08100000000007,327.8835
0.9068511340000214,-28.438696600999997,3.0245277664,34.3705038264,431.90000000000003,473.83000000000004,183.75000000000003,-4.878008152359998,3.4648071247999987,3.1283762672399997,342.797,253.04650000000007,327.82400000000007
0.9182410859999663,-31.633114771999995,-5.9126646445999995,31.295726785399996,-51.660000000000004,51.730000000000004,81.55000000000001,-7.856354442579997,2.55266314968,4.461298096569999,333.536,249.02150000000006,322.091
0.9288730409999744,-14.500504955999999,-8.262416437799999,23.050060105799997,-348.88000000000005,-144.97000000000003,-74.27000000000001,-10.028439157729998,1.5349956979000001,5.43493761251,310.8595,234.85,307.4995
0.9401079929999696,-10.8705930718,-6.884150620199999,10.348957744999998,-390.46000000000004,-251.44000000000003,-195.44000000000003,-12.016874738329998,0.6777670014500001,5.839204990779999,287.68600000000004,215.061,285.285
0.9505989479999926,-6.989434814599999,-1.8017954178,5.082355202399999,-252.28000000000003,-218.61,-196.00000000000003,-13.663495610519997,0.23605194948999975,6.079205097559999,271.40400000000005,196.60900000000004,260.82349999999997
0.9610879030000206,-6.728617151199999,1.1772687192,3.2877382523999996,-70.63000000000001,-141.26000000000002,-160.51000000000002,-15.211053627069996,0.13698909384999983,6.346603023109999,260.7325,181.64999999999995,235.3085
0.970933860999935,-7.4153572373999985,2.6297120374,3.7136606751999994,30.590000000000003,-80.85000000000001,-141.82000000000002,-16.642918670909996,0.23736800191999982,6.70409071955,247.3835,168.47249999999997,208.8625
0.9828488109999398,-8.796015877599999,2.7589244577999996,6.1686966628,-2.24,-53.410000000000004,-149.03,-17.884554318049993,0.35700913191999994,7.200840691309999,224.98350000000005,154.73149999999998,181.96150000000003
0.9933747659999881,-10.198209921199998,1.9692929997999997,8.7529450708,-60.970000000000006,-64.26,-179.76000000000002,-18.966469056639994,0.4041477371399999,7.7982088534,197.43500000000003,139.146,154.70349999999996
1.0036047219999773,-10.839486377999998,1.4620146085999999,9.8608219346,-122.15,-102.41000000000001,-207.06000000000003,-19.58381728743999,0.3303291599299999,8.39904660826,169.36500000000004,121.905,127.63799999999999
1.013341680999929,-10.310672583399999,1.9525432415999997,9.731609514199999,-176.26000000000002,-129.71,-227.29000000000002,-19.864734660679993,0.24382862294000002,9.02369294799,143.738,104.9615,99.582
1.0247326319999956,-8.757730716,1.9549360641999998,8.0733834524,-195.58,-141.96,-232.12000000000003,-19.728463413609994,0.27062823606,9.6813602396,121.15950000000001,88.65149999999996,71.22499999999997
1.0352035869999554,-7.190431912999999,1.0193424276,7.046862557,-218.68,-136.85000000000002,-227.43000000000004,-19.182540937419994,0.34432717214,10.296554930060001,100.03700000000002,72.83149999999998,43.848
1.045768542000019,-5.252245607,-0.36370903520000003,6.728617151199999,-243.81000000000003,-117.04,-234.99,-18.363358120309996,0.28929225234,10.93830995138,76.97200000000001,57.30549999999998,16.439500000000017
1.0560524989999749,-4.816751893799999,-2.5339991334,5.9150574672,-284.20000000000005,-85.12,-254.03000000000003,-17.256199103289994,0.04151547211000006,11.537592371550002,47.78900000000002,40.53349999999999,-13.646499999999998
1.066681453000001,-5.4891350444,-5.855236902199999,6.0610196458,-339.01000000000005,-61.95,-285.32000000000005,-15.998651185859998,-0.4398007938799998,12.08004525497,11.196499999999983,21.595000000000006,-46.403000000000006
1.0767374099999643,-4.4362931003999995,-6.783652071,7.221538606799999,-397.25000000000006,-60.690000000000005,-321.44000000000005,-14.43326664094,-0.9360722011199997,12.479646629170002,-34.05500000000001,0.4339999999999993,-83.19150000000002
1.0885933600000044,-4.1898323726,-6.3936219871999995,8.111668614,-416.57000000000005,-69.86000000000001,-351.40000000000003,-12.793345672029998,-1.3588839545399998,12.44901849989,-85.77799999999999,-23.52,-123.0355
1.099220313999922,-2.5196421977999996,-5.395814963,8.745766602999998,-393.68000000000006,-83.23,-357.35,-11.09743265428,-1.5966108798499996,11.90022463658,-140.44100000000003,-49.07700000000001,-161.73150000000004
1.1096912699999848,-0.24885355039999998,-3.6945180944,8.764909183799999,-353.78000000000003,-99.4,-343.49,-9.481080987979999,-1.7966508492099997,10.61659495281,-192.78000000000003,-75.87300000000002,-193.67250000000004
1.12009922499999,2.4335005842,-3.6035908356,7.733602643199999,-317.38000000000005,-119.35000000000001,-323.82000000000005,-7.93747112872,-2.12805677931,9.284749893649998,-230.24400000000006,-105.532,-219.05100000000002
1.129670185000009,4.1970108404,-2.6799613119999997,6.068198113599999,-295.54,-142.10000000000002,-289.38000000000005,-6.1459648481,-1.96642161268,8.023373460059997,-242.43800000000002,-115.22349999999999,-237.59750000000003
1.1406671380000262,5.606383351799999,-2.2229321954,4.546362939999999,-286.37,-168.49,-285.46000000000004,-5.140620432709999,-1.6644474005599998,7.098188601769998,-239.3125,-116.39949999999999,-248.157
1.150913093999975,6.281159324999999,-2.4885355039999997,3.0699913958,-297.43,-182.63000000000002,-278.25,-4.283032812869998,-1.4446666447499996,6.73424028431,-234.66100000000006,-112.95900000000002,-252.29750000000004
1.1616710480000165,7.1138615898,-1.7587246109999999,2.9240292171999998,-304.57000000000005,-193.41000000000003,-286.3,-3.577867992649999,-1.4425131044099995,6.626323985049998,-237.27550000000005,-111.69900000000003,-256.8125
1.172153003999938,8.0470624038,-0.38045879339999994,2.4861426813999996,-308.35,-197.89000000000001,-287.42,-2.8390840148999983,-1.5203994800399996,6.586244206499998,-249.16150000000002,-114.5305,-263.158
1.1825659589999304,10.0953185494,0.3062812928,0.5120640364,-314.93,-208.04000000000002,-276.78000000000003,-1.9635502255599981,-1.6365710172699999,6.42616437456,-266.4375000000001,-120.89000000000001,-269.90600000000006
1.1929419150000058,11.763115901599999,0.8757730716000001,-0.36849468039999994,-300.93,-216.58,-269.64000000000004,-0.935593636599999,-1.7307285865799997,6.099304807399999,-281.37200000000007,-129.04850000000002,-275.9365
1.2033818699999301,12.760922925799997,2.3114666315999997,-1.0001998468,-261.1,-212.8,-256.62,0.21236300575000006,-1.7136199049899996,5.61164756152,-291.3785000000001,-136.4755,-279.7795
1.213854825999988,13.761122772599998,2.8570301844,-1.1700902514,-200.83,-200.55,-241.36,1.4423934632799995,-1.6438691261999996,5.060101952219999,-295.31250000000006,-141.38250000000005,-281.4945
1.2242917809999199,14.555539875799997,3.6729826909999996,-1.0049854919999999,-151.48000000000002,-184.66000000000003,-209.23000000000002,2.685704086239999,-1.5578471537299994,4.523272201909999,-294.0735000000001,-144.13000000000005,-280.5915
1.234611737000023,14.955141249999999,4.0295132584,-0.45224347139999993,-125.37000000000002,-162.82000000000002,-178.92000000000002,3.871347684539999,-1.4541182940199993,4.09699085572,-290.56300000000005,-145.17300000000003,-277.93149999999997
1.2450486929999443,16.4075845682,3.7998022887999996,0.2943171798,-93.45,-137.41000000000003,-146.93,5.0512485086,-1.3150953009599997,3.75936358686,-284.30150000000003,-145.20100000000002,-273.90650000000005
1.2554136489999337,17.831314015199997,3.2709884942,1.2227323486,-55.790000000000006,-109.48,-120.19000000000001,6.205426489709999,-1.1333604244899995,3.48406934673,-274.9005000000001,-144.82300000000004,-268.16650000000004
1.2658876039999996,17.867206354199997,2.7469603447999997,1.9334006607999998,-17.57,-79.45,-95.83000000000001,7.339624402109999,-0.8693124505799993,3.2849865064099992,-261.569,-144.5395,-260.2565
1.2763055599999689,17.316857156199998,2.1152551784,2.0051853388,9.8,-57.120000000000005,-70.28,8.47992401214,-0.47078784654999983,3.082194791059999,-244.12849999999997,-144.29799999999997,-249.5045
1.2859205190000011,16.249658276599998,1.3615160593999998,2.1798613885999996,16.87,-44.1,-54.11000000000001,9.51422158099,-0.06352944002999962,2.830110930149999,-223.42249999999996,-143.46849999999998,-236.13799999999998
1.29749346899996,15.598810529399998,0.1363908882,2.069791549,6.44,-35.28,-40.25000000000001,10.50365372609,0.2629712037400002,2.528017076899999,-202.27199999999996,-141.7395,-220.58049999999997
1.3077704249999442,13.749158659599999,-1.4979069475999998,1.2370892841999999,-33.53,-34.510000000000005,-38.64,11.31709376896,0.45786660451000005,2.152583210959999,-184.26449999999997,-139.3035,-204.645
1.3179743819999885,11.705688159199998,-2.8737799425999997,0.0789631458,-78.33000000000001,-46.690000000000005,-46.900000000000006,11.91482085444,0.4989035120999999,1.71828590906,-170.49199999999996,-136.668,-189.81550000000001
1.3282273379999197,12.0191479198,-3.7328032559999995,0.37328032559999996,-99.26,-54.60000000000001,-41.650000000000006,12.39410322122,0.49244289107999994,1.3502697931799998,-159.586,-133.4305,-175.70700000000005
1.3392782910000278,10.313065405999998,-4.2544385828,-0.36849468039999994,-99.26,-58.52,-37.03,12.699905949499998,0.41371902753999984,1.02843515348,-149.77200000000002,-129.2515,-163.08950000000004
1.3498942459999625,9.537790883599998,-4.874179636199999,-0.5168496816,-79.03,-50.89000000000001,-36.68000000000001,12.89647632609,0.28115665550000013,0.7752745223999999,-139.40500000000003,-123.37150000000001,-150.65050000000002
1.3604182010000159,9.1716890258,-5.4987063348,-0.3278166962,-47.39000000000001,-33.6,-37.17,13.04100281113,0.13064811396000006,0.6053841178,-126.90300000000005,-115.92,-138.59650000000005
1.3708321569999953,8.8247297488,-5.2977092364,0.6077769404,-16.240000000000002,-11.690000000000001,-42.14,13.126546219079998,-0.04630111731000004,0.4895715039599999,-112.4865,-106.83399999999999,-126.38850000000005
1.3812251119999246,8.755337893399998,-4.1324046302,0.6675975054,14.560000000000002,5.8100000000000005,-47.81,13.161959993559998,-0.2338984091499999,0.39864424515999997,-96.34100000000001,-96.64900000000002,-114.40800000000002
1.3920560660000092,8.5591264402,-2.3904297774,0.8015955709999999,39.830000000000005,3.99,-45.150000000000006,13.085150388099995,-0.36873396266,0.41312082188999993,-78.60300000000001,-86.04750000000001,-102.82650000000001
1.4028380199999901,9.0711904766,-0.4881358103999999,0.7848458127999999,53.760000000000005,-2.9400000000000004,-35.63,12.950554116849997,-0.43692940676,0.47078784654999994,-60.86850000000002,-75.3655,-91.12600000000003
1.413269975999924,10.037890806999998,1.3208380751999997,0.9332008139999999,61.74000000000001,-7.630000000000001,-16.310000000000002,12.81440251091,-0.4864608345799999,0.5674578795899998,-44.7265,-65.10700000000001,-79.11050000000003
1.422464935999983,11.0452691216,3.5485559157999993,0.8925228297999999,76.16000000000001,-5.95,15.540000000000001,12.678609828359999,-0.45188454801000005,0.6705885336499999,-30.877,-55.377000000000024,-66.26550000000002
1.4339188879999938,12.258430179799998,4.938785846399999,1.495514125,107.80000000000001,2.66,64.68,12.563754343559998,-0.3885943902399998,0.7956135145,-17.912999999999993,-46.01100000000001,-52.56999999999999
1.4441068439999754,14.392827938999998,5.7882378694,1.2897313813999998,146.02,5.95,109.27000000000001,12.535638678009999,-0.30065815969000004,0.8827122571399999,-4.343499999999999,-37.57250000000001,-38.16049999999999
1.4544417999999268,17.130216993399998,5.486742221799999,-0.5527420206,218.82000000000002,38.50000000000001,150.22000000000003,12.57177029927,-0.21631116304,0.8403592971199998,11.270000000000005,-28.777000000000015,-23.302999999999987
1.4650457550000056,18.2117728086,6.2955162605999995,1.0456634761999999,204.4,70.07000000000001,157.29000000000002,12.590793238939998,-0.06508477472000025,0.8315058535000001,24.279500000000002,-19.7995,-9.428999999999993
1.4752287119999892,21.0616245252,9.320044027,0.38524443859999996,236.39000000000001,103.53000000000002,163.87,12.750514147489998,0.2635694093899999,0.7540980423899999,36.9775,-10.650499999999997,3.556000000000003
1.4854596679999759,23.392233737599998,10.229316614999998,0.7082754896000001,271.95000000000005,112.91000000000001,173.88000000000002,13.054282976559998,0.6692724812199997,0.6892525499299998,50.085,-2.148999999999996,15.764000000000005
1.496154621999949,25.878376419000002,11.641081949,-0.8638089586000001,325.29,130.62,198.8,13.535718883679996,1.1832507756999995,0.5370690325699999,65.506,6.586999999999999,28.4095
1.5064345779999258,29.3336122534,11.310872430199998,-3.4791640604,368.62000000000006,140.0,233.38000000000002,14.222458969879998,1.7419748527999996,0.2596212520999998,83.61500000000001,15.350999999999999,42.091
1.5167065350000257,31.398618157199998,10.5714902468,-5.2067819775999995,379.40000000000003,167.3,261.66,15.10493194476,2.34544471252,-0.06257231099000002,104.2615,25.441499999999998,57.10600000000001
1.5268174919999637,31.381868399,8.958727814399998,-6.5012990042,375.48,221.62000000000003,282.66,16.088740956749998,2.9370701003699997,-0.39158541848999995,126.952,38.857,73.584
1.5369174489999295,28.5080884564,8.3007015994,-7.046862557,384.86,280.56,299.11,16.91318798358,3.538745343139999,-0.7625925626200001,151.15800000000002,55.61500000000001,90.622
1.5471904049999239,24.9954248796,10.217352501999999,-5.3982077855999995,412.93000000000006,321.44000000000005,340.34000000000003,17.64730595726,4.262334897379999,-1.01407821788,176.7675,74.61300000000001,109.49050000000003
1.5574343609999914,19.0157612022,13.296915188199998,-3.7016965622,453.32000000000005,333.20000000000005,363.23,18.121204473189998,5.170889638599999,-1.17332056191,203.38500000000002,93.81750000000001,129.48600000000005
1.5675473179999244,13.689338094599998,13.749158659599999,-2.8737799425999997,465.50000000000006,330.33000000000004,421.26000000000005,18.34708692663,6.133282888319999,-1.30061872423,229.0295,112.01400000000001,152.40750000000003
1.5782172719999608,3.1489545415999998,10.892128475199998,-2.7326034091999993,444.01000000000005,325.99,455.56000000000006,18.06329816627,6.9427747739,-1.4676377417099997,252.042,128.898,177.29250000000005
1.5885812279999527,-6.6305114246,4.840680119799999,-0.7322037156000001,391.16,312.13000000000005,435.33000000000004,17.29400570037,7.391429011399998,-1.5376278027599999,270.872,144.21400000000003,201.44950000000003
1.5989901839999447,-14.4119705198,1.1365907349999997,-0.3613162126,336.00000000000006,292.53000000000003,369.32000000000005,16.14545085237,7.567780037019999,-1.59577339194,285.68050000000005,158.64100000000002,222.17300000000006
1.6094911389999425,-24.4259331008,-1.6175480775999997,-1.3902299305999999,284.06,267.82000000000005,303.52000000000004,14.470594673499999,7.5113094236599975,-1.7045271791099998,297.1955000000001,172.17900000000003,239.13050000000004
1.6186660999999276,-30.300312583799997,1.9692929997999997,-2.4023938904,281.19000000000005,236.60000000000002,254.94000000000003,12.453684503959996,7.5437321698899975,-1.87130691433,308.168,184.39050000000003,252.69300000000004
1.6287240569999994,-37.0432866706,6.556333923999999,-4.2783668087999995,321.79,223.02,310.66,10.049256714349998,7.694121070299998,-2.12985139626,320.44950000000006,195.83900000000003,267.449
1.638303016000009,-41.012979363999996,8.779266119399999,-2.7924239741999997,386.12000000000006,276.92,386.47,7.38568623716,7.88614508395,-2.3442483012199995,334.36550000000005,209.55200000000005,283.5385
1.6486399719999554,-43.073199622599994,7.3172515107999985,6.704688925199999,511.21000000000004,361.90000000000003,429.59000000000003,4.512384859080001,7.962595766019999,-2.07350042403,352.62500000000006,227.34950000000003,299.5545000000001
1.6592979270000114,-42.8889522824,4.553541407799999,18.764514829199996,586.46,393.19000000000005,394.03000000000003,1.5114263952900004,7.91593572532,-1.1076375815400006,371.00700000000006,245.084,311.745
1.6695168830000284,-35.545379722999996,0.8327022647999999,32.123643404999996,450.80000000000007,335.02000000000004,333.06000000000006,-1.1764312312900007,7.642795025529999,0.44626141489999965,383.327,258.33150000000006,320.53350000000006
1.6798658389999446,-35.901910290400004,-4.264009873199999,35.6865562564,99.12,128.31,154.00000000000003,-4.02460797207,6.963592330519999,2.2113270057899994,376.4635000000001,259.57050000000004,320.0400000000001
1.6906907929999306,-22.0067894522,-11.3395863014,27.857240709200003,-260.61,-81.9,-37.730000000000004,-6.294559131560002,5.885147184699998,3.5687752667699995,349.8355000000001,249.83000000000007,309.45950000000005
1.7007057499999974,-17.82652837,-11.030912185999998,17.455640867,-406.00000000000006,-201.81000000000003,-184.03000000000003,-8.47980437101,4.751547477949999,4.48474775805,313.2710000000001,233.2085000000001,290.3180000000001
1.711160705999987,-14.392827938999998,-4.3573299546,6.640082715,-364.14000000000004,-231.14000000000001,-242.48000000000002,-10.666126380629999,3.968137358709999,4.990710096820001,276.633,214.65150000000008,266.5250000000001
1.7205946650000215,-14.732608748199999,-1.2370892841999999,3.8931223702,-219.38000000000002,-214.06000000000003,-198.8,-12.972687725899998,3.377708382159999,5.4457053142100005,246.69400000000002,195.58350000000002,243.5020000000001
1.729984624999929,-14.562718343599999,-0.9595218625999999,2.883351233,-100.31000000000002,-176.47000000000003,-179.76000000000002,-15.269917063029997,2.881795898309999,5.91493782607,222.9045,175.67900000000003,220.381
1.738331589999916,-14.421541810199999,-1.1054840412,3.5318061576,-29.890000000000004,-151.41000000000003,-170.45000000000002,-17.41639857636,2.41148661628,6.4438712618,202.167,154.08050000000003,196.90300000000008
1.7466135549999535,-14.584253747,-1.2466605746,4.783252377399999,-17.78,-145.74,-183.68,-19.395382507689995,1.8382859624499992,6.95294426995,180.63150000000002,130.72150000000002,170.70200000000006
1.7551025179999442,-14.7828580228,-0.5958128274,5.4053862534,-44.17,-159.95000000000002,-218.40000000000003,-21.085313468939994,1.143649561669999,7.40829841073,155.757,106.06400000000004,141.62050000000005
1.7657364729999472,-15.0723895574,0.5527420206,5.804987627599999,-94.71000000000001,-211.40000000000003,-257.11,-22.523399851539995,0.4838287297199992,7.842236789239999,127.7465,78.9775,107.702
1.775416431999929,-15.206387622999998,2.0434705004,4.924428910799999,-184.03000000000003,-215.95000000000002,-275.73,-23.441166959769994,0.041395830979999534,8.22508840524,96.34450000000001,51.88050000000002,71.1375
1.786599383999942,-14.7565369742,1.1676974288,4.1970108404,-246.26000000000002,-210.14000000000001,-281.75,-23.84746823725,-0.14225330357000038,8.47154913304,64.47350000000002,25.767000000000003,35.28349999999998
1.7967473410000139,-12.7681013936,-0.41635113239999993,3.5796626096,-273.21000000000004,-188.51000000000002,-289.73,-23.765274780939997,-0.21990039694000027,8.668598074150001,34.01299999999998,1.7149999999999892,2.3310000000000004
1.807045296999945,-9.056833540999998,-0.9260223461999999,2.4789642136,-303.66,-159.60000000000002,-314.44000000000005,-22.996819802949997,-0.18532411037000035,8.86205778136,4.627000000000001,-19.656000000000017,-28.567000000000014
1.817218253999954,-6.7764736032,-1.2705888005999997,3.0029923629999997,-371.14000000000004,-137.48000000000002,-336.07000000000005,-21.820627853919994,-0.34731820039000016,9.13232709403,-27.989500000000028,-38.360000000000014,-58.11749999999999
1.8279892079999627,-4.285545276599999,-1.1054840412,4.874179636199999,-431.55000000000007,-123.20000000000002,-357.21000000000004,-20.182740784219995,-0.7304090986500003,9.589954416280001,-65.65650000000002,-55.67100000000001,-91.51100000000001
1.8379651650000142,-2.644068973,-1.1389835575999998,5.666203916800001,-463.61000000000007,-116.9,-391.23,-18.264295264669997,-1.2263215824999998,10.012885810830003,-108.14300000000003,-75.36200000000002,-130.39600000000002
1.847711123999943,-1.7994025952000001,-1.7419748528,6.707081747799999,-479.99000000000007,-126.35000000000001,-382.83000000000004,-16.200605413299996,-1.6792829006799999,10.013005451960002,-157.70300000000003,-99.77450000000002,-171.017
1.857214082999917,-0.07178467799999999,-2.4789642136,5.606383351799999,-476.28000000000003,-137.20000000000002,-384.3,-14.059747033079992,-2.03090818175,9.35509887809,-210.84000000000006,-126.29400000000001,-209.9335
1.867158040999925,4.1587256788,-2.0769700168,4.3334017286,-477.61000000000007,-160.37,-385.42,-12.074541762989998,-2.1763917958300008,7.965586794270003,-257.2605,-151.0635,-245.85750000000002
1.876796000000013,9.1357966868,-1.4500504955999998,2.8187450228,-477.05000000000007,-193.97000000000003,-388.57000000000005,-9.822656414129998,-2.03569382695,6.3221962325900005,-286.069,-167.1775,-272.986
1.8864049589999468,11.184052832399999,0.3062812928,0.8446663778,-455.14000000000004,-213.71,-402.85,-8.1631142999,-1.4534004472399997,4.9715675160199995,-295.79550000000006,-173.76799999999997,-291.2420000000001
1.8959909179999386,12.942777443399999,2.1942183242,-0.5216353268,-438.06000000000006,-232.47000000000003,-411.46000000000004,-6.6246490092300006,-0.7921439217299999,4.07270370633,-297.39850000000007,-175.30100000000002,-302.61350000000004
1.9059328749999622,12.969098492,5.1732824611999995,-0.6915257314000001,-403.69000000000005,-236.46000000000004,-397.67,-5.25655268768,-0.31561330093999995,3.706123284009999,-299.3760000000001,-175.567,-310.37300000000005
1.9159328329999425,13.873585434799999,6.704688925199999,0.37328032559999996,-362.46000000000004,-227.29000000000002,-352.31000000000006,-3.82624297853,0.08147560952999999,3.53013118178,-306.5300000000001,-176.22850000000003,-318.04850000000005
1.9258947899999157,15.991233435799998,6.7932233614,1.1916256548,-291.20000000000005,-207.13000000000002,-283.22,-2.2985453895600014,0.4691128707299999,3.44554490287,-316.07450000000006,-177.7615,-323.22150000000005
1.935633748999976,17.448462399199997,7.2287170746,0.6915257314000001,-226.94000000000003,-204.19000000000003,-235.06000000000003,-0.705045179090001,0.8858229265199998,3.3035308815600004,-325.9270000000001,-180.40050000000002,-326.4520000000001
1.9457897049999247,19.4943257222,7.489534738000001,0.5072783912,-152.11,-191.17000000000002,-186.62,0.9988837943699982,1.3226326921499998,3.08973218225,-332.6435,-182.67200000000005,-326.59900000000005
1.9557536629999959,19.917855322399998,8.171489179,-0.40677984199999995,-119.84000000000002,-173.46,-145.60000000000002,2.7339194616299993,1.7609977924699998,2.7991238774800005,-336.427,-183.34750000000003,-322.9590000000001
1.9655576210000163,20.544774843599996,9.054440718399999,-1.0671988796,-129.99,-152.39000000000001,-119.42000000000002,4.51477768168,2.1860827273599996,2.45551455212,-338.1910000000001,-180.39700000000002,-316.0745000000001
1.9756255779999492,20.396419842399997,9.7603233854,-1.7419748528,-162.47000000000003,-140.42000000000002,-104.37,6.294918054949998,2.57192537161,2.1221943639400007,-337.11300000000006,-176.62050000000002,-307.5065000000001
1.9852795369999967,19.645073546,9.035298137599998,-1.6319050132,-197.96,-129.71,-71.33000000000001,8.014998580959999,2.96530540705,1.8307485712600005,-334.69800000000004,-172.59900000000002,-296.9855000000001
1.9954164939999828,20.7146652482,6.7740807806,-0.40917266459999996,-163.31,-90.79,-27.930000000000003,9.689136913049998,3.3248270026999998,1.6313068075500006,-329.20300000000003,-167.71300000000002,-283.8955000000001
2.004585454999983,20.049460565399997,3.7016965622,0.0263210486,-82.88000000000001,-73.99000000000001,16.310000000000002,11.144451618369999,3.5562129481199998,1.5086746493000003,-318.16400000000004,-163.43250000000003,-267.35800000000006
2.013619415999983,19.025332492599997,1.6677973521999998,-0.10289137179999999,-34.720000000000006,-50.68000000000001,14.350000000000001,12.434541923160001,3.703132255759999,1.35338046256,-301.34299999999996,-159.0925,-249.837
2.02262137799994,18.278771841399998,0.5623133109999999,-0.22013967919999997,-5.180000000000001,-30.240000000000002,14.14,13.562757779059998,3.7865221233699993,1.0986644967900001,-280.02450000000005,-154.4445,-231.26950000000002
2.031023342000026,18.1160599046,0.33738798659999997,-0.33499516399999996,8.75,-9.450000000000001,7.420000000000001,14.600764222939997,3.8603407005799992,0.7986045427500001,-256.4065000000001,-149.072,-211.33699999999993
2.0392233069999293,18.2548436154,1.4811571894,0.6029912951999999,16.380000000000003,10.010000000000002,11.340000000000002,15.603476533469996,4.021497302689999,0.49340002011999984,-231.5880000000001,-142.25399999999996,-191.62849999999997
2.0475822710000102,19.118652574,3.4241291405999994,0.7393821834,45.57000000000001,52.010000000000005,26.040000000000003,16.562998396069997,4.3166519704,0.2500499617,-205.49550000000005,-132.79349999999997,-171.11149999999998
2.0558202359999314,19.9657117744,6.3960148098,2.0530417908,102.13000000000001,62.580000000000005,50.540000000000006,17.353347700849998,4.7403012117299985,0.13603196481,-176.5085,-121.64599999999999,-149.31349999999998
2.064145200999974,20.8701987172,8.930013943199999,2.5866412305999997,171.57000000000002,106.89000000000001,85.26,17.94006780237,5.259304433669999,0.12442677519999996,-144.0775,-106.60299999999998,-125.62199999999999
2.0724201659999153,21.860827273599995,11.241480574799999,3.2925238975999997,242.41000000000003,110.04,125.37000000000002,18.47390652443,5.806064397769998,0.24681965118999996,-109.19999999999997,-90.41549999999997,-99.21099999999998
2.0813451279999526,22.071395662399997,13.052847283,3.1154550251999997,298.55,133.70000000000002,169.54000000000002,18.930337435379997,6.348995845709998,0.4286741687899999,-72.36949999999999,-72.10700000000003,-70.161
2.089840090999928,22.2365004218,14.294722212399998,2.4693929231999996,331.59000000000003,139.79000000000002,215.39000000000001,19.39370753187,6.805067833269999,0.5867201015199999,-35.6055,-53.29450000000003,-39.507999999999996
2.0981460560000187,22.4183549394,13.852050031400001,1.7180466268,337.05,138.74,239.96000000000004,19.820946007099998,7.162435888579999,0.6539584165799999,-0.6300000000000097,-34.99300000000001,-9.894499999999999
2.106469019999963,23.4640184156,13.878371079999999,0.9810572659999999,313.11,141.19000000000003,249.83,20.19458525609,7.516693274509999,0.6434299971399999,29.585499999999996,-17.57700000000001,16.758000000000003
2.114706984999998,25.0002105248,14.5651111662,0.014356935599999999,299.88000000000005,146.79000000000002,267.19,20.57217266237,7.88351297909,0.60957155735,55.92650000000001,-0.028000000000004376,41.87050000000001
2.122940949999929,26.691936103,15.909877467399998,-0.32063822839999995,323.89000000000004,179.06000000000003,299.25000000000006,20.932053181409994,8.304530115560002,0.5681757263699999,79.72650000000002,18.4835,66.16400000000002
2.1313129139999774,26.435904084799997,16.582260618,-0.5575276658,379.96000000000004,210.70000000000002,346.01000000000005,21.257955619529994,8.72506868751,0.56063833518,104.71650000000004,37.691500000000005,90.7445
2.1396708789999366,23.834905918599997,16.725829974,-0.7968099257999999,448.28000000000003,224.42000000000002,396.41,21.422462173279996,9.10863815029,0.5741577828699999,133.63000000000005,56.532000000000004,116.53600000000002
2.1479698429999416,19.1377951548,15.5677038356,-2.3712871966,496.2300000000001,256.62,440.58000000000004,21.359530938899997,9.399007172799998,0.5426921656799999,166.565,76.38400000000001,143.7835
2.1561978080000017,14.086546646199997,13.6558385782,-2.691925425,503.72,281.19000000000005,472.71000000000004,21.08160459391,9.63003419483,0.48969114508999956,201.64900000000003,96.92900000000002,170.9855
2.1644587729999785,7.4177500599999995,11.533404932,-2.6847469571999993,480.76000000000005,298.83000000000004,492.1700000000001,20.416758834499998,9.868000402399998,0.37591243045999995,233.85250000000002,116.41000000000001,196.9905
2.172693738000021,1.4213366244,8.8438723296,-2.1032910653999997,442.33000000000004,310.31,499.94000000000005,19.48535263745,10.125109190769997,0.26943182475999977,260.113,135.625,221.17200000000003
2.181109701999958,-5.5920264161999995,5.2091748002,-1.1270194446,404.53000000000003,308.49,503.09000000000003,18.25448469201,10.302178063169997,0.21822542112000004,282.07550000000003,153.58350000000002,245.609
2.1893346670000255,-13.416556318199998,0.0789631458,-0.19142580799999998,386.05,284.55,481.53000000000003,16.66971828403,10.278010554909999,0.21966111468,301.63700000000006,169.323,268.97850000000005
2.197626631999924,-19.106688460999997,-2.3545374384,-0.5718846013999999,359.73,252.98000000000002,448.42,14.808580865750002,10.143414283659999,0.20781664280999995,319.18600000000004,182.4445,291.0285
2.2059075959999745,-22.272392760799995,-4.711467699399999,0.11246266220000001,343.77000000000004,238.35000000000002,409.57000000000005,12.782219046940003,9.833783039219998,0.18329021115999983,335.55550000000005,193.86150000000004,310.94
2.2142765610000197,-27.780670385999997,-4.331008905999999,-0.8279166196,347.69000000000005,222.95000000000002,363.44000000000005,10.437252898940004,9.446026136889998,0.10492527100999982,350.66150000000005,202.4085,327.80999999999995
2.222564524999939,-31.324440656599993,-2.5890340531999994,-2.093719775,366.59000000000003,217.56000000000003,354.90000000000003,7.87274527739,8.99677369374,-0.10241280727999999,363.8845,210.15750000000003,343.02799999999996
2.2308574899999485,-35.6602352078,0.44267218099999994,-2.8761727651999998,403.97,233.03000000000003,377.79,5.04622358114,8.572406605629997,-0.37555350706999996,375.50450000000006,216.4645,357.6545
2.2396704519999275,-39.070007412799995,3.1513473642,-1.9046867895999997,469.70000000000005,286.44000000000005,414.82000000000005,1.999681846819999,8.167899945099999,-0.6354140414299999,386.86900000000014,225.28450000000004,372.1269999999999
2.248061416999917,-41.58486396539999,2.9336005076,4.7569313287999995,553.4200000000001,320.46000000000004,454.51000000000005,-1.1831311345700002,7.661937606330001,-0.5533402262499999,399.61250000000007,234.6225,386.3755
2.256299381999952,-42.242890180399996,0.8542376682,14.9982120568,657.7900000000001,311.85,456.89000000000004,-4.407100664679999,6.98991337912,0.07310073043000002,415.9225000000001,243.22550000000007,398.45050000000003
2.26463434599998,-39.8931383872,0.5264209719999999,23.9832609198,691.95,291.20000000000005,402.57000000000005,-7.522675331009998,6.323631926150002,1.1863614450800002,433.66750000000013,250.8485,406.58099999999996
2.272766310999941,-36.6532565868,-2.9096722816000002,34.265219632,592.2700000000001,233.52,302.82000000000005,-10.528539081129995,5.4842297580700015,2.85056956338,447.6255000000001,255.465,409.23049999999995
2.2813482750000276,-30.742984764799996,-3.4073793824000003,37.280176108,346.43,124.25000000000001,159.67000000000002,-13.315698845609997,4.585605230640002,4.713860522,449.9530000000001,254.33800000000005,403.85450000000003
2.292352228000027,-26.225335695999995,-8.542376681999999,32.087751065999996,-59.010000000000005,-106.4,15.05,-15.961562435559998,3.362992523170002,6.3342799867199995,430.8080000000001,240.06500000000005,389.6445
2.3033491809999305,-19.3722917696,-8.985048863,16.632509892599998,-272.51000000000005,-195.37,-134.96,-18.251972228279996,2.0846270491199994,7.193781864639999,398.1845,219.7615,365.596
2.312956139999983,-18.1567378888,-5.6925249654,6.7381884416,-293.23,-278.46000000000004,-204.4,-20.35155441865,0.9637093021500001,7.570531783009999,361.10900000000004,194.61750000000006,335.55550000000005
2.322892098000011,-17.0823605414,-0.9714859755999999,2.3593230835999996,-151.34,-266.63000000000005,-193.9,-22.162562203460002,0.1367498115900008,7.807062297019999,328.7305,168.45500000000007,303.8315000000001
2.332806054999992,-16.067803759,0.8877371846000001,1.3351950108,-16.8,-229.11,-167.23000000000002,-23.67027972372,-0.5016552580899998,8.00841831881,302.70449999999994,142.94000000000003,271.83450000000005
2.3429500119999602,-15.804593272999998,0.9068797653999999,2.3353948576,15.120000000000001,-196.77,-164.22000000000003,-24.83139689037,-1.03298151642,8.25942540955,279.4225,118.16,239.01500000000001
2.3526609709999775,-15.282957946199998,0.7034898444000001,5.158925525599999,-41.160000000000004,-190.82000000000002,-197.89000000000001,-25.666611618900003,-1.4400006406799999,8.6225362391,255.24799999999996,93.10349999999997,204.1235000000001
2.3634599249999155,-14.553147053199998,1.0384850084,7.314858688199999,-143.64000000000001,-211.61,-248.92000000000002,-26.11466765075,-1.6485351302699995,9.044630145739998,227.8395,67.09849999999999,166.52300000000008
2.3734408819999544,-13.6558385782,2.0578274359999997,8.137989662599999,-247.87000000000003,-229.25000000000003,-289.45000000000005,-26.126631763750005,-1.5495919157599993,9.461100919269999,196.14350000000005,41.408500000000025,127.97400000000002
2.383563838999976,-12.540783246599998,2.8905297008,8.7146599092,-324.45000000000005,-243.18000000000004,-316.75000000000006,-25.798336503030004,-1.2873385587999997,9.925428144799998,161.93449999999999,16.60049999999999,89.71550000000002
2.3934447969999155,-9.705288465599999,3.1154550251999997,8.360522164399999,-374.43000000000006,-253.68000000000004,-321.79,-25.16998128827,-0.89599242257,10.337831119910001,126.02449999999995,-8.001000000000008,53.14750000000005
2.4033077550000144,-6.7381884416,3.8979080153999996,6.788437716199999,-361.62000000000006,-246.19000000000003,-314.65000000000003,-24.11785719105,-0.4845465765000004,10.718648836700002,90.55899999999995,-31.45800000000002,19.24300000000001
2.413467710999953,-3.7064822074,2.9742784917999994,6.0969119848,-364.84000000000003,-224.07000000000002,-292.81,-22.736959268590002,-0.20638094925000017,11.128180424690001,53.987499999999955,-53.53950000000002,-13.142499999999988
2.4239266669999324,-1.2011969452,1.43569356,6.604190375999999,-389.69000000000005,-191.59000000000003,-279.72,-21.014007355460002,-0.1567298803000003,11.60219858175,14.30449999999998,-74.7705,-46.01799999999999
2.4338096249999808,-0.8015955709999999,-0.6771687957999999,7.1306113479999995,-439.11,-181.72000000000003,-285.18,-19.10058676337,-0.3481556883000002,12.05396348863,-31.13600000000007,-98.17850000000001,-81.018
2.445158575999926,-0.6652046827999999,-2.2540388892,7.379464898399999,-484.61000000000007,-190.61,-307.65000000000003,-17.05460379924,-0.6075376581400004,12.185090167110001,-83.03750000000005,-123.73200000000004,-119.126
2.455104533999929,0.8135596839999999,-2.7948167968,5.8169517405999995,-541.38,-206.36,-333.55,-14.901781306019998,-0.7899903813900003,11.726027151299999,-142.996,-149.64250000000007,-158.648
2.464740493000022,4.041477371399999,-2.6392833278,2.6057838114,-589.61,-225.47000000000003,-348.11,-12.70505051809,-0.9482755963800003,10.657153295879997,-207.074,-175.47600000000006,-196.182
2.4746544500000027,7.9393853868,-1.8616159827999998,-1.495514125,-572.32,-246.47000000000003,-360.78000000000003,-10.475418419409998,-0.8958727814400002,8.869116608029998,-265.3035,-199.47550000000007,-229.362
2.4846574079999755,9.8321080634,-0.0526420972,-4.285545276599999,-524.5100000000001,-240.24,-367.92,-8.446663777999998,-0.7281359171800001,6.790830538799999,-308.8505,-217.70000000000005,-255.7415
2.494275367,12.0287192102,1.0313065406,-5.505884802599999,-445.34000000000003,-224.42000000000002,-357.07000000000005,-6.533961032689999,-0.24945175605000003,4.911148745370001,-328.16700000000003,-223.60100000000006,-274.34749999999997
2.504116324999927,13.756337127399998,2.823530668,-4.8239303615999996,-346.36,-200.83,-346.78000000000003,-4.877529587839999,0.34097722049999996,3.8383267326599997,-331.85949999999997,-223.87400000000008,-284.9385
2.513810282999998,14.187045195399998,4.237688824599999,-2.9096722816000002,-268.24,-152.11,-319.06,-3.2603404336299997,0.8374879100000001,3.3559336965000006,-330.61,-217.55650000000006,-290.67150000000004
2.523427242000025,15.2614225428,5.084748025,-1.2442677519999998,-195.3,-127.96000000000001,-265.72,-1.6431512794200003,1.14029961003,3.1757541547200008,-332.808,-210.62300000000005,-294.26250000000005
2.5333671999999297,16.273586502599997,6.123233033399999,-0.3062812928,-155.61,-119.28000000000002,-226.45000000000002,-0.026081766339999746,1.4020744024699998,3.0936803395399997,-339.74850000000004,-205.13150000000005,-297.2235
2.5434011569999484,17.264215059,7.077969250799999,0.0263210486,-133.77,-122.15,-193.69000000000003,1.6273586502600004,1.7106288767399995,2.9782266490900007,-347.19300000000004,-201.40050000000002,-298.697
2.553469113999995,19.5206467708,8.3796647452,-0.2656033086,-143.01000000000002,-123.13000000000001,-172.83,3.367538886109999,2.09443762178,2.7070002073800006,-352.28550000000007,-198.01600000000005,-297.444
2.5635180719999653,19.877177338199996,10.1958170986,-0.5072783912,-175.77,-121.03000000000002,-148.47000000000003,5.089055105679999,2.55230422629,2.3158933534100004,-353.89200000000005,-193.48700000000002,-292.42150000000004
2.5734250289999636,22.4709970366,9.427721044,-0.8207381517999999,-185.22000000000003,-121.03000000000002,-98.07000000000001,6.8953968864199995,2.92079890669,1.8679569626900001,-350.75950000000006,-188.07600000000005,-282.8525000000001
2.583208988000024,25.598416174799997,9.0137627342,1.1078768637999998,-130.48000000000002,-83.86000000000001,-56.28000000000001,8.80235685749,3.2269605583599996,1.4876178104200002,-341.06100000000004,-180.11000000000007,-269.82900000000006
2.5929549459999635,26.802005942599997,7.920242806,1.9908284031999999,-5.53,-2.1,-12.110000000000001,10.627721577900001,3.4671999473999997,1.16913312236,-322.61600000000004,-167.53100000000006,-254.34499999999997
2.60255490499992,26.079373517399997,8.13559684,3.3523444625999996,121.38000000000001,56.56,22.330000000000002,12.268599675850002,3.67908438863,0.99732845968,-298.46600000000007,-152.39350000000007,-237.49599999999995
2.612394862999963,23.550160029199997,8.437092487599998,4.7282174576,189.28000000000003,114.80000000000001,40.11000000000001,13.63143178768,3.9522250884199996,0.92889373332,-270.7600000000001,-135.45000000000005,-220.85
2.6216048239999736,21.1669087196,9.980463064599999,5.812166095399999,216.09000000000003,140.14000000000001,60.620000000000005,14.74983707092,4.37946356365,0.88929251929,-240.47100000000006,-118.86350000000004,-203.833
2.6304687859999376,19.578074513199997,10.999805492199998,7.523034254399999,208.04000000000002,145.32000000000002,70.77000000000001,15.768820575130002,4.963312278049999,0.90891366461,-208.1135000000001,-102.51150000000003,-186.0355
2.638737751000008,17.869599176799998,12.074182839599999,7.637889739199999,189.98000000000002,134.75,86.03,16.695560768110003,5.67972336449,0.9218349066499998,-174.384,-86.24350000000001,-166.35150000000004
2.64698871600001,18.0347039362,13.1557386548,7.310073042999999,167.72000000000003,115.99000000000001,111.16000000000001,17.556617980720002,6.4772511370700006,0.9964909717699999,-138.929,-70.126,-144.11600000000004
2.6570736730000135,18.1591307114,14.093725114,6.0418770649999995,129.01000000000002,96.81,145.74,18.26250064772,7.31390155916,1.16829563445,-102.998,-54.012000000000015,-119.42350000000002
2.666649631999917,18.987047331,14.141581566,3.8763726119999995,123.83000000000001,88.9,199.08,18.81488374493,8.1140614366,1.4368899712999998,-68.1905,-37.243500000000026,-91.43050000000002
2.6765335899999627,19.889141451199997,12.1244321142,2.3138594542,126.21000000000001,93.10000000000001,261.66,19.31773541432,8.722915147170001,1.7668602078399995,-35.6545,-20.5765,-59.95150000000003
2.686373548000006,21.8895411448,9.164510558,0.9188438783999999,192.71,111.16000000000001,317.59000000000003,19.81077651105,9.129575348039998,2.0880966418899995,-3.751999999999994,-3.7975000000000003,-26.2185
2.696320505000017,24.193829308599998,7.7383882883999995,-0.5647061335999999,322.42,149.31,341.11,20.332651120109997,9.375318229059998,2.3010578532899997,29.687000000000012,13.709499999999995,8.176000000000013
2.706115463999936,24.031117371799997,7.367500785399999,-2.2133609049999996,395.99000000000007,204.4,347.06000000000006,20.82485472893,9.5318088271,2.3358734221199997,62.89850000000001,31.535000000000004,41.481999999999985
2.7159264219999386,22.234107599199998,7.862815063599999,-2.9742784917999994,441.28000000000003,262.22,349.72,21.173488981749998,9.670712179030001,2.2493728851299997,94.7275,51.044,72.254
2.7256163800000195,19.063617654199998,9.0305124924,-2.6368905051999993,439.88000000000005,266.77000000000004,348.18,21.312990539329995,9.816076151979999,2.1328424245099997,124.50200000000002,70.34650000000002,100.98550000000002
2.7354273390000117,13.141381719199998,9.836893708599998,-2.8450660714,410.27000000000004,264.88000000000005,374.29,21.10684887234,9.95402237487,1.9892730685099997,151.704,89.69800000000001,129.3845
2.7446192989999645,8.6787675702,9.8799645154,-2.8402804261999997,387.52000000000004,263.41,426.72,20.56475491231,10.029037363379999,1.8605392126299996,178.23050000000003,109.025,159.362
2.753497261000007,2.9886354273999993,8.516055633399999,-2.9934210725999995,384.02000000000004,269.5,454.65000000000003,19.720327816770002,9.945049290119998,1.7362320785599998,206.22000000000003,128.5515,189.518
2.7616462270000284,-3.0819555087999997,6.278766502399999,-3.409772205,396.34000000000003,281.12,474.39000000000004,18.442680189500006,9.787601563039999,1.6067803758999997,235.29800000000006,148.659,218.141
2.770053190999988,-10.432706535999998,4.0127635002,-3.9505501125999998,412.65000000000003,290.85,478.94000000000005,16.641124053960006,9.53755160134,1.35385902708,262.4545,167.3945,244.90199999999996
2.779943149000019,-16.730615619199998,-2.9096722816000002,-2.4622144553999994,420.28000000000003,286.58000000000004,427.70000000000005,14.464492975870002,8.99605584696,1.13120688415,283.745,181.8285,266.8925
2.78956110799993,-24.547967053399997,-7.968099258,-1.1006983959999999,417.34000000000003,263.41,331.87,11.933125947330003,8.19087104206,0.90855474122,298.543,192.171,282.36949999999996
2.799965062999945,-30.7764842812,-5.022534637399999,-2.8187450228,381.01000000000005,211.05,222.53000000000003,9.216793731810002,7.51788968581,0.5312066171999995,308.12950000000006,196.9835,291.49049999999994
2.8098910209999985,-35.461630932,3.6418759971999997,-4.2807596314,377.79,178.57000000000002,256.48,6.38536674923,7.20096033244,0.026560330859999714,316.2145,198.90500000000003,301.2835
2.8194579799999246,-39.194434187999995,7.951349499799999,-2.0626130812,519.4000000000001,216.51000000000002,362.39000000000004,3.446741314169999,7.048537532820002,-0.45272203592000004,331.78249999999997,202.4645,315.8645
2.829226939000023,-40.0821713726,8.0781690976,6.905686023599999,688.45,333.06000000000006,413.84000000000003,0.5491527867000012,6.848736845720002,-0.48933222169999996,356.706,212.38000000000002,332.255
2.839083897000023,-40.8909454114,9.133403864199998,20.8749843624,806.6100000000001,417.83000000000004,399.28000000000003,-2.3971296806799987,6.6476201061900015,0.18891334427000003,388.6505,227.47200000000004,346.66100000000006
2.8488188549999904,-36.679577635399994,15.529418673999997,34.169506727999995,632.8000000000001,434.21000000000004,268.1,-5.13906509802,6.71940478419,1.5952948274200003,413.84,244.34200000000004,352.779
2.8586128129999224,-33.1429858326,6.0346985971999985,42.51806477939999,164.15,342.23,237.16000000000003,-7.745566756199999,6.314060635750001,3.5273794357899995,415.85600000000005,257.0085,354.683
2.868508770999938,-31.381868399,6.0610196458,30.611379521799996,-266.07000000000005,-72.38000000000001,45.92,-10.309117248709999,6.010890012329999,4.942255439169999,396.2420000000001,248.73450000000008,343.896
2.87873372699994,-16.130017146599997,-12.715459296399999,20.346170567799998,-497.4200000000001,-298.55,-184.17000000000002,-12.210095163279998,4.916891519609998,5.913621773639999,361.7355,228.24899999999997,318.808
2.8884716860000026,-22.1886439698,-6.4055861002,2.847458894,-459.62000000000006,-322.21000000000004,-255.99000000000004,-14.529218827199998,4.209692800179999,6.084230025019999,322.6335,204.673,288.953
2.8980616449999843,-13.043275992599996,-0.028713871199999998,2.428714939,-325.99,-308.70000000000005,-202.86,-16.38293849542,3.8398820673499996,6.316333817219999,286.53450000000004,179.01800000000003,261.45700000000005
2.907681604000004,-13.148560187,2.7924239741999997,0.0502492746,-78.12,-240.94000000000003,-142.94000000000003,-18.15207188473,3.5863625128799996,6.467560205539999,260.56450000000007,153.86,236.82400000000007
2.917711560999919,-12.942777443399999,1.4907284798,-0.5359922624,90.09,-179.76000000000002,-113.75000000000001,-19.752391639609996,3.20937331225,6.572605117680001,243.07500000000005,131.53349999999998,213.72750000000005
2.92758951899998,-13.036097524799997,1.7587246109999999,1.8520446923999998,114.31000000000002,-143.71,-123.76,-21.061265601809996,2.80546485737,6.807460655869998,228.27700000000004,111.10399999999997,188.82500000000007
2.9372324779999417,-12.777672684,2.428714939,3.8021951113999997,35.0,-144.55,-176.75000000000003,-22.13408761452,2.4329023785499997,7.139584432749999,210.65100000000012,90.70599999999999,158.6515
2.9472924350000085,-12.368500019399997,5.084748025,5.7332029496,-97.79,-171.15,-225.75000000000003,-22.901944386859995,2.2613369981299996,7.575915633859999,186.56050000000008,68.67349999999999,124.63149999999996
2.9570303939999576,-11.5405833998,7.5541409482,6.537191343199999,-201.25000000000003,-196.70000000000002,-243.60000000000002,-23.324875781409997,2.3251057204200003,8.07326381127,156.681,44.782499999999985,88.732
2.9670623509999814,-10.939984927199998,7.9585279675999985,6.412764567999999,-296.03000000000003,-198.38000000000002,-230.72000000000003,-23.35023970097,2.5223939437899996,8.591429545299999,121.24700000000003,20.32099999999999,53.24899999999999
2.9771583079999573,-9.236295236,5.8193445632000005,7.3052873978,-323.61,-194.25000000000003,-199.92000000000002,-22.975523681809996,2.9588447860300002,9.079804637959999,84.05250000000005,-3.7204999999999955,21.86799999999998
2.9872442649999584,-6.795616184,2.5555345367999998,6.855436748999999,-305.06,-172.41000000000003,-188.44000000000003,-22.087906138339992,3.48502647577,9.47761139521,47.932500000000026,-25.511500000000016,-4.147499999999992
2.997254221999924,-5.252245607,-0.062213387599999996,7.037291266599999,-309.68,-147.91000000000003,-189.98000000000002,-20.811694204629994,3.7330425382600003,9.97041320968,13.397999999999993,-43.459500000000006,-24.773000000000003
3.007267178999996,-4.3812581806,-1.6821542877999998,7.812565788999999,-355.18,-136.92000000000002,-198.31000000000003,-19.257675567059998,3.4668410240099994,10.575079480699998,-23.250500000000002,-59.234000000000016,-47.5125
3.016948137999975,-4.2927237444,-3.833301805199999,7.6785677234,-378.91,-131.95000000000002,-217.56000000000003,-17.512590044879996,2.877608458759999,11.062138520929997,-68.16600000000001,-76.65700000000001,-76.50999999999999
3.026958094999941,-3.7136606751999994,-4.649254311799999,8.1092757914,-420.35,-133.98000000000002,-238.35000000000002,-15.694164510009998,2.241237288289999,11.122318009319997,-123.606,-100.00900000000003,-109.11949999999999
3.036965053000017,-2.3473589705999998,-4.744967215799999,8.044669581199999,-460.74000000000007,-136.57000000000002,-257.04,-13.766985187969999,1.5473187342899997,10.480802270259998,-186.9735,-127.72900000000001,-141.9355
3.046673010999939,0.5096712138,-5.486742221799999,6.4941205364,-494.27000000000004,-144.20000000000002,-262.78000000000003,-11.907522745509997,0.49651068950000016,9.097032960679998,-243.327,-156.64950000000002,-168.4795
3.0566709689999243,3.3068808331999993,-5.321637462399999,4.0342989036,-535.7800000000001,-177.17000000000002,-268.73,-10.085029412219999,-0.07130611347999985,7.172844666889999,-278.3235,-182.6195,-193.774
3.0666569259999505,6.7573310224,-5.491527867,0.9595218625999999,-560.1400000000001,-205.94000000000003,-281.19000000000005,-8.178069441149999,-0.6489334891199999,5.69025178393,-293.027,-189.29749999999999,-210.1295
3.0764678839999533,9.4612205604,-3.9696926934,-1.4045868662,-529.83,-240.31000000000003,-286.93,-6.8985075558,-0.21164515896999986,4.60271391223,-294.6475,-186.3855,-215.2675
3.0859678439999243,12.1986096148,-2.3066809864,-3.3954152693999995,-470.26000000000005,-254.17000000000002,-287.42,-5.17914487657,-0.006699903279999963,4.290570204059999,-295.1795,-182.98350000000002,-216.839
3.0956258029999617,13.1629171226,0.07178467799999999,-4.398007938799999,-364.98,-247.45000000000002,-274.47,-3.86883522081,-0.0016749758200001019,3.9492340601699993,-297.129,-179.921,-220.41950000000003
3.1053747610000073,14.194223663199997,1.471585899,-4.496113665399999,-270.76000000000005,-221.69000000000003,-257.53000000000003,-2.501696028299999,-0.06771687958000036,3.7219159131699997,-306.7610000000001,-178.95850000000002,-226.14900000000003
3.115482717999953,15.924234403,1.5481562222,-3.6035908356,-245.21000000000004,-182.35000000000002,-224.91000000000003,-1.0583454359800002,-0.06484549246000013,3.5685359845099986,-323.52600000000007,-179.08800000000002,-231.70700000000002
3.125534674999926,17.2067873166,2.0291135648,-2.3377876802,-244.51000000000002,-165.06,-198.52,0.45379880608999984,-0.05132604476999984,3.359044365879999,-341.46700000000004,-180.15550000000002,-235.44500000000002
3.13471563600001,19.2071870102,2.3856441322,-1.0001998468,-246.26000000000002,-157.29000000000002,-189.63000000000002,2.0530417908000005,-0.0534795851099998,3.1189246179699994,-355.5300000000001,-180.7925,-236.08900000000003
3.1452515909999192,20.441883471799994,2.9216363945999997,-0.5814558918,-236.39000000000001,-147.70000000000002,-176.96,3.6935609653599997,-0.16163516662999983,2.803191675899999,-362.46000000000015,-179.62,-233.64950000000007
3.155009548999942,23.131416074199997,4.7521456836,-0.7944171031999999,-223.51000000000002,-153.37,-156.10000000000002,5.427160939059999,-0.30173492985999983,2.4366112535799997,-363.57300000000015,-177.4535,-229.27450000000005
3.1648825070000157,22.002003807,4.644468666599999,-1.2059825903999999,-218.12000000000003,-148.33,-129.78,7.07426037577,-0.46743789490999976,2.0556738956600005,-359.6775000000001,-174.95099999999996,-224.22750000000002
3.174677464999945,23.0931309126,3.6346975293999995,-1.3926227532000002,-180.74,-138.53,-101.99000000000001,8.6907316832,-0.5766702465999998,1.6207783881100002,-352.53400000000005,-172.165,-219.331
3.1850214209999876,25.196421978,3.5126635768,-0.8853443619999999,-119.21000000000001,-94.08000000000001,-67.2,10.2903335913,-0.5288137946000003,1.2337393325599995,-343.2415000000001,-168.24849999999998,-213.269
3.1947763800000075,24.6173589088,3.098705267,0.3565305674,-41.790000000000006,-28.000000000000004,-38.36000000000001,11.783813817089998,-0.3707678618699998,0.8997012975999997,-329.8470000000001,-162.253,-205.68799999999996
3.204614337999942,23.540588738799997,1.9788642901999998,2.0793628394,53.13,28.840000000000003,-18.340000000000003,13.17990616306,-0.18771693297000042,0.6130411501200002,-309.4315,-153.96499999999997,-196.6895
3.2145582949999607,21.410976624799996,1.7898313048,3.1585258319999996,105.84,43.96,-10.780000000000001,14.46509118152,0.09343972253000005,0.38703905554999996,-285.1940000000001,-145.1695,-186.35050000000007
3.2242682539999805,19.240686526599998,2.87138712,4.6133619728,132.79000000000002,57.68000000000001,-5.250000000000001,15.612808541609999,0.4694717941200001,0.21224336462,-257.53700000000003,-135.5865,-174.69550000000004
3.2342772109999487,17.627924094199997,4.074976887799999,5.6279187552000005,152.67000000000002,55.580000000000005,-4.83,16.61157269485,0.9104689992999999,0.09140582332000009,-226.86650000000003,-125.979,-162.08500000000004
3.2444541679999475,16.845471103999998,6.759723844999999,5.6255259326000004,152.67000000000002,41.160000000000004,4.550000000000001,17.42836268936,1.5227923026399999,0.04797609312999991,-194.51950000000002,-116.71100000000004,-148.71850000000003
3.254543124999941,17.759529337199996,9.6358966102,5.1158547188,166.88000000000002,20.720000000000002,29.120000000000005,18.150995114559997,2.27066900627,0.10205388388999967,-159.3865,-106.81650000000005,-133.82600000000002
3.2644310829999768,19.362720479199997,11.9377919514,3.6753755135999997,184.10000000000002,9.38,59.85000000000001,18.7812645874,3.14213499719,0.2378465664399997,-122.17450000000001,-96.0505,-116.77400000000004
3.274123040999939,21.9804684036,13.182059703399998,1.8951154991999999,220.92000000000002,18.970000000000002,114.80000000000001,19.40722697956,3.9997226170299998,0.40283168470999964,-84.63699999999997,-83.08649999999997,-96.68750000000003
3.284154998999952,25.2490640752,13.399806559999998,-0.9355936366,252.28000000000003,66.92,174.3,20.05974970258,4.78504699435,0.5258227663499999,-48.510000000000005,-67.03199999999997,-73.60150000000002
3.294184955999981,27.9625249036,11.973684290399998,-2.3736800192,248.50000000000003,107.17000000000002,235.20000000000002,20.79973009163,5.38014197497,0.6270391623299999,-17.836000000000002,-49.30099999999997,-48.117999999999995
3.30425991300001,27.421746995999996,9.128618219,-3.7663027724,209.3,162.54000000000002,286.65000000000003,21.46110625827,5.76299359097,0.6635297069799998,6.167000000000003,-30.089500000000008,-20.909000000000006
3.3141068709999217,24.246471405799994,5.0273202826,-4.3645084224,207.13000000000002,196.42000000000002,322.77000000000004,21.87721810841,5.93695179399,0.6254838276399999,28.784000000000002,-11.151,6.475000000000023
3.323766829999954,22.332213325799998,0.44027935839999993,-3.5605200288,286.37,207.06000000000003,338.94000000000005,22.133489408870002,5.85751008367,0.56434721021,55.32800000000001,7.455000000000008,33.348
3.333453787999929,19.0971171706,-1.495514125,-2.4981067943999995,422.59000000000003,206.99,333.55,22.127985916890005,5.66345217081,0.4894518628300001,88.77050000000001,25.66900000000001,59.507000000000005
3.3434997449999173,14.859428345999998,-1.4404792052000002,-1.3519447689999997,527.5200000000001,198.94000000000003,313.18,21.848863160599997,5.44534639082,0.45092741897,126.96600000000001,43.00100000000001,84.01400000000001
3.3532447039999624,8.8965144268,-0.8997012976000001,-1.1413763801999999,539.1400000000001,189.35000000000002,296.94000000000005,21.137118078230003,5.1627540417599995,0.4335794551200002,165.0985,60.137000000000015,106.66600000000001
3.3635466599999972,3.6370903519999995,1.2969098491999997,-1.686939933,482.86000000000007,186.83,295.75,20.21887240548,4.995376100890001,0.4095315879900001,200.1475,76.89500000000001,127.94250000000002
3.3734306179999294,-4.048655839199999,1.5696916255999998,-3.1274191382,430.01000000000005,196.28000000000003,325.22,18.861783067889995,4.8921258057,0.32279176874000015,230.68500000000003,93.6355,149.30300000000003
3.3835315750000063,-9.1094756382,2.2827527603999997,-3.5318061576,404.25000000000006,235.13000000000002,348.81000000000006,17.146488187079996,4.830630264880001,0.19046867896000003,256.858,110.096,170.1035
3.393758531000003,-15.3882421406,0.7513462964,-1.1724830739999998,432.39000000000004,286.44000000000005,355.95000000000005,15.146208134609997,4.713262316350001,0.11401799689000006,280.567,125.81800000000001,189.81900000000002
3.403742489000024,-23.822941805600003,-6.671189408799999,4.3166519704,481.88000000000005,288.05,286.23,12.778031607389996,4.2807596314000005,0.22588245344000013,302.00450000000006,138.7785,205.04750000000004
3.4125654509999777,-30.013173871799992,-4.8263231842,6.333801422199999,453.67,252.84000000000003,186.55,10.206824082559995,3.9499519069499995,0.38464623295,319.3960000000001,149.22250000000003,214.914
3.4208544159999974,-33.8392972092,0.4331008906,6.496513359,421.89000000000004,205.24,189.77,7.552824895769997,3.8280375954800006,0.47880380225999997,333.85100000000006,156.6005,224.66500000000002
3.4309323730000187,-34.9280314922,3.5796626096,6.372086583799999,430.71000000000004,172.76000000000002,250.74000000000004,4.925027116449999,3.8032718815700006,0.5160121936899997,347.75300000000004,162.45950000000002,237.4435
3.4401133329999993,-33.389446560399996,2.0745771942,7.0540410248,511.07000000000005,180.81000000000003,303.31,2.413281233229999,3.569014549030001,0.5874379482999998,365.67300000000006,169.44200000000004,252.38150000000005
3.450002290999919,-30.398418310399997,-0.21296121140000002,10.3346008094,669.6200000000001,220.57000000000002,302.61,0.005383850850000371,3.0765716579500006,0.8483752528299998,390.81000000000006,179.4345,266.05600000000004
3.460265247999928,-27.213571429799998,2.8259234905999997,16.211373115,692.6500000000001,241.71000000000004,270.69,-2.3234307446,2.62097823491,1.4751751328999998,416.23750000000007,191.05100000000002,276.598
3.4698702069999854,-25.875983596399998,4.3477586642,21.540189045199998,573.3000000000001,202.86,216.23000000000002,-4.716253344600001,2.1792631829499998,2.4574288101999997,433.8565,200.24550000000005,281.66949999999997
3.479737163999971,-24.6317158444,2.847458894,27.716064175799996,320.04,134.33,112.91000000000001,-7.21029234058,1.6516457996500002,3.8900117008199997,437.2445000000001,203.61600000000004,278.6
3.489707122000027,-21.207586703799997,-2.6584259086,26.3162629548,-6.790000000000001,-5.040000000000001,-6.44,-9.668797920949999,0.9200402897,5.324508849519999,424.48,198.00550000000004,266.518
3.4997330789999523,-16.5726893276,-3.0029923629999997,19.168901848599997,-192.08,-147.70000000000002,-103.53000000000002,-11.868519737129997,0.3134597605999999,6.471269080569999,404.41099999999994,182.49350000000007,247.00900000000001
3.5094310380000024,-15.938591338599998,-1.5768700934,11.6482604168,-263.97,-217.21,-158.55,-13.877772874349997,-0.01674975819999992,7.27190752253,380.85600000000005,161.81200000000007,222.94299999999998
3.519127995999952,-14.232508824799998,0.38524443859999996,5.74277424,-189.49,-245.28000000000003,-158.13000000000002,-15.70600898188,-0.019501504190000043,7.7370722359699995,357.063,139.19500000000002,198.08950000000004
3.52912495399994,-13.292129543,1.9716858223999998,2.4693929231999996,-95.9,-232.33,-136.01000000000002,-17.32547131756,0.15385849317999997,7.985447221849998,331.1385,117.22900000000001,174.61149999999998
3.5387919129999545,-12.562318649999998,2.548356069,1.3375878333999998,-36.050000000000004,-212.45000000000002,-132.44000000000003,-18.69655866736,0.3533002568899999,8.119923851969997,302.96,96.65950000000001,152.33049999999997
3.549592867000001,-12.464212923399998,3.1369904286,2.416750826,-71.33000000000001,-190.68,-151.13000000000002,-19.76459503487,0.5551348432,8.29783021228,272.4365,77.65800000000002,129.92699999999996
3.5592448249999507,-12.4235349392,3.960121403,3.5653056739999998,-157.85000000000002,-189.00000000000003,-180.11,-20.56762629943,0.6882954208900001,8.560442492629997,240.40100000000007,58.86650000000001,106.13399999999994
3.568433786000014,-12.088539775199997,4.433900277799999,4.4410787456,-226.45000000000002,-213.50000000000003,-202.58,-20.96962049623,0.8315058535000001,8.938867386819998,207.57800000000006,38.37750000000002,79.74399999999996
3.578595742999937,-11.413763801999997,5.2067819775999995,5.168496815999999,-284.83000000000004,-203.77,-219.45000000000002,-21.08483490442,0.9777073143599999,9.373882535499998,173.12400000000005,16.432500000000005,51.33099999999996
3.5883437009999852,-9.9684989516,5.804987627599999,5.419743188999999,-327.25000000000006,-204.96,-222.39000000000001,-20.81384774497,1.2303893809199997,9.703493848649998,135.142,-8.137500000000001,22.413999999999987
3.597907659999919,-7.968099258,5.663811094199999,5.314458994599999,-356.37000000000006,-192.01000000000002,-217.56000000000003,-20.02110561759,1.8471394060699997,9.753384199859997,93.22950000000004,-32.14050000000002,-2.7755000000000054
3.6078686179999977,-6.2907306154,4.7090748768,5.2953164138,-394.17,-174.51000000000002,-212.66000000000003,-18.834983454769997,2.32390930912,9.701459949439997,50.837500000000034,-53.508,-22.736
3.617451576999997,-4.4913280202,2.9599215562,5.8193445632000005,-445.97,-155.12,-213.15000000000003,-17.367584995319994,2.4502503424,9.667601509649996,7.4444999999999935,-71.526,-42.882000000000005
3.6272035360000245,-2.1080767106,1.3974083984,6.6185473115999995,-486.64000000000004,-140.91000000000003,-221.55,-15.726587256239995,2.34113763184,9.679924546039995,-38.42300000000001,-87.20949999999999,-66.4965
3.6367594949999784,-1.184447187,-0.20578274359999998,7.8747791766,-531.86,-134.4,-242.97000000000003,-14.116337287569996,2.22711963495,9.720961453629997,-90.56950000000002,-102.97,-93.81050000000002
3.645987454999954,0.09571290399999999,-1.0217352502,8.25523797,-572.25,-142.45000000000002,-263.62,-12.591630726849997,2.18668093301,9.616993311659996,-152.663,-121.12099999999998,-122.12200000000003
3.657335407000005,1.1150553316,-1.7395820302,8.027919823,-614.5300000000001,-164.78000000000003,-266.98,-11.175199388779998,1.9584056569700004,9.207820647059997,-218.02200000000002,-141.44549999999998,-149.0055
3.6669553660000247,4.6157547954,-2.4861426813999996,5.876772305599999,-608.23,-207.76000000000002,-245.63000000000002,-9.650612469189998,1.6167105896900005,8.424649810079998,-277.09849999999994,-161.97650000000004,-172.09850000000003
3.676949322999917,7.475177802399999,-4.2137605985999995,1.7515461432000001,-542.08,-277.90000000000003,-225.75000000000003,-8.04526778685,1.2636496150599998,7.126423908449998,-320.2045,-182.58800000000002,-189.03150000000002
3.6865402829999994,11.480762834799998,-3.2135607518,-1.6175480775999997,-446.81000000000006,-292.46000000000004,-223.51000000000002,-6.410850309919999,1.2358928729000005,5.72973335683,-342.2055,-196.95900000000003,-199.88500000000002
3.6966872389999708,15.3356000434,-2.5531417142,-5.2857451234,-402.50000000000006,-282.87,-223.72000000000003,-4.815435841369997,1.2583854053400005,4.50700100823,-352.7265,-203.71750000000003,-205.89450000000002
3.706430198000021,18.0227398232,-0.014356935599999999,-5.986842145199999,-377.37000000000006,-250.46000000000004,-218.33,-3.1173692832799986,1.3365110632300006,3.6252458801299996,-358.3965,-205.38000000000002,-208.8835
3.7162211559999605,19.405791286,1.0695917021999999,-2.4670001006,-358.96000000000004,-198.66000000000003,-197.61,-1.435454277739999,1.3707284264100008,3.214757163099999,-366.87,-203.049,-210.8575
3.7258381149999877,21.0616245252,0.9786644433999999,-0.9020941201999999,-308.70000000000005,-176.96,-150.29000000000002,0.28223342567,1.3210773574600005,3.046182810929999,-377.51000000000005,-200.28050000000002,-211.57150000000007
3.735896071999946,21.324835011199994,0.20338992099999997,-0.014356935599999999,-290.78000000000003,-173.18,-145.46,1.976591108729999,1.2038290500600004,2.978585572479999,-390.24649999999997,-198.31700000000004,-212.22250000000003
3.7456620299999486,21.4707971898,-0.5048855686,-0.047856451999999994,-258.93,-176.19000000000003,-143.43,3.6733416143899995,1.0217352502000003,2.85535520858,-399.62649999999996,-197.59250000000003,-211.83750000000003
3.7555039879999867,20.994625492399997,0.0382851616,-0.8997012976000001,-235.20000000000002,-172.76000000000002,-142.03,5.344249635969999,0.8256434381299999,2.6321048600000005,-403.494,-196.78050000000002,-209.9335
3.7652159470000015,20.650059038,1.088734283,-1.9262221929999996,-222.60000000000002,-159.46,-136.57000000000002,6.98117957663,0.6583851383899997,2.3137398130699998,-403.30150000000003,-194.07850000000002,-206.63300000000004
3.7752249039999697,21.585652674599995,2.1032910653999997,-2.333002035,-192.36,-128.24,-120.82000000000001,8.631150400459997,0.5032105927799998,1.9386648705200007,-398.678,-190.302,-201.70150000000007
3.7850828619999675,23.564516964799996,3.1393832511999995,-2.0315063874,-134.4,-86.10000000000001,-99.89000000000001,10.30780119628,0.36993037395999995,1.5661023917000005,-389.0355,-184.35900000000004,-195.57650000000004
3.7942678229999274,24.447468504199996,4.1730826144,-1.2394821068,-79.59,-27.720000000000002,-84.42,11.928579584389999,0.29539394996999996,1.2384053366300003,-375.1965,-176.14450000000002,-188.91950000000006
3.804106780999973,23.930618822600003,4.7593241513999995,0.107677017,-31.780000000000005,9.31,-66.5,13.43964705629,0.2979064136999998,0.9790233667899999,-357.077,-166.95350000000002,-181.61150000000004
3.8134367409999186,22.1479659856,5.335994398,1.8257236438,-5.74,40.74,-49.14000000000001,14.77161175658,0.41671005579000003,0.77934232082,-335.0655,-157.1605,-173.41100000000003
3.8231036999999333,20.987447024599994,5.941378515799999,3.0939196217999996,26.67,71.26,-29.540000000000003,15.92638794334,0.64390856166,0.60311093633,-309.4,-146.55200000000002,-163.8105
3.832887658000004,19.3651133018,7.178467799999999,3.8524443859999993,70.42,58.940000000000005,-17.92,16.95386596778,1.0131210888399997,0.4019941967999999,-279.28599999999994,-136.88500000000005,-152.55800000000002
3.842747615999997,18.5060899884,8.626125472999998,4.0127635002,123.55000000000001,56.980000000000004,17.080000000000002,17.874384822000003,1.495514125,0.18987047331,-244.49599999999995,-126.9135,-138.52300000000002
3.8528685730000234,18.766907651799997,10.736595006199998,3.3571301077999993,158.48000000000002,52.99,28.630000000000003,18.75697743801,2.11932297682,-0.04366901244999995,-205.8454999999999,-116.02500000000002,-123.74250000000002
3.8629045299999234,19.891534273799998,12.3015009866,1.4572289634,202.72000000000003,57.89000000000001,71.33000000000001,19.52076641193,2.85870516022,-0.26464617956,-165.298,-102.74250000000002,-107.8945
3.874116482999966,21.3822627536,11.9210421932,0.04307080679999999,225.40000000000003,76.02000000000001,136.29000000000002,20.216120659490002,3.66544529981,-0.35006994638000016,-126.924,-85.04650000000001,-89.79250000000002
3.884253438999963,23.397019382799996,10.449456294199999,-2.4382862293999996,253.26000000000002,107.52000000000001,162.82000000000002,20.811933486890002,4.34859615211,-0.3911068539699999,-91.92049999999998,-65.0475,-70.47600000000003
3.894212396999933,25.615165932999997,8.238488211799998,-3.0699913958,295.61,157.71,204.4,21.325911781370003,4.888177648409999,-0.2803191675899998,-57.01500000000001,-43.018499999999996,-49.07000000000002
3.9042073539999365,24.789642136,5.6877393201999995,-2.4789642136,348.32000000000005,184.31000000000003,227.22000000000003,21.66425689701,5.1732824611999995,-0.10492527101000007,-20.730500000000006,-21.279999999999994,-26.792500000000018
3.914275310999983,23.349162930799995,3.9457644673999996,-2.3425733254,396.34000000000003,220.99,237.16000000000003,21.86142547925,5.317091099459999,-0.09870393225,17.03450000000001,-0.2975000000000037,-5.054000000000011
3.923979270000018,19.5924314488,3.9433716447999996,-0.430708068,439.6,230.51000000000002,252.98000000000002,21.78796582543,5.465326459529999,-0.07513462964000003,54.449500000000015,20.076,15.109500000000011
3.9342592259999947,15.041282863599998,4.8598227006,1.2801600909999997,506.87000000000006,223.09000000000003,269.57000000000005,21.473788218049997,5.698148098509999,-0.010408778310000033,94.33200000000002,39.8895,35.86100000000001
3.944388183000001,9.7244310464,5.7236316592000005,1.2921242039999998,533.5400000000001,217.98000000000002,296.31,20.886469910879995,6.009573959899999,0.056590254489999936,133.95549999999997,59.598,57.84800000000001
3.9542411410000113,3.3786655112,5.4963135121999995,0.2895315346,467.04,222.53000000000003,337.26000000000005,20.00567191182,6.282475377429999,0.11605189610000002,169.0675,79.3625,81.81250000000001
3.9641810979999264,-0.46899322959999995,3.6753755135999997,-0.5766702466,394.66,226.73000000000002,360.78000000000003,18.949719298439998,6.4118074389599995,0.18352949341999994,199.9305,98.67200000000001,106.67999999999999
3.974077055999942,-6.087340694399999,2.2875384055999994,-2.6368905051999993,403.13000000000005,253.96000000000004,379.96000000000004,17.566069629989997,6.421019805969999,0.16833506991000008,229.705,117.78200000000001,131.719
3.9841370130000087,-12.8805640558,-0.28474588939999995,-2.5770699402,445.41,313.53000000000003,393.05,15.74381557896,6.24981334894,0.14105689227000007,258.6955,137.7635,156.366
3.9939029720000008,-18.1543450662,-4.218546243799999,0.39481572899999995,499.03000000000003,351.05,331.45000000000005,13.613724900439996,5.830231906029999,0.22277178405999992,287.62649999999996,156.70200000000003,177.15950000000004
4.004901925000013,-26.3952261006,-3.6777683362,4.2687955184,506.03000000000003,297.85,241.99,11.097432654279999,5.408377281649999,0.4308277091299999,314.51699999999994,171.12900000000005,192.584
4.013769886999967,-33.140593009999996,-1.0265208954,3.8931223702,480.34000000000003,255.71000000000004,203.56000000000003,8.333004704499997,5.09025151698,0.5341976454499999,338.821,181.8775,205.21900000000005
4.021830852999983,-35.8014117412,1.5314064639999998,2.5890340531999994,475.79,231.42000000000002,241.85000000000002,5.493561766210001,4.869752914389999,0.5089533670199999,361.277,189.88550000000004,218.78850000000006
4.031358812000008,-35.0692080256,1.5122638832,2.8857440556,550.0600000000001,251.09000000000003,328.02000000000004,2.7718456998399996,4.58644271855,0.46061835050000005,385.259,199.49300000000002,236.08550000000008
4.04108776999999,-31.752755902,1.0480562988,9.463613383,764.1200000000001,334.88000000000005,325.78000000000003,0.25890340532000006,4.20753925984,0.7331608446400001,417.2875,213.38800000000006,251.52050000000008
4.050982728000008,-30.230920728399997,3.8979080153999996,19.585252980999996,798.6300000000001,392.84000000000003,310.59000000000003,-2.190988013689999,3.865604910300001,1.5445669883,449.29499999999996,230.38050000000004,265.6185000000001
4.060983685999986,-29.7021069338,12.6628171992,28.486553052999998,623.07,374.50000000000006,225.75000000000003,-4.6706700740699985,3.88367072093,2.89603319278,470.3125,246.21100000000007,273.33950000000004
4.070253645999969,-28.0390952268,6.125625855999999,34.863425281999994,130.9,242.55,161.63000000000002,-7.14173797309,3.5938999040699997,4.63705091654,465.5874999999999,254.53750000000005,274.6065
4.078518610999936,-21.5880454972,-5.570491012800001,32.6476715544,-168.14000000000001,39.830000000000005,63.77,-9.39099121709,2.79290253872,6.39134880573,444.51750000000004,251.15300000000002,269.65400000000005
4.08775257100001,-14.2660083412,-9.0783689444,21.1860513004,-432.88000000000005,-147.49,-65.24000000000001,-11.385049930800001,1.9270596809099998,7.604150940539999,408.0930000000001,235.89300000000003,256.1720000000001
4.0965845339999305,-11.973684290399998,-8.183453292,7.721638530200001,-477.68000000000006,-254.45000000000002,-163.45000000000002,-13.22321625212,1.2335000502999998,8.11418107773,366.79300000000006,213.95500000000007,236.63850000000008
4.1066554909999695,-9.705288465599999,-2.9862426047999997,2.9072794589999997,-287.14000000000004,-259.49,-157.78,-14.87593882194,0.8868996966899999,8.37667371695,332.61899999999997,189.9310000000001,216.8915000000001
4.1158904509999275,-8.2648092604,0.16031911419999997,0.6340979889999999,-100.87,-208.04000000000002,-116.62,-16.2688008574,0.6977470701600003,8.4299140198,305.59549999999996,168.0035000000001,198.41150000000005
4.124731413999939,-8.099704500999998,0.9906285563999999,-0.22731814699999997,54.040000000000006,-162.54000000000002,-91.63000000000001,-17.42585022563,0.5042873629499995,8.3545401079,282.954,148.72200000000007,180.35150000000004
4.132898378999926,-8.532805391599998,1.3543375915999998,0.9499505721999999,56.07000000000001,-126.70000000000002,-93.17000000000002,-18.338712047530002,0.28582265956999986,8.337431426310001,259.0804999999999,131.48800000000006,160.87750000000003
4.1414373420000175,-9.611968384199999,2.1176480009999996,3.6466616424,14.490000000000002,-101.92000000000002,-116.55000000000001,-18.9882437423,0.11688938400999985,8.5052879317,236.45299999999992,115.26550000000006,138.187
4.149736307000012,-10.8370935554,3.0221349437999994,6.831508523,-63.14000000000001,-95.48,-148.82000000000002,-19.50664875859,0.0842273555199999,8.87569687018,213.56299999999987,99.15500000000004,112.70700000000002
4.158939267999926,-11.954541709599997,2.5674986497999996,9.748359272399998,-150.01000000000002,-112.91000000000001,-185.64000000000001,-19.800008809349997,0.09822536772999987,9.494959359060001,185.90599999999992,80.81150000000002,84.42700000000004
4.172689208999941,-12.514462197999999,2.2181465501999997,10.234102260199998,-220.01000000000002,-152.74,-232.82000000000002,-19.78170371646,0.22336998970999983,10.13551796908,152.63499999999993,57.49800000000003,53.133500000000026
4.1810851729999285,-12.579068408200001,1.9334006607999998,10.3657075032,-303.52000000000004,-165.62,-217.49,-19.50293988356,0.5309673349399998,10.63406255779,112.50749999999994,31.66450000000001,25.686499999999988
4.189332137999941,-11.8612216282,1.5840485612,9.9708917742,-295.89000000000004,-172.06,-208.88000000000002,-18.776239659939996,0.7940581798099997,10.91916737058,72.41150000000005,8.169000000000002,3.1429999999999936
4.197600103000013,-11.3491575918,0.5886343596,9.537790883599998,-288.33000000000004,-174.86,-201.74,-17.686667889029998,0.87481594256,11.20140079625,33.978000000000016,-13.359500000000015,-17.122000000000003
4.205802068000025,-10.916056701199999,-0.6580262149999999,9.164510558,-295.40000000000003,-172.55,-204.05,-16.442400137029995,0.7653443086099998,11.53017462149,-4.581499999999982,-33.55800000000001,-39.416999999999994
4.214163031999988,-9.8440721764,-1.7012968685999998,8.937192411,-334.32000000000005,-170.03000000000003,-225.19000000000003,-15.181143344569998,0.6046662710199997,11.83274703926,-48.80050000000001,-54.61400000000001,-67.0775
4.222415996999985,-8.2289169214,-2.2420747762,7.9393853868,-407.12000000000006,-169.47000000000003,-260.26000000000005,-14.00495139554,0.4401597172699997,11.75653563945,-107.36250000000003,-79.83150000000002,-96.37950000000001
4.230862960999957,-6.1088760978,-1.8017954178,7.3603223176,-497.77000000000004,-171.92000000000002,-295.54,-12.798849164009997,0.15517454560999983,11.145289106279998,-172.18250000000003,-108.06949999999999,-126.686
4.239189925000005,-4.0271204358,-1.9692929997999997,7.566105061199999,-582.96,-170.03000000000003,-325.22,-11.515099839109997,-0.5764309643400001,10.099266706689999,-232.484,-135.29600000000002,-154.23450000000003
4.247524890000022,-2.1152551784,-1.8640088054,7.8676007087999995,-637.98,-178.29000000000002,-344.75000000000006,-10.218907836689997,-0.9759126974100001,8.749475478030002,-270.92800000000005,-156.33800000000002,-179.55350000000004
4.255793854999979,-0.107677017,-0.7465606511999999,8.097311678399999,-650.72,-191.87,-349.65000000000003,-9.144889412679998,-0.7347161793300001,7.521957484229999,-295.057,-167.92300000000003,-200.2245
4.264125819000014,1.6342978357999998,0.46660040699999994,8.3557365192,-613.62,-205.8,-337.61,-8.349874103829999,-0.25746771176000005,6.880441745170001,-304.09400000000005,-170.83850000000004,-213.84300000000002
4.272309783999958,3.1034909122000003,1.7563317884,7.427321350399999,-545.0200000000001,-221.69000000000003,-307.58000000000004,-7.596015343699999,0.23952154225999997,6.86572588618,-307.46100000000007,-169.2005,-221.04950000000002
4.281327745999988,4.237688824599999,2.1391834043999998,5.369493914399999,-473.13000000000005,-236.60000000000002,-268.24,-6.89886647919,0.49579284271999996,6.98883660895,-316.76050000000004,-168.05599999999998,-226.57250000000005
4.289802710000004,6.266802389399999,1.9645073545999996,2.333002035,-469.4200000000001,-255.92000000000002,-238.56000000000003,-6.172285896699999,0.58600225474,7.073781811249999,-335.18800000000005,-170.45,-232.66950000000003
4.2981096739999884,9.090333057399999,1.6654045295999997,-0.47856451999999994,-467.95000000000005,-274.19,-237.3,-5.312784018779999,0.6197410534000001,7.0612194926,-361.2875,-176.0325,-239.95300000000003
4.306583638000006,11.978469935599998,2.321037922,-2.021935097,-478.45000000000005,-277.97,-247.17000000000002,-4.287220252419999,0.6680760699199999,6.912625209139999,-388.0135,-183.596,-247.65300000000002
4.314826603000029,15.1011034286,2.0315063874,-2.548356069,-480.69000000000005,-269.64000000000004,-251.86,-3.051566661780001,0.6637689892399999,6.602874323570001,-412.77250000000004,-191.982,-254.41850000000005
4.322979567999937,17.2833576398,3.6705898684,-2.8809584104000003,-457.87000000000006,-262.29,-244.72000000000003,-1.6455441020200006,0.69619173547,6.1172509769,-432.5090000000001,-200.32250000000002,-259.2135
4.331566531000021,18.520446923999998,3.7974094662,-2.8043880872,-412.02000000000004,-253.26000000000002,-225.05,-0.12179467034000009,0.75768727629,5.489613608919998,-445.60950000000014,-207.34,-261.184
4.339930495999965,20.925233636999998,3.5078779316,-1.8065810629999999,-328.79,-228.48000000000002,-190.96,1.5501901214099993,0.8221738453599998,4.887579442759999,-451.04850000000016,-211.127,-259.091
4.348228459999973,23.1888438166,4.1802610821999995,-0.8303094421999999,-242.90000000000003,-194.67000000000002,-156.45000000000002,3.3385857326499995,0.9345168664299999,4.32777859549,-448.01750000000004,-212.5795,-256.03900000000004
4.356564424999988,23.839691563799995,4.400400761399999,-0.8374879099999999,-165.69000000000003,-175.21,-132.86,5.123631392249999,1.07533447644,3.7873596112800003,-441.50750000000005,-212.73700000000002,-252.238
4.365474386999949,24.1746867278,5.1086762509999994,-1.6893327556,-143.01000000000002,-166.18,-113.26,6.899823608229999,1.3013365710099998,3.22600342932,-434.2415000000001,-212.30300000000003,-247.81400000000002
4.373802350999995,24.861426813999998,5.754738352999999,-2.787638329,-136.36,-150.36,-98.49000000000001,8.68869778399,1.6219747994099998,2.6283959849700005,-426.28950000000003,-211.19350000000003,-242.536
4.382087316000025,25.323241575799997,5.855236902199999,-3.9577285803999995,-144.48000000000002,-126.49000000000001,-76.02000000000001,10.4470634716,1.9998014879499997,1.983649935399999,-416.79749999999996,-209.0165,-235.07750000000004
4.390444279999997,26.282763438399996,5.647061336,-4.7712882644,-136.64000000000001,-91.28000000000002,-49.00000000000001,12.172647489589998,2.3942582935599996,1.3481162528399993,-403.2735,-205.10700000000003,-224.51450000000006
4.399191243000018,27.8476694188,4.8287160068,-5.1373901221999985,-109.34,-38.92,-22.05,13.87047476542,2.72578386479,0.7232306308499998,-383.852,-198.45700000000005,-210.8400000000001
4.407405208,28.130022485599998,3.912264951,-4.7353959254,-69.58000000000001,25.62,1.12,15.478331911489999,3.0198617623299997,0.10815558152000034,-358.18299999999994,-188.67450000000005,-194.52300000000008
4.415617172999987,26.057838113999995,2.6823541345999997,-3.7495530142,-30.660000000000004,89.39000000000001,21.14,16.886986576109997,3.24717990933,-0.47270210463000006,-327.81699999999995,-175.29050000000007,-176.22850000000003
4.423959136999997,22.930418975799995,2.0027925162,-2.5746771176,0.7000000000000001,137.83,36.75,18.03889137575,3.3846475677,-1.0063015444299999,-295.246,-158.80550000000002,-156.90850000000006
4.433650095999951,19.8987127416,1.4644074312000002,-1.1653046061999999,27.580000000000002,164.01000000000002,48.720000000000006,18.95211212104,3.4345379189100003,-1.4823536007,-263.186,-140.31500000000005,-137.59200000000004
4.4486400319999575,17.065610783199997,0.9475577495999999,1.0815558152,76.93,159.74,64.75,19.650218114589997,3.3940992169699995,-1.7996418774599998,-232.0885,-121.24350000000004,-118.97550000000004
4.457927992000009,15.893127709199998,1.0719845248,2.1870398563999998,147.07000000000002,143.15,80.85000000000001,20.23299005882,3.3407392729899996,-1.9587645803600005,-201.07850000000002,-102.25600000000001,-101.52100000000004
4.4686779469999465,16.462619487999998,2.3856441322,1.3160524299999998,213.43,130.83,108.08000000000001,20.742780913749996,3.3617961118699995,-2.0096120606100003,-166.93600000000006,-82.91850000000005,-84.18900000000002
4.479336901000011,17.9198484514,2.9264220397999994,0.5910271822,283.29,139.86,141.61,21.184256683449995,3.4248469873799996,-1.9561324754999998,-129.37400000000005,-62.21600000000003,-65.24350000000001
4.489794856000003,19.3052927368,3.5270205124,0.38763726119999997,363.72,162.61,176.26000000000002,21.550597823509996,3.4851461168999998,-1.83565385759,-87.26550000000003,-40.18700000000001,-44.07200000000002
4.500300811999978,20.386848552,4.0342989036,-0.031106693799999998,446.81000000000006,187.74,210.49,21.814885079679996,3.58528574271,-1.7097913888300003,-40.89050000000002,-17.31800000000002,-20.954500000000007
4.5102257689999306,20.3485633904,4.869393991,-0.17706887240000002,513.73,203.84000000000003,240.73000000000002,21.968145367209996,3.6452259488400003,-1.57459691193,7.689500000000004,5.988499999999982,3.3180000000000005
4.521456720999936,18.640088054,4.6348973762,0.6508477471999999,551.74,217.49,259.42,21.974127423709994,3.68710034434,-1.4018351202100003,55.87750000000001,29.52600000000001,27.541500000000006
4.532182675999934,16.185052066399997,4.4434715682,1.8257236438,562.45,205.59000000000003,270.55,21.737118345179994,3.7338800261699996,-1.22021988487,100.43950000000001,51.22950000000001,50.617000000000004
4.542761630999962,14.366506890399998,5.4819565766,2.0745771942,563.22,192.36,302.54,21.296001498869995,3.79896480089,-1.07497555305,140.74550000000005,70.58100000000002,73.5665
4.553435584999988,12.648460263599997,6.1758751306,1.3136596073999998,539.9100000000001,189.21,315.14000000000004,20.736439933859995,3.887738519350001,-0.9674181771800001,176.02550000000002,88.80200000000002,95.96650000000001
4.56415653900001,10.045069274799998,6.343372712599999,0.46420758439999993,509.39000000000004,200.13000000000002,332.50000000000006,20.029959061209993,3.949473342430001,-0.8597411601800001,208.64550000000003,107.11750000000002,118.25450000000001
4.574622494999971,6.5347985206,5.515456092999999,-0.16271193679999998,466.48,219.24,344.12,19.113627646539996,3.9375092294300003,-0.72849484057,238.7875,125.59750000000004,140.385
4.58524644900001,2.0721843715999997,4.283152454,-0.2584248408,426.65000000000003,236.88000000000002,345.17,17.95107478632999,3.85890500702,-0.5435296535899999,267.34399999999994,143.76600000000002,161.4445
4.59527440699992,-3.5653056739999998,2.8091737324,0.5479563754,407.54,242.20000000000002,331.94000000000005,16.458671330709997,3.7170106268399996,-0.27756742159999986,294.553,160.44,180.4915
4.6055613629999925,-8.915657007599998,2.0506489682,1.1054840412,384.58000000000004,234.08,290.92,14.620505009389996,3.578107274909999,0.03457628657000013,319.249,174.09,196.14000000000001
4.614700323999955,-14.153545678999999,1.8113667082,0.3756731482,365.68,222.53000000000003,263.76000000000005,12.506326601159998,3.473062362769999,0.29012974024999993,341.01200000000006,183.93550000000002,209.27200000000002
4.625946275999922,-18.9774760406,2.1463618722,0.4474578262,354.06000000000006,201.39000000000001,239.40000000000003,10.254560893429996,3.446262749649999,0.49998028227,360.24800000000005,189.5355,220.185
4.637153227999988,-24.531217295199994,3.4959138185999996,-0.8518448456000001,353.85,187.95000000000002,237.79000000000002,7.881479079879997,3.5209188147700003,0.5861218958700001,377.9055,192.04149999999998,230.237
4.647920182000007,-26.969503524599997,4.8430729424,0.28235306679999994,412.44000000000005,204.19000000000003,267.75,5.538068266569999,3.6898520903299996,0.6585047795200002,397.14850000000007,194.0505,241.18850000000003
4.6586301359999425,-28.371697568199995,5.4293144793999994,5.4053862534,537.6700000000001,262.71000000000004,294.63000000000005,3.266202848999999,3.9139399268199995,0.87469630143,420.18550000000005,199.199,252.68250000000003
4.668997091999927,-28.467410472199997,9.2578306394,14.6488599572,652.19,322.14000000000004,276.57000000000005,1.048175939929999,4.32323223255,1.49778730647,445.4415000000001,208.1485,262.4685
4.679036048999933,-29.9389963712,14.091332291399997,26.936004008199998,622.3000000000001,328.3,211.33,-1.2719048530299988,4.908516640509999,2.77878488538,465.88500000000005,218.022,267.63100000000003
4.689600003999999,-25.115066009599996,19.267007575199997,32.087751065999996,280.42,257.11,136.78,-3.4236505760799987,5.72554591728,4.35362107957,465.7415,223.88449999999997,267.3895
4.699806960999922,-25.380669318199995,4.3238304382,29.9964241136,-109.62,77.91000000000001,94.08000000000001,-5.657948678829999,5.765386413569999,5.834060422189999,442.0745,219.6495,263.2805
4.710739913999987,-16.577474972799997,-2.6464617955999996,21.662222997799997,-437.50000000000006,-105.84,-8.540000000000001,-7.506164855069999,5.431348378609999,6.918726906769999,397.85900000000004,204.9705,252.329
4.720872870999983,-13.339985995,-9.090333057399999,9.432506689199998,-453.32000000000005,-215.60000000000002,-95.9,-9.190592324339999,4.733362026189999,7.39920568485,349.50650000000013,183.99849999999998,235.49750000000003
4.7322988219999615,-10.808379684199998,-5.807380450199999,3.2877382523999996,-308.28000000000003,-202.3,-131.04000000000002,-10.663015711249999,4.211248134869999,7.53105021011,306.50550000000015,163.009,215.97450000000003
4.743207775999963,-10.863414604,-2.3282163898,1.9549360641999998,-133.63000000000002,-143.15,-107.80000000000001,-12.015439044769998,3.8726637369699994,7.537510831130001,271.7015,145.572,197.05700000000007
4.753592731000026,-12.2249306634,-0.9188438783999999,3.2805597846,-64.54,-107.59,-118.44000000000001,-13.34501092246,3.5526237142199997,7.597809960650001,240.31350000000006,130.5745,176.008
4.763948686999925,-12.954741556399998,-0.8446663778,5.757131175599999,-48.580000000000005,-105.98,-144.34,-14.62517101346,3.2015966387999995,7.81998353906,210.88900000000007,115.81499999999998,153.03400000000002
4.774460642000008,-14.488540843000001,-0.17228322719999997,7.862815063599999,-111.37,-130.76000000000002,-213.15000000000003,-15.851851519350001,2.8758138418099994,8.189913913020002,179.851,99.2705,125.75150000000001
4.784770598000023,-15.8787707736,1.423729447,8.4538422458,-201.04000000000002,-162.61,-264.95000000000005,-16.972529984060003,2.6712275095099995,8.620741622150002,146.475,80.178,95.29799999999999
4.795201553999959,-15.7639152888,3.1872397031999995,7.910671515599999,-294.21000000000004,-183.33,-279.37,-17.86433496708,2.6164318719699997,9.02919643997,110.43200000000002,59.16750000000002,64.071
4.805221511000013,-15.306886172199999,4.266402695799999,6.597011908199999,-350.56000000000006,-180.46,-286.16,-18.45141399199,2.6892933201399996,9.33164921661,72.52700000000002,38.034499999999994,33.16600000000001
4.815755465999928,-12.820743490799998,3.098705267,4.551148585199999,-407.12000000000006,-159.46,-286.58000000000004,-18.646668316150002,2.7416961350800007,9.50393244381,32.94200000000002,18.357499999999995,4.290999999999988
4.82601342199996,-10.0929257268,1.6821542877999998,3.8715869667999994,-457.80000000000007,-127.89000000000001,-287.56,-18.44363731854,2.73523551406,9.67872813474,-8.232000000000003,0.8365000000000066,-23.275
4.836238378999951,-7.6761749007999995,-0.8518448456000001,4.9196432655999995,-501.62000000000006,-103.18,-301.42,-17.878572261549998,2.5853251781699997,9.90233740671,-51.016000000000005,-14.391999999999985,-50.31600000000001
4.8469893330000104,-5.7690952886,-2.6368905051999993,5.903093354199999,-551.6,-92.96000000000001,-326.20000000000005,-16.940466161219994,2.27868496198,10.2400843167,-96.2885,-28.43749999999998,-78.5155
4.85608829399996,-4.256831405399999,-3.5581272061999996,6.374479406399999,-562.1700000000001,-96.60000000000001,-357.70000000000005,-15.804832555259997,1.8586249545499995,10.54469063368,-145.019,-43.47699999999999,-109.78800000000001
4.865398253999956,-3.1633114771999993,-3.8787654345999996,6.7381884416,-568.5400000000001,-124.11000000000001,-381.01000000000005,-14.544413250709999,1.3932209588500002,10.61133074309,-200.3295,-62.818000000000005,-143.57000000000002
4.873760219000019,-1.6821542877999998,-3.5653056739999998,7.058826669999999,-562.87,-120.82000000000001,-394.03000000000003,-13.20515044149,0.7520641431799999,10.231829078729998,-261.08250000000004,-84.96600000000002,-177.10000000000002
4.882125182999971,0.040677984199999996,-2.4406790519999997,6.417550213199999,-545.7900000000001,-134.4,-388.15000000000003,-11.70616672372,-0.07453642399000016,9.205906388979997,-319.48699999999997,-108.101,-207.074
4.890452147000019,2.4861426813999996,-1.2370892841999999,5.158925525599999,-528.22,-150.50000000000003,-374.50000000000006,-10.32610628917,-1.09974126696,7.8594651119600005,-359.919,-128.48150000000004,-232.63800000000006
4.899259110000003,5.1517470578,-0.44027935839999993,3.4815568829999997,-526.82,-183.33,-360.36,-8.799485470369998,-1.3379467567900003,6.53372175043,-380.779,-141.54350000000002,-255.36000000000004
4.907555074000015,8.1140614366,-0.0502492746,1.8855442087999998,-529.4100000000001,-212.52,-352.17,-7.564908649899998,-1.2081361307400003,5.544887810979999,-385.3745,-146.87750000000003,-272.54150000000004
4.915814038999997,10.4159567778,-0.057427742399999995,0.8279166196,-502.18000000000006,-231.35000000000002,-348.6,-6.377111511259999,-0.75649086499,5.1146583075,-387.8175,-147.665,-285.17650000000003
4.924134003999939,12.468998568599998,0.9427721043999999,0.19142580799999998,-454.30000000000007,-234.50000000000003,-341.39000000000004,-5.213242598620001,-0.4189832372600001,4.95984268528,-395.11850000000004,-149.27500000000003,-295.6940000000001
4.932354969000016,14.268401163799998,2.7373890543999995,0.47377887479999997,-397.6,-230.72000000000003,-325.99,-3.956651810230001,-0.16570296505,4.885784825810001,-408.31700000000006,-153.65350000000004,-306.60350000000005
4.941157931000021,15.625131577999998,3.984049629,1.1437692027999997,-347.41,-219.31000000000003,-295.33000000000004,-2.5641486981600012,0.07944171032,4.778945296720001,-422.4605,-159.23950000000002,-315.44800000000004
4.94954389499992,17.824135547399997,3.984049629,2.2253250179999995,-302.12,-206.36,-251.86,-1.0252048429699994,0.32087751066,4.602354988840001,-435.1375000000001,-164.2585,-320.824
4.9578348599999345,20.142780646799995,3.7878381757999997,3.0173492985999992,-256.27000000000004,-197.75000000000003,-211.61,0.7063612315199993,0.5188835808100001,4.36008170059,-442.38250000000016,-167.608,-320.747
4.966169823999962,22.076181307599995,3.7064822074,3.9409788222,-200.69000000000003,-183.68,-184.38000000000002,2.6041088355799986,0.6330212188300001,4.13443852941,-442.3650000000001,-168.6615,-316.71850000000006
4.974493789000007,22.839491716999998,3.9505501125999998,3.8931223702,-148.61,-166.25000000000003,-163.52,4.53427918587,0.6711867393000001,3.9335610721399994,-435.08500000000015,-167.8075,-310.92600000000004
4.982755753999982,23.2630213172,5.3575298014,3.601198013,-113.68,-150.22000000000003,-143.43,6.46277456034,0.7257430945800001,3.78377037738,-423.2410000000001,-166.2955,-303.78950000000003
4.991151717999969,23.030917525,6.838686990799999,3.0197421211999997,-107.73,-139.23000000000002,-124.32000000000001,8.25535761113,0.9127421807699998,3.7072000541800003,-408.27149999999995,-165.284,-295.6765
4.999554681999939,22.396819536,7.721638530200001,1.8999011443999998,-122.15,-136.22,-98.98,9.87984487427,1.21471639289,3.60861576306,-391.489,-165.7005,-286.2475
5.007807646999936,22.7007080062,7.432106995599999,1.256231865,-132.16000000000003,-128.38000000000002,-62.300000000000004,11.398689019619999,1.62891398495,3.42544519303,-373.01599999999996,-166.9605,-274.2915
5.016088611999976,23.246271559,6.594619085599999,0.33020951879999993,-118.23000000000002,-105.49000000000001,-23.17,12.849457361999999,2.09048946449,3.146801001259999,-351.3475,-167.587,-259.14
5.024475575999986,23.784656644,5.347958511,-0.5335994398,-85.4,-76.09,8.120000000000001,14.251531764469997,2.53579375035,2.801397058949999,-327.509,-166.56149999999997,-240.84900000000002
5.04012150899996,23.009382121599998,2.9383861527999997,-2.1559331626,1.4000000000000001,-16.59,53.620000000000005,15.560166444409997,2.8766513297200005,2.3566909787399988,-299.012,-161.1855,-219.11749999999998
5.04855347299997,22.262821470399995,2.2181465501999997,-2.8378876036,23.87,20.160000000000004,70.91000000000001,16.75741523232,3.16582394093,1.8618552650599987,-269.67500000000007,-154.1365,-195.87050000000005
5.0568274380000275,20.886948475399997,2.1343977592,-2.7517459899999994,39.900000000000006,59.99000000000001,84.91000000000001,17.79972875688,3.3945777814900007,1.4033904548999996,-240.39050000000003,-144.417,-172.21750000000006
5.065128402000028,19.6498591912,2.1631116304,-2.237289131,66.57000000000001,93.17000000000002,94.01,18.65791458237,3.56458782722,1.0335797220700003,-210.65100000000007,-132.23350000000005,-148.79200000000006
5.0734493669999665,18.352949342,2.8905297008,-1.0265208954,101.92000000000002,115.08000000000001,112.70000000000002,19.317974696579995,3.7311282801800005,0.80817583315,-179.214,-117.31300000000006,-125.13900000000005
5.081550332000006,18.039489581399998,3.976871161199999,0.1004985492,152.18,126.63000000000001,133.49,19.814246103820004,3.9324843019699998,0.71892355017,-145.1345,-100.35550000000003,-100.85600000000005
5.089900296999986,18.376877567999998,4.677968183,1.3734801723999999,219.94000000000003,127.4,164.64000000000001,20.21229214333,4.16925409824,0.7462017278099999,-109.02850000000001,-82.41800000000005,-75.19400000000005
5.098143261000018,18.685551683399996,4.864608345799999,1.6510475939999998,271.88000000000005,126.56000000000002,212.59000000000003,20.52311979907,4.365345910309999,0.8191828171100001,-72.71950000000001,-64.365,-47.49499999999999
5.106376225999952,18.9248339434,4.816751893799999,1.2945170265999997,340.27000000000004,123.27000000000001,223.72000000000003,20.755941438049998,4.46931405228,0.8602197247,-35.826,-46.665499999999994,-20.009500000000003
5.114877190000016,20.1882442762,3.7663027724,1.088734283,371.00000000000006,126.77000000000001,246.61,20.98409707296,4.45842670945,0.8574679787099999,0.09449999999999932,-29.36149999999999,7.087500000000017
5.123660152999946,21.135802025799997,3.4839497056,0.6101697629999999,370.44000000000005,137.55,261.17,21.149680396879997,4.43342171328,0.7767102159599999,33.72250000000001,-12.165999999999993,32.739
5.1317261179999605,21.5210464644,2.4933211492,0.5192425042,376.67,154.49,266.0,21.21859368776,4.36869586195,0.6518048762399999,65.36950000000002,5.446000000000008,56.6195
5.1401490819999935,21.308085253,1.7635102562,1.0528419439999999,388.43000000000006,170.8,267.12,21.18018888503,4.27154726439,0.5073980323299999,94.8255,23.169999999999998,79.19450000000002
5.148295048000023,20.621345166799998,1.7778671918,1.8879370314,404.67,178.01000000000002,267.12,21.069281557519997,4.16291311835,0.40713876538999993,122.48950000000002,40.383,100.72650000000002
5.163736981999932,19.3986128182,2.5459632463999995,3.4887353508,478.45000000000005,169.75000000000003,298.20000000000005,20.876061132569998,4.022334790599999,0.4015156322799999,152.096,56.381499999999996,122.80799999999999
5.17417693699997,15.409777543999997,5.347958511,2.5579273594,529.48,154.14000000000001,336.28000000000003,20.49500413352,3.9477983666100003,0.3784248941899999,183.95650000000003,71.05000000000001,145.83800000000002
5.184463892999929,12.1244321142,5.3168518172,1.7180466268,530.6700000000001,147.49,373.8,19.981384762429993,3.82755903096,0.3693321683099999,216.59750000000003,85.2355,169.47700000000003
5.195040847999962,7.276573526599999,4.9316073786,0.8566304908,496.65000000000003,152.18,394.45000000000005,19.210178038449996,3.7025340501099997,0.34935209959999985,248.038,99.26350000000001,192.31450000000004
5.20555380299993,3.3451659947999994,3.5341989802,0.4761716973999999,448.21000000000004,177.94000000000003,392.91,18.215122760239996,3.5495130448400003,0.35665020852999985,276.36,113.43500000000002,213.11850000000004
5.21603375899997,-2.7373890543999995,1.088734283,1.1988041226,402.64000000000004,164.57000000000002,365.47,16.889020475319995,3.3365518334399993,0.4432703866499998,300.762,125.468,230.98600000000005
5.226560714000016,-10.164710404799997,0.7106683122,0.0167497582,368.13000000000005,135.87,327.25000000000006,15.230315848999997,3.22516594141,0.5519045326899998,319.0985,133.091,244.66750000000008
5.237296667999999,-16.8765777978,0.5934200048,-1.2059825903999999,369.46000000000004,108.36000000000001,299.46000000000004,13.273345885589995,3.1439296141399997,0.63349978335,336.378,137.50100000000003,256.095
5.247744623000017,-24.729821571,1.0743773474,-4.3453658416,400.68000000000006,127.19000000000001,288.33000000000004,10.992507383269999,3.0909285935500006,0.5538187907700001,354.41700000000003,140.86100000000002,266.266
5.258264577999967,-29.907889677399996,2.7708885708,-4.809573425999999,440.30000000000007,180.53000000000003,310.24,8.51461993984,3.12131744057,0.42520457601999995,373.10350000000005,145.229,277.0775
5.268761533999964,-31.673792756199997,4.1252261624,-1.3591232368,533.47,255.85000000000002,343.98,6.013282834930001,3.1830522636499996,0.40857445894999983,394.68100000000004,152.2675,288.6415
5.279450487999952,-34.4638239078,3.9242290639999995,6.960720943399999,678.1600000000001,314.44000000000005,356.16,3.38811716047,3.18042015879,0.75158557866,420.98,161.65800000000002,299.775
5.2899254430000155,-36.4402953754,5.620740287399999,20.9156623466,780.6400000000001,343.70000000000005,313.81,0.6472585133000006,3.22755876401,1.72869468737,449.01500000000004,172.47300000000004,307.23350000000005
5.300229398999932,-34.083365114399996,11.928220661,34.401610520199995,659.33,307.16,191.03000000000003,-1.9911873265899995,3.5807393797700002,3.3662228336799997,468.3875000000001,181.50300000000001,306.1555
5.310558355000012,-30.101708307999996,7.5900332872,35.832518435,170.94000000000003,108.22000000000001,145.39000000000001,-4.442514439159998,3.71940344944,5.0931229040999995,459.9210000000001,180.75050000000005,302.239
5.321022310999979,-21.9326119516,-3.1058837348,27.780670385999997,-194.25000000000003,-103.60000000000001,34.790000000000006,-6.548557250549999,3.3757941240799996,6.427719709249999,431.6585000000001,169.23200000000003,291.648
5.331428265999989,-16.165909485599997,-7.8747791766,14.055439952399999,-342.02000000000004,-214.20000000000002,-88.27000000000001,-8.413642826119998,2.807857679969999,7.09998321872,396.03550000000007,151.64450000000002,274.17600000000004
5.342136220999919,-13.775479708199997,-5.8887364186,6.084947871799999,-303.31,-227.57000000000002,-157.36,-10.17846913475,2.3887548015799998,7.3782684871,362.03650000000005,132.5415,253.00800000000004
5.35251017600001,-12.411570826199998,-2.1870398563999998,3.7136606751999994,-182.77,-174.79000000000002,-163.45000000000002,-11.86445193871,2.1912272959499997,7.51130942366,333.47649999999993,115.26200000000001,231.47950000000006
5.364062127000011,-13.409377850399999,-0.24406790519999996,4.1108692268,-86.52000000000001,-135.8,-162.47000000000003,-13.565988089569998,2.0901305410999997,7.62245603343,308.9169999999999,99.5715,210.0
5.374618081999984,-15.275779478399999,0.6508477471999999,6.1758751306,-75.53,-139.09,-181.44000000000003,-15.299707704399998,1.9953747661399999,7.756813022419999,281.21799999999996,84.12950000000001,186.018
5.385011038000016,-15.211173268199998,1.1461620253999998,7.0540410248,-114.80000000000001,-167.37,-214.97000000000003,-16.83075524501,1.7852849418599999,7.981618705689999,249.00399999999996,68.054,158.45549999999997
5.39540999299993,-14.5292188272,2.8402804261999997,6.2715880346,-164.50000000000003,-202.58,-244.09000000000003,-18.16343779208,1.6614563723099998,8.20929577608,214.24549999999994,50.55050000000003,127.561
5.405674948999945,-13.289736720399999,5.790630692,4.8287160068,-203.98000000000002,-213.29000000000002,-255.92000000000002,-19.19175330443,1.7044075379799994,8.407900051879999,179.21399999999988,32.27700000000001,95.04250000000002
5.416180904999919,-11.901899612399998,6.9702922337999995,4.074976887799999,-226.59000000000003,-198.73000000000002,-252.91000000000003,-19.954106584790004,1.8762122006599995,8.587840311399999,145.47399999999996,13.443500000000038,62.75150000000002
5.426999857999931,-9.9756774194,6.508477471999999,3.5629128513999997,-275.59000000000003,-170.03000000000003,-243.04000000000002,-20.31602100304,2.1471993601099997,8.70604574784,111.56249999999996,-3.286499999999978,32.32600000000001
5.437647813000012,-8.027919823,5.1110690735999995,2.8450660714,-343.98,-135.66000000000003,-244.65000000000003,-20.20918147395,2.3672193981799996,8.8474615635,75.95699999999997,-16.862999999999985,3.730999999999983
5.447920769000007,-4.6348973762,2.787638329,2.8211378453999996,-432.81000000000006,-62.580000000000005,-254.10000000000002,-19.59709745287,2.4769303143899997,9.04881758529,35.84350000000001,-25.40999999999999,-23.947000000000017
5.458027725999955,-2.1320049365999996,0.39960137419999997,4.2807596314,-544.8100000000001,-15.890000000000002,-275.73,-18.46720662115,2.4431915157299997,9.480123858939999,-11.430999999999983,-32.56399999999999,-52.15000000000002
5.468536680999932,-0.4139583098,-1.4620146085999999,5.8695938378,-637.5600000000001,24.080000000000002,-301.00000000000006,-16.99251005277,2.23154635676,10.01408222213,-65.32399999999998,-40.386500000000005,-82.71200000000002
5.479177635999918,-0.17706887240000002,-4.266402695799999,7.8676007087999995,-670.8800000000001,41.440000000000005,-328.86,-15.417673858580002,1.8119649138500002,10.475418419410001,-125.5415,-51.107000000000006,-116.35400000000001
5.489744590999976,-0.19381863059999999,-5.3455656884,8.530412569,-658.49,35.49,-355.39000000000004,-13.70417359472,1.34847517623,10.55390300069,-192.37399999999997,-65.0545,-151.93150000000003
5.500426544999982,-0.43788653580000003,-5.9126646445999995,7.441678286,-645.6800000000001,9.24,-360.57000000000005,-11.904053152739998,0.77180492963,9.88020379766,-263.69,-81.7775,-185.65050000000002
5.510943499999939,1.9381863059999997,-4.8670011684,5.850451257,-637.4200000000001,-11.340000000000002,-356.79,-10.102975581719999,-0.0679561618400002,8.4526458345,-328.52750000000003,-97.7025,-213.04150000000004
5.521344455999952,5.1397829447999985,-4.9124647978,2.9359933301999996,-677.3900000000001,-41.02,-344.05,-8.340901019079997,-0.6930810660900002,6.8078195792599985,-370.9440000000001,-105.16450000000002,-237.51350000000002
5.531597411999996,10.006784113199998,-3.2087751065999996,2.0602202586,-654.6400000000001,-63.35000000000001,-349.09000000000003,-6.743931215839998,-0.6982256346800002,5.521797072889999,-393.9635,-103.152,-256.70750000000004
5.542292366999959,13.004990830999999,-1.3256237203999999,1.4763715442,-616.7700000000001,-62.230000000000004,-343.28000000000003,-5.28538620001,-0.37076786187,4.892843652480001,-407.7010000000001,-95.5535,-269.458
5.553138320000016,16.3573352936,-0.5479563754,2.380858487,-549.4300000000001,-49.910000000000004,-324.38000000000005,-3.7787454499199997,-0.1037288597100002,4.7076391832399995,-420.00700000000006,-86.6705,-277.8090000000001
5.562406280999994,17.395820301999997,-1.3447663011999997,4.3118663252,-440.16,-34.720000000000006,-298.27000000000004,-2.2883758935099996,-0.061615181950000264,4.737549465740001,-432.8765,-79.667,-284.55000000000007
5.573432233999938,16.7904361842,-3.4408788988,8.0494552264,-284.83000000000004,-22.05,-238.49,-0.7783851917799998,-0.22145573163,4.93447876572,-442.7920000000001,-73.9795,-288.351
5.583692189999965,16.9459696532,-5.4723852862,11.023733718199999,-89.18,-16.1,-170.66000000000003,0.8327022648,-0.5276173833000002,5.1768716951,-443.4745000000001,-67.83,-287.812
5.593529148000016,16.6109744892,-4.9340002012,12.043076145799999,80.08000000000001,-33.67,-139.86,2.4238096526699993,-0.8316254946300002,5.42632345115,-433.7305000000001,-61.145,-284.0565
5.605072098999926,15.562918190399998,-3.8548372086,11.461620254,164.22000000000003,-75.81,-132.79000000000002,3.9284165035500003,-1.16638137637,5.685825062119998,-417.29450000000014,-54.80649999999999,-278.49150000000003
5.61564505399997,15.596417706799999,-1.2107682356,9.3511507208,138.04000000000002,-103.39000000000001,-135.94000000000003,5.37272422491,-1.51645132275,5.911946797819999,-400.19350000000014,-49.311499999999995,-272.4925
