,time_ms,delta_ms,aX,aY,aZ,gX,gY,gZ
0,0.0,0,6.858068853859999,-7.412725132539999,1.7661423610599996,-7.525000000000001,5.880000000000001,-13.307000000000002
1,9.641972999816062,9,7.153343162699999,-6.952585346559999,1.7376677721199996,-4.081000000000001,8.036000000000001,-13.825000000000003
2,19.397946000026423,9,7.4048288179599995,-6.48311355244,1.7486747560799998,-0.23099999999999987,10.185,-14.385000000000002
3,28.912920000038866,9,7.63095055366,-5.99210635492,1.7934205387,3.332,12.327000000000002,-14.889
4,38.37589399972785,9,7.820222821319999,-5.46185686676,1.8498911520599997,6.279000000000001,14.168000000000001,-15.26
5,47.855869000159146,9,7.917849983399998,-4.902175660619999,1.90875458802,6.734,13.846,-15.322999999999999
6,57.377841999368684,9,8.04131962956,-4.30660211548,1.9446469270199997,8.477000000000002,14.714000000000002,-14.665000000000001
7,66.90381599946704,9,8.12315416248,-3.69954302186,1.95230395934,10.080000000000002,14.882000000000001,-13.286000000000001
8,76.46079000005557,9,8.161439324079998,-3.0857840249599997,1.93507563662,12.173000000000002,14.413000000000002,-10.843000000000002
9,85.94476399957784,9,8.15808937244,-2.4923640201599997,1.9034903782999997,15.022,11.921000000000003,-7.4410000000000025
10,95.55873799945402,9,7.723552788279998,-2.4622144554,1.9424933866800003,14.882000000000001,9.576,-5.138000000000001
11,105.06971199993131,9,7.23852764726,-2.46484656026,1.9657037659,14.35,6.657000000000001,-2.2470000000000003
12,114.54268599936768,9,6.7465633207,-2.5129422945199997,1.9903498386799998,13.307000000000002,3.437000000000001,1.1340000000000003
13,124.1206599997895,9,6.271348752339999,-2.60985160982,2.00063897586,11.585000000000003,-0.2029999999999994,4.886000000000001
14,133.5126339999988,9,5.83465862784,-2.7349962318,2.01691016954,9.338000000000005,-4.095000000000001,9.058000000000002
15,143.26360699942597,9,5.5334022625,-2.8948367814799996,2.02456720186,8.421000000000003,-6.783000000000001,13.692000000000002
16,152.48658200016507,9,5.25487771186,-3.09487675084,2.02959212932,5.2780000000000005,-13.272000000000002,18.585
17,161.68755699982285,9,5.06512687968,-3.31310217196,2.0362920325999996,1.8690000000000015,-18.438000000000002,23.541000000000004
18,170.91853100009757,9,5.00841698406,-3.53826677862,2.0513668149799997,-2.1350000000000002,-23.793000000000003,28.154000000000003
19,180.08850600017468,9,4.94285364482,-3.7435709577,2.0863020249399993,-7.063000000000001,-28.049,31.913000000000004
20,189.15548199947807,9,4.9715675160199995,-3.83641247458,2.14492617864,-12.845000000000002,-34.468,34.062000000000005
21,198.3044560001872,9,5.250092066659999,-3.772524111159999,2.2222143486199997,-21.196000000000005,-41.00600000000001,35.32900000000001
22,207.40143199964223,9,5.704967642919999,-3.4849068346399994,2.29519543792,-27.986,-48.398,36.750000000000014
23,216.66640599960374,9,6.4558353748,-2.919243572,2.4564716811599996,-33.642,-56.83300000000001,39.732000000000006
24,225.73538100004953,9,7.49455966546,-2.10137680732,2.6797220297399997,-38.318000000000005,-66.45100000000002,44.31700000000001
25,234.8803559998487,9,8.73236679644,-1.0238887905400003,2.9486752899799997,-42.665000000000006,-76.74800000000002,50.673
26,243.97533100000146,9,10.29583708328,0.21272192913999985,3.2743384458399993,-45.51400000000001,-84.71400000000001,58.345000000000006
27,253.1673059993409,9,12.12371426742,1.7465212157399996,3.60646222272,-45.22700000000001,-93.02300000000001,67.50800000000001
28,262.3712810000143,9,14.17005615494,3.527977641439999,3.84263381334,-41.692000000000014,-99.72900000000001,80.28300000000002
29,271.59925599971757,9,16.43462346358,5.446064237599999,4.06516631514,-34.30700000000001,-104.25100000000002,97.59400000000002
30,280.6742309994661,9,18.79753578108,7.387361212979998,4.05392004892,-24.066000000000003,-105.02800000000002,122.04500000000003
31,289.7782059999372,9,21.343977591999998,9.132686017419998,3.7325639737399996,-10.346000000000002,-102.65500000000002,149.78600000000003
32,298.96318099963537,9,23.98708943596,10.47529877828,2.87593348294,2.190999999999998,-98.504,180.292
33,308.1661559999702,9,26.48806761748,11.406824616459998,1.0645667747399998,13.37,-92.97400000000002,211.43500000000003
34,317.3671300000933,9,28.812216208859997,11.910513773759998,-1.6146766904800003,27.083000000000006,-84.126,239.76400000000007
35,326.5281049998521,9,30.81907652348,11.992587588940001,-5.01009195988,47.628,-65.912,261.92600000000004
36,335.73207999961596,9,32.38948599586,11.98828050826,-8.53806960132,83.524,-37.00200000000001,276.5000000000001
37,344.6310559993435,8,33.41720330256,11.81169020038,-11.545369044999997,130.473,3.2409999999999997,286.783
38,353.8370309997845,9,33.90414270166,11.660224529799999,-13.362717809699998,184.96800000000002,46.165000000000006,294.427
39,362.99000599956344,9,33.61150049768,11.508280294699999,-14.310514841559998,239.93200000000002,83.888,304.64700000000005
40,372.02198100021633,9,32.56966553764,11.083554283199998,-14.550754230599997,288.701,112.53900000000002,315.70700000000005
41,381.08695600021747,9,30.18521781674,10.506405472079997,-14.902499152799999,327.901,132.79700000000003,329.75600000000003
42,390.1989309997589,9,25.761367393860002,9.453084963559998,-14.894842120479998,366.996,150.61200000000002,334.57900000000006
43,399.38390599945706,9,20.21552245384,7.9891560968799995,-14.096835783379998,411.369,172.71800000000002,322.75600000000003
44,408.41888100021606,9,14.25093355882,7.40363240666,-12.161760146759999,448.07700000000006,195.70600000000002,303.884
45,417.5428560001819,9,8.396653785660002,8.00327375022,-9.622736085899998,471.821,214.75300000000001,297.899
46,426.71083099958196,9,1.9946569193600001,9.53037313354,-7.276573526600001,481.16600000000005,226.352,312.97700000000003
47,435.7618059993911,9,-5.348437075519999,11.020383766559998,-5.128775960839999,487.36100000000005,228.9,341.62800000000004
48,444.79378199957864,9,-13.830036063479998,12.0502546136,-3.535873956019999,500.689,225.93900000000002,371.51800000000003
49,453.88175700009015,9,-22.590159602079996,12.63338548122,-1.6898113201199998,522.963,216.95800000000003,383.523
50,463.00973199959117,9,-30.725756442079994,13.131810428799998,0.8975477572600002,555.394,208.13100000000003,379.274
51,472.0977070001027,9,-36.87770334667999,13.477573294499999,5.1938607355599995,592.0530000000001,203.44800000000004,365.80600000000004
52,481.1786820000634,9,-40.37720639918,13.64794226362,11.46305594756,613.3190000000001,200.984,353.64000000000004
53,490.2316569996401,9,-41.92153410521999,13.324911212619998,18.5120720449,587.1250000000002,193.08800000000002,345.52700000000004
54,499.50063199958095,9,-42.4821724404,11.576475738799997,23.33983092266,519.6170000000002,172.872,324.023
55,511.8355979993794,12,-42.007197154299995,10.589914980819998,25.097359122359997,417.68999999999994,143.47899999999998,278.14500000000004
56,520.9655729995575,9,-39.900795419519994,9.928299531919999,24.596780634439998,317.2540000000001,108.89899999999997,214.42399999999998
57,529.9745479997,9,-35.53820125519999,9.655278473260001,22.791395982739996,232.27399999999997,68.98500000000001,149.01600000000002
58,539.0275230001862,9,-29.795427015199998,9.24730221996,20.74553265974,159.572,35.39900000000001,90.51700000000001
59,548.3394980001322,9,-23.54609223078,8.60841858576,19.0121719683,89.44600000000003,17.535000000000004,49.91700000000001
60,557.4134729995421,9,-17.846628079840002,7.7178100140399994,17.236458316839993,15.87599999999999,10.065999999999999,17.444000000000013
61,566.6104479996648,9,-13.633824610280001,6.759005998219999,14.963276846839998,-56.18900000000002,2.8349999999999986,-14.721000000000004
62,575.652423000065,9,-10.621500239140001,6.389075624259999,11.49488048814,-118.77600000000004,-6.517000000000001,-49.238
63,584.831397999551,9,-8.874021894359998,6.992545483979998,7.483791963759998,-149.20500000000004,-20.02,-78.97400000000002
64,594.0613729999313,9,-7.9843704516799985,8.302376575219999,4.921557523679999,-144.00400000000005,-25.809000000000005,-91.23100000000002
65,603.2423480000944,9,-8.37296484192,7.874539894339998,4.852165668279999,-107.77200000000002,-27.881,-91.09800000000001
66,612.6213219995407,9,-9.983573733979998,6.17180733218,6.662335965179999,-78.456,-27.853,-90.23
67,621.7922969999563,9,-12.89061391072,3.9751961853799997,9.31238699468,-76.482,-24.29,-101.297
68,630.9612719996949,9,-16.013247403719998,2.2047467436399995,11.71956653028,-106.372,-22.666000000000004,-124.796
69,640.6272449994503,9,-18.89396653186,1.0578668714600001,12.805907990679998,-155.16900000000004,-25.116000000000003,-159.033
70,649.7862199994415,9,-21.11737729178,0.54412785924,12.67430274768,-212.352,-31.185000000000002,-194.6
71,658.9451949994327,9,-22.588723908520002,0.6977470701599999,11.51928727866,-269.668,-36.708,-227.906
72,668.1361699993431,9,-23.32906322096,1.2693923892999999,9.6323073763,-321.87399999999997,-42.063,-254.82800000000003
73,677.3091449995263,9,-23.48722879482,1.9702501288399996,7.441678285999998,-362.45300000000003,-43.336999999999996,-276.857
74,686.5641189997405,9,-23.2247361556,2.69766819924,5.571687424099999,-392.84000000000003,-43.001000000000005,-294.623
75,695.6050949993369,9,-22.38198403588,3.2709884941999996,4.236970977819999,-414.36500000000007,-40.425000000000004,-309.057
76,704.7590699994544,9,-20.829042168479997,3.7557743529600005,3.5454452464199995,-431.9000000000002,-36.49100000000001,-319.844
77,713.8740450000114,9,-18.16008784044,4.10560501708,2.72351068332,-447.76900000000006,-33.992000000000004,-328.90200000000004
78,723.0110199998308,9,-14.718251812599998,4.13623314636,1.6888541910800001,-459.96999999999997,-35.021,-335.59400000000005
79,732.0419950001451,9,-10.615757464900001,3.9058043299799996,0.6101697629999998,-465.276,-36.162000000000006,-339.89200000000005
80,741.2609699995301,9,-5.89974340256,3.4930424314800006,-0.25483560689999996,-461.055,-35.504000000000005,-341.908
81,750.3599450001275,9,-0.9162117735400017,2.9972495887600004,-0.6570690859599998,-455.84700000000004,-32.886,-342.321
82,759.4819199994163,9,3.9527036529399995,2.5232314317,-0.5443671414999999,-450.35200000000003,-29.666000000000004,-341.59300000000013
83,768.6368949998723,9,9.009694935779999,2.1784256950400005,0.025842484080000006,-441.5460000000001,-27.286,-339.12200000000007
84,777.7008699995349,9,14.066446936359998,1.9412969753799998,0.91118684608,-428.47700000000015,-27.398000000000003,-332.96200000000005
85,786.7828449998342,9,18.8638169671,1.7625531271599997,2.02648145994,-408.8070000000001,-30.373,-320.908
86,795.797820000189,9,23.0476672832,1.4187045195399999,3.2262427115800003,-382.5850000000001,-37.779,-308.812
87,804.9907949998669,9,26.19733967158,1.23397861482,4.7006999977,-354.1160000000001,-42.72800000000001,-296.002
88,814.0717699998277,9,28.6313188203,1.4438291568400001,6.118686670459999,-326.466,-45.10800000000001,-282.77200000000005
89,823.1747449999602,9,30.373054390839997,2.0968304443799997,7.18229631616,-297.9410000000001,-45.584,-267.218
90,832.3947199996837,9,31.28806975308,2.9804998305599995,7.689096142839999,-267.4630000000001,-50.036000000000016,-247.28200000000007
91,841.4396950001901,9,31.434749778459995,3.7325639737399996,7.66277509424,-225.14100000000002,-57.001,-223.62200000000007
92,850.5326699996658,9,30.968867218239996,4.0740197587599996,7.0408805005,-173.60700000000003,-63.74900000000001,-194.67700000000002
93,859.6036459994139,9,29.568587432719994,3.9888352741999995,5.90524689454,-119.86100000000006,-66.69600000000001,-162.93200000000002
94,868.8166199999614,9,27.363840689079996,3.4954352540799993,4.5473200690399995,-66.675,-64.86200000000001,-132.566
95,878.0145949995131,9,24.77097811972,2.7337998205,3.06664144416,-17.765999999999995,-58.95400000000001,-107.926
96,887.2165699995094,9,21.991714669819995,1.9544574996799995,1.5773486579199998,23.303000000000008,-48.88100000000001,-86.29600000000002
97,896.4065449999907,9,19.21173337314,1.0155139114399996,0.18161523534000001,58.471000000000004,-39.872,-66.01700000000002
98,905.5025199995725,9,16.516457996499998,-0.21487546948000028,-0.9312865559199999,89.83800000000001,-31.667999999999996,-46.10900000000001
99,914.6664949994374,9,13.917613370639998,-1.7357535140400002,-1.7292928930199998,114.48500000000001,-26.74,-27.482000000000006
100,923.9094699996713,9,11.339825583659998,-3.4578679392599994,-2.16143665458,130.382,-20.454,-15.883000000000001
101,933.1204439995417,9,8.95561714502,-5.148636388419999,-2.3303699301400003,134.358,-12.789000000000001,-8.526000000000002
102,942.3454190000484,9,6.9894348146,-6.51182742364,-2.3210379220000004,127.58900000000001,-4.417000000000001,-8.078
103,951.5453939993677,9,5.520002455939999,-7.512027270439999,-2.1107088154599998,113.75700000000002,2.6949999999999994,-12.264000000000001
104,960.6253689998994,9,4.75429922394,-8.16287501764,-1.85252325692,96.15200000000002,8.323,-19.614
105,969.7853440002291,9,4.295116567,-8.40431081798,-1.5275779478399998,76.67100000000002,12.348,-27.909000000000002
106,978.8533189994268,9,4.22500686482,-8.3449688175,-1.2177074211399999,57.81300000000001,15.582000000000003,-35.448
107,988.1082940000852,9,4.35565497878,-8.023373460059997,-0.9336793785199997,41.839,17.738,-41.909000000000006
108,997.2332689994801,9,4.597569343639999,-7.618747158399998,-0.67429740868,28.490000000000002,19.019,-47.831
