,time_ms,delta_ms,aX,aY,aZ,gX,gY,gZ
0,0.0,0,6.3637117047,-7.79533746628,0.14404792051999998,2.1630000000000003,-1.7220000000000002,-2.1770000000000005
1,10.476972000105889,10,6.698467586439999,-7.213642292219999,0.22061824372,2.4010000000000002,-3.2270000000000003,-1.988
2,20.074944999578292,9,7.033941314959999,-6.624529368099999,0.2907279459,2.4150000000000005,-4.753,-1.5820000000000003
3,29.614918999868678,9,7.3560152369199985,-6.03302362138,0.35174492220000003,2.2610000000000006,-6.3420000000000005,-0.9660000000000002
4,39.092893000088225,9,7.66229652972,-5.454439116700001,0.3960121403,2.0020000000000002,-8.05,-0.26599999999999957
5,48.71086700040905,9,7.943453185219999,-4.897868579940001,0.42616170506,1.7570000000000003,-9.828,0.5180000000000003
6,58.18184100007784,9,8.19924592116,-4.3688155030799996,0.44697926168,1.5120000000000005,-11.648,1.0850000000000002
7,67.77581499954977,9,8.45934573778,-3.84622304724,0.46013978597999994,1.26,-13.391,1.3790000000000002
8,77.3647890000575,9,8.73930598198,-3.3123843251799996,0.47258246349999994,0.8539999999999999,-15.175999999999998,1.6590000000000003
9,86.854762999792,9,9.05061220224,-2.7584458932799993,0.48239303615999996,0.196,-16.863000000000003,3.927000000000001
10,96.41473600004247,9,8.99174876628,-2.8132415308199996,0.45511485852,-0.5740000000000001,-16.422,3.9970000000000008
11,106.52570900037972,10,8.97452044356,-2.86014085378,0.42305103568,-1.372,-16.163000000000004,3.9550000000000005
12,115.73968300035631,9,8.94963508852,-2.9120651041999994,0.39864424515999997,-2.072,-16.016000000000002,3.8570000000000007
13,124.89565800024138,9,8.93049250772,-2.96135724976,0.37830525306000007,-2.576,-15.995000000000005,3.5980000000000003
14,134.14163299967186,9,8.92211762862,-2.9934210725999995,0.37136606752,-2.982,-16.03,3.2970000000000006
15,143.22960800018336,9,8.9084785398,-3.0094529840199993,0.37591243046,-3.3320000000000007,-16.205000000000005,3.0310000000000006
16,152.3525829998107,9,8.89866796714,-2.9950960484199993,0.40654055974,-3.5980000000000003,-16.401000000000003,2.7930000000000006
17,161.4935580000747,9,8.9036928946,-2.9515466770999996,0.44243289874,-3.871000000000001,-16.856,2.681
18,170.55653300030826,9,8.925228298,-2.8864619023799993,0.4756931328799999,-4.207000000000001,-17.5,4.634
19,179.69150800036005,9,8.9395852336,-2.826162772859999,0.5084748025,-4.648000000000001,-18.536,3.1290000000000004
20,188.82948299960844,9,8.9455672901,-2.76993144176,0.53455656884,-5.187,-19.922,3.4160000000000004
21,198.02845800040814,9,8.961599201519999,-2.70460738478,0.54221360116,-5.964,-21.573999999999998,3.738000000000001
22,207.3084329995254,9,8.983134604919998,-2.6129622792,0.5130211654399999,-7.147000000000001,-23.324,4.144000000000001
23,216.44240800014813,9,9.002037903459998,-2.48518555236,0.45535414078,-8.421000000000001,-25.067,4.564000000000002
24,225.62238299997261,9,9.012566322900001,-2.32917351884,0.37495530142,-9.569,-26.754,5.033000000000001
25,234.87935699995433,9,9.028598234319999,-2.1415762269999994,0.27349962317999993,-10.185,-28.147000000000002,5.502000000000002
26,244.06533199999103,9,9.069994065299998,-1.93507563662,0.14620146085999994,-10.206,-29.463000000000005,6.167000000000002
27,253.19630699959816,9,9.096315113899998,-1.7276179172,0.025363919559999983,-9.492,-30.478,7.119000000000002
28,262.36028200037254,9,9.144889412679998,-1.49001063302,-0.09786644434000001,-8.442000000000002,-30.835,6.412000000000001
29,271.4502569997421,9,9.217870501979998,-1.1940184774,-0.21128623557999998,-7.301000000000002,-30.415000000000003,8.225000000000001
30,280.6302319995666,9,9.363114833800001,-0.8322237002800001,-0.31441688964,-6.097000000000002,-29.239000000000004,11.165000000000001
31,289.7362069998053,9,9.538030165859999,-0.4177868259600002,-0.35509487384,-4.312,-27.489000000000004,15.267000000000001
32,298.89418200036744,9,9.82397246656,0.047617169739999986,-0.39816568064,-1.2109999999999999,-25.522000000000006,21.000000000000004
33,308.03515699972195,9,10.217352501999999,0.59294144028,-0.37854453532,3.4370000000000003,-23.394000000000002,30.835
34,317.21513199954643,9,10.78493002272,1.3363914220999997,-0.22660030022000002,9.877,-21.021,42.462
35,326.38310699985595,9,11.569297270999998,2.2049860259,-0.042352960020000066,17.913000000000004,-17.465,57.281000000000006
36,335.47308200013504,9,12.631949787659998,3.2480173972399995,0.19956140483999993,26.719000000000005,-11.570999999999998,75.299
37,344.59005699955014,9,14.174841800139998,4.417389801859999,0.47904308451999994,36.106,-3.7590000000000017,97.006
38,353.67803200006165,9,16.08742490432,5.77459878058,0.78412796602,45.864,5.25,121.037
39,362.80300700036605,9,18.60371715048,7.156693114339999,0.9087940234799999,53.70400000000001,14.924000000000001,146.839
40,371.9339819999732,9,21.67514423984,8.659146424880001,0.7668996432999998,56.112,24.43,174.67100000000002
41,381.1039570000503,9,25.01863525882,10.29535851876,0.08925228297999999,56.854000000000006,33.79600000000001,203.06300000000002
42,390.11093200042524,9,28.40376139104,12.18401339694,-1.328016543,59.920000000000016,44.653000000000006,231.34300000000002
43,399.32890700038115,9,31.796305273319994,14.2755796316,-3.16139721912,76.30700000000002,60.172000000000004,258.209
44,408.4368820003874,9,34.64831053026,16.3357998902,-5.0330630568400005,107.14200000000001,78.022,290.47200000000004
45,417.51785700034816,9,36.60372515898,18.37472402766,-6.29096989766,149.632,96.88000000000001,326.98400000000004
46,426.5508319995206,9,36.74442312786,20.131534380579996,-7.19904607436,197.33700000000002,112.833,369.06800000000004
47,435.7268069998099,9,34.3190581405,20.6297200459,-7.42468924554,243.173,128.702,407.2110000000001
48,444.86578200030635,9,29.421428842820006,19.937476467719996,-7.0267628471600005,285.24300000000005,142.67400000000004,431.43100000000015
49,453.98475700039853,9,23.521446158,19.392630761699998,-6.470192310400002,318.2130000000001,147.672,444.9620000000001
50,463.09673199993995,9,16.48941910112,19.12607032406,-6.561358851460001,346.99000000000007,154.70000000000002,455.3010000000001
51,472.251707000396,9,8.002795185699995,19.08922085602,-6.568537319260001,385.119,169.239,471.47800000000007
52,481.44968199994764,9,-1.3526626157799995,19.30433560776,-5.37380099508,432.075,187.92200000000005,498.76399999999995
53,490.5476570002065,9,-11.56379377902,19.39310932622,-2.8742585071200004,475.825,200.50800000000004,529.5780000000001
54,499.7646319998239,9,-22.6456730864,18.39889153592,0.1450050495600003,516.9290000000001,204.32300000000004,553.1400000000001
55,508.908607000194,9,-33.336325898679995,16.488222689819995,4.11397989618,550.354,203.714,558.572
56,518.1315820000236,9,-41.17688771209999,13.7802653534,9.32913675288,568.0500000000002,200.074,547.141
57,527.2365569999238,9,-45.930229806999996,10.746166296599998,14.760365490359998,564.739,184.54100000000003,526.365
58,536.4595319997534,9,-47.87009108881999,7.73288479642,18.8339066846,533.4770000000001,161.46200000000002,491.33000000000004
59,545.6595059995379,9,-48.483132238939994,5.0464628633999995,21.04463548474,469.26599999999996,144.55700000000002,442.064
60,554.8964809995596,9,-47.49489650513999,3.365504986899998,21.579431335839995,393.7080000000001,127.84100000000004,375.37500000000006
61,564.2074560000765,9,-43.98606144449999,2.574437835339999,21.04152481536,317.4220000000001,102.165,303.611
62,573.4234299998207,9,-38.76348683774,2.072902218380001,19.617316803839998,251.3770000000001,68.383,236.971
63,582.651404999524,9,-32.661071360959994,1.16841527558,18.033028960379998,200.074,38.78699999999999,175.16800000000003
64,591.7953799998941,9,-25.530699295219996,0.5125426009199995,17.025889928039998,143.25500000000002,21.413,117.271
65,601.027355000042,9,-18.447705116959998,0.22277178406000003,15.589717803519994,78.001,8.043,70.098
66,610.1893300001393,9,-13.12176057388,0.521635326799999,12.933923999779998,18.290999999999997,-3.157000000000001,26.607
67,619.3833039997116,9,-8.969734798359998,2.1150158961399996,9.470074004019999,-25.45900000000001,-9.149,-10.661000000000001
68,628.5452789998089,9,-5.830830111679999,4.5547378191,6.437649923039999,-44.785999999999994,-10.703,-25.438
69,637.7672540002095,9,-3.902454378339999,6.2488562199,4.985445887099999,-23.744000000000003,-11.354000000000003,-21.014000000000003
70,646.9742290000795,9,-3.2855847120599995,6.3146588414,5.933721483479999,12.802999999999997,-12.285000000000002,-3.0100000000000016
71,655.9992040001816,9,-4.400161479139999,4.941417951260001,8.267202082999999,36.967,-9.891000000000002,8.183000000000002
72,665.296178999597,9,-6.594619085599999,2.64071902136,11.032347879559998,33.25700000000001,-3.808,-3.3319999999999994
73,674.3771539995578,9,-9.04056234732,0.5627918755199997,12.943256007919999,-1.2459999999999922,-0.40599999999999986,-29.113
74,683.6441280001964,9,-11.30991530116,-0.75206414318,13.598171553539999,-48.09000000000002,-3.8570000000000007,-63.35
75,692.790103000334,9,-13.30241868018,-1.6208980292399997,12.959048637079999,-95.41000000000001,-10.500000000000002,-103.41100000000002
76,702.00807800029,9,-15.022379565059998,-2.1767507192199997,11.72578786904,-141.267,-16.821,-141.05700000000002
77,711.1580529999628,9,-16.738990498299998,-2.6900111669199998,10.266883929819999,-182.994,-19.649000000000004,-178.85000000000005
78,720.2010279997921,9,-18.357017140419998,-3.15086879968,9.055876411959998,-219.96800000000002,-20.062000000000005,-217.0
79,729.3330029997378,9,-20.012850379619998,-3.46265358446,8.112386460779998,-258.53800000000007,-19.684000000000005,-254.79300000000003
80,738.4759779997694,9,-21.5413854565,-3.635415376179999,7.36726150314,-296.457,-19.068000000000005,-290.89200000000005
81,747.6289529995483,9,-22.439651060539994,-3.4638499957600004,6.637689892399999,-335.81800000000004,-17.360000000000003,-325.51400000000007
82,756.6939279995495,9,-22.814845644219997,-2.8041488049399996,5.809773272799999,-374.682,-14.889000000000001,-357.2170000000001
83,765.7849039997018,9,-22.50952148046,-1.8920048298199998,4.87489748298,-407.834,-12.726,-386.428
84,774.8808790001931,9,-21.505971682019997,-0.9257830639399998,3.91513633812,-432.80300000000005,-10.311,-411.621
85,784.115853000003,9,-20.08607075118,-0.09379864592000002,3.038884702,-450.68100000000004,-7.419999999999999,-430.668
86,793.1698290003624,9,-18.25316863958,0.7034898443999998,2.4031117371799997,-463.73600000000005,-3.521000000000002,-450.61799999999994
87,802.327804000015,9,-15.966108798499999,1.58141645634,1.8900905717399996,-472.962,0.9939999999999994,-466.361
88,811.4477789995362,9,-13.292129542999998,2.5268206656,1.47589297968,-477.5540000000001,5.453,-477.51200000000006
89,820.4807539996182,9,-9.929017378699998,3.588994617739999,1.1681759933200002,-476.021,9.317000000000002,-482.65700000000004
90,829.6707290000995,9,-5.952385499759997,4.73826731252,0.9037690960199999,-470.7780000000001,10.444000000000003,-482.5660000000001
91,838.7407039999744,9,-1.9235900881399997,5.7267423285799985,0.71832534452,-462.196,7.5390000000000015,-474.684
92,847.792679000122,9,2.02145653248,6.3005411880599995,0.66711894088,-449.4910000000001,2.1700000000000004,-464.422
93,856.9176540004264,9,5.793023514599999,6.490770584759998,0.85926259566,-434.651,-1.9110000000000007,-452.242
94,866.0266289998617,9,9.214759832599999,6.467320923279999,1.3318450591599997,-419.11800000000005,-4.011,-435.56100000000004
95,875.0866039999892,9,12.598928835779997,6.48287427018,1.99752830648,-399.805,-5.033,-417.774
96,884.2695789999198,9,15.919927322319998,6.413482414779999,2.7632315384800004,-374.15,-7.272999999999999,-394.457
97,893.4245540003758,9,19.06816401714,6.27422013946,3.7215569897800003,-340.977,-13.391000000000002,-367.38800000000003
98,902.6955290000842,9,21.924954919279998,6.075137299139999,4.705485642899999,-300.53800000000007,-22.939000000000004,-339.96200000000005
99,911.7475040002319,9,24.312513309559996,5.778427296739999,5.601836988859999,-256.34000000000003,-37.961,-311.591
100,920.7744790001016,9,26.077459259319994,5.476453084619999,6.181857187099999,-209.041,-52.89200000000001,-284.242
101,929.9624539999058,9,27.29085959978,4.8849473379,6.50991316556,-160.70600000000005,-65.22600000000001,-257.327
102,939.1084290000435,9,27.95941423422,4.1388652512199995,6.513502399459999,-114.87700000000002,-69.71300000000001,-223.692
103,948.1954040002165,9,27.821348370200003,3.414079285679999,6.2409599053200004,-74.94899999999998,-68.03300000000002,-187.222
104,957.2733790000711,9,27.01544571852,2.6450261020399997,5.62289382774,-38.75900000000001,-62.20900000000002,-151.65500000000003
105,966.5103540000928,9,25.550081158279998,1.89702975728,4.747838602919999,-6.810999999999997,-53.809000000000005,-116.032
106,975.6573289996595,9,23.575763231019998,1.1887542676800003,3.676811207159999,21.364000000000004,-44.81400000000001,-84.49700000000003
107,984.8133039995446,9,21.353788164659996,0.4484149552399999,2.41244374532,46.221000000000004,-33.76800000000001,-59.80100000000002
108,994.0472790003696,9,19.164834050179998,-0.25890340532,1.0770094522599998,64.316,-20.00600000000001,-38.948
