,time_ms,delta_ms,aX,aY,aZ,gX,gY,gZ
0,0.0,0,1.24881411494,-8.740263111019999,3.625126238999999,9.618000000000002,-25.130000000000003,-144.23500000000004
1,9.518974000457092,9,2.17675071922,-7.9633136128,3.4066615356199996,8.008000000000001,-23.982000000000003,-127.86200000000001
2,19.025948000489734,9,3.09703029118,-7.215317268039999,3.2140393163199996,7.294000000000001,-23.387,-111.74800000000002
3,28.57192200008285,9,4.038605984279999,-6.4594246087,3.0427132181599994,6.888000000000001,-23.037000000000003,-95.60600000000002
4,38.26689500056091,9,5.0069812905,-5.697549892860001,2.883351233,6.181000000000001,-22.603,-78.72200000000001
5,47.78186900057335,9,5.9751173144599985,-4.97132823376,2.69575394116,4.501,-21.735000000000003,-60.76700000000001
6,57.40984300064156,9,6.916214443039999,-4.3274196721,2.51222444774,2.3800000000000003,-20.447000000000003,-42.357000000000006
7,66.95181700069952,9,7.82764057138,-3.73447823182,2.34089834958,0.1120000000000001,-18.921,-23.800000000000004
8,76.50379100050486,9,8.721838377000001,-3.1970502758599997,2.16717942882,-1.7990000000000002,-17.57,-5.193999999999998
9,86.06376500029,9,9.58110097266,-2.69623250568,1.9802999837599997,-3.325,-17.017,12.992
10,95.64473800037376,9,9.574401069379999,-2.7471996270599996,1.93531491888,-4.872,-16.681,11.284
11,105.09571200054779,9,9.569136859659997,-2.76466723204,1.8711872732,-6.545,-16.156,9.911999999999999
12,115.16468500030896,10,9.559326287,-2.7577280464999996,1.79078843384,-7.9590000000000005,-15.470000000000004,8.750000000000002
13,124.31366000055277,9,9.54688360948,-2.72686063496,1.7084753364,-8.946,-14.700000000000003,7.840000000000001
14,133.43863500085718,9,9.532526673879996,-2.6797220297399997,1.6472190778399998,-9.317,-13.573000000000002,7.077000000000001
15,142.66961000066658,9,9.52032327862,-2.61104802112,1.6103696098,-9.302999999999999,-12.068000000000001,6.566000000000001
16,151.70558500085463,9,9.524869641559999,-2.5356741092199995,1.5957733919400001,-8.980999999999998,-10.373999999999999,6.3420000000000005
17,160.76156000053743,9,9.51816973828,-2.4727428748399998,1.6132409969200001,-8.469999999999999,-8.617,6.293
18,169.86753500077612,9,9.51649476246,-2.41005092272,1.66755806994,-8.154999999999998,-6.636,6.314
19,178.9465100000598,9,9.518648302799999,-2.3595623658599996,1.7527425545000004,-8.071000000000002,-4.4799999999999995,6.454000000000001
20,188.02848500035907,9,9.512905528559997,-2.3112273493399997,1.854437515,-8.554000000000002,-2.3589999999999995,6.601000000000001
21,197.14846000078978,9,9.505966343019999,-2.2707886474,1.8951154992000003,-9.317000000000002,-0.6650000000000003,6.811
22,206.30943500054855,9,9.492566536459998,-2.2456640100999996,1.97718931438,-10.192000000000002,0.5250000000000001,7.406000000000001
23,215.37641000031726,9,9.473423955659998,-2.2597816634400005,2.0437097826599997,-10.752,1.358,8.239
24,224.46238600059587,9,9.430353148859997,-2.31697012358,2.0650059037999995,-11.018,1.8480000000000003,9.233
25,233.63836000044103,9,9.340143736839998,-2.4239292938,2.0640487747599994,-10.577000000000002,2.107,10.304000000000002
26,242.83533500056365,9,9.20829921158,-2.5825734321800002,2.0394027019799994,-9.884000000000002,2.4570000000000003,11.333000000000002
27,251.99530999998387,9,9.040801629579999,-2.7744778046999996,1.9996818468200002,-8.764,2.961,12.138000000000002
28,261.2612850007281,9,8.82496903106,-2.99270322582,1.9489540076999998,-7.301,3.4300000000000006,12.558000000000002
29,270.37726000071416,9,8.597650884059998,-3.21882496152,1.88004071682,-5.6419999999999995,3.689000000000001,12.775
30,279.5402350002405,9,8.36913632576,-3.4265219632,1.7970097725999998,-3.626,3.6260000000000003,13.013
31,288.668210000651,9,8.12770052542,-3.6150763840799995,1.7778671918,-1.5890000000000002,3.2410000000000005,13.202000000000002
32,297.7471850008442,9,7.878846975019999,-3.7775490386199992,1.7314464333599997,0.2659999999999998,2.6950000000000003,13.076000000000002
33,306.9961590008461,9,7.611807972859999,-3.8282768777399996,1.7044075379799999,1.2040000000000002,2.0090000000000003,12.677
34,316.1321340003269,9,7.354100978839999,-3.8890545717799996,1.7044075379799999,1.1829999999999996,0.8960000000000002,12.292000000000002
35,325.34010900053545,9,7.141857614219999,-3.89216524116,1.7012968686,-0.027999999999999935,-0.7,12.187000000000001
36,334.3470850004451,9,6.9643101773,-3.8344982164999997,1.6914862959399997,-1.8270000000000004,-3.136,12.446000000000002
37,343.72505900046235,9,6.8307906762199995,-3.71748919136,1.66564381186,-3.8010000000000006,-6.216,13.216000000000003
38,353.0120330005957,9,6.7324456673599995,-3.56458782722,1.6295121905999999,-5.474,-9.926,14.469000000000003
39,362.15200800052116,9,6.652525392519999,-3.3882368016,1.59577339194,-6.734,-14.238,15.904000000000002
40,371.3699830004771,9,6.604668940519998,-3.1824540579999994,1.6007983193999997,-7.147,-18.956,17.374000000000002
41,380.6699579999986,9,6.676932183039999,-2.8924439588799995,1.7288143284999997,-6.608,-24.479000000000003,19.467000000000002
42,389.8699330002273,9,6.934399894799999,-2.4782463668199997,1.87812645874,-5.228999999999999,-31.101,23.352000000000004
43,399.0569070001584,9,7.38951475332,-2.021935096999999,2.10592317026,-4.1930000000000005,-38.682,31.388000000000005
44,408.23588200055383,9,8.0004023631,-1.46871451188,2.3767906885799994,-4.417,-46.242000000000004,40.83800000000001
45,417.51185700013593,9,8.83645457954,-0.7345965381999999,2.6184657711799995,-6.181,-53.284000000000006,51.24000000000001
46,426.67383200023323,9,9.927581685139998,0.047856452000000084,2.7345176672799996,-7.931,-59.58400000000002,62.097
47,435.8668070008207,9,11.330015010999997,1.01766745178,2.849612434339999,-5.586,-64.918,73.27600000000001
48,445.0597810000545,9,13.022219153719998,2.20307176782,2.980499830559999,1.6659999999999997,-68.21500000000002,84.546
49,454.1687560003993,9,15.096557065659997,3.54448811738,3.1302905253199995,14.203000000000003,-69.65700000000001,97.89500000000001
50,463.1837320002887,9,17.843038845939997,5.000281387219999,3.0888946943399995,28.868000000000006,-67.56400000000001,113.36500000000001
51,472.317707000002,9,20.91159454818,6.417550213199999,2.5129422945199993,40.978,-62.90200000000001,130.277
52,481.4546820007308,9,24.176840268139994,7.639325432759999,1.3052847282999998,48.468,-53.60600000000001,147.483
53,490.6686560007074,9,27.270042043159997,8.5974116018,-0.5654239803799997,53.375,-37.995999999999995,162.05
54,499.76363200039486,9,30.038298509100002,9.4480600361,-3.20470730818,64.162,-15.203999999999997,175.39900000000003
55,508.80060700001195,9,32.0973223564,10.057033387799999,-5.976074443499999,95.319,11.340000000000009,188.83200000000002
56,517.9565820008065,9,33.62011465904,10.688259989679997,-8.40861789866,141.22500000000002,41.244,202.11100000000005
57,527.108557000247,9,34.40854970573999,11.328340035179998,-10.208259776119998,194.00500000000002,73.52799999999999,216.93700000000004
58,536.1325320000105,9,34.25445193029999,11.831072063439997,-11.520483689959999,245.89600000000004,104.958,232.26000000000005
59,545.930505000797,9,32.992716573319996,12.116296517359999,-12.3960174793,289.324,137.151,249.704
60,555.0614800004041,9,29.8313193542,12.034461984439996,-12.907363668919999,322.12600000000003,167.699,266.903
61,564.2894550001074,9,25.17823652624,11.59178980344,-12.79107249056,352.24,196.686,280.567
62,574.5474270006525,10,19.529260932159996,11.41280667296,-11.911710185059999,384.20200000000006,219.63900000000004,290.92699999999996
63,583.6974020003254,9,13.23613749416,11.623853626279999,-10.60235765834,419.062,236.586,299.03999999999996
64,592.9473760006658,9,6.58528707746,12.318490027059998,-8.584968924279998,451.31100000000004,248.78000000000003,306.425
65,602.106351000657,9,-0.1323230897799995,13.218191324659998,-6.4618174313,469.497,258.951,319.571
66,611.3323260005927,9,-7.639325432760001,13.924791838440001,-4.079523250739999,480.59900000000005,267.80600000000004,338.73
67,620.3263010002047,8,-15.340146406339997,14.223894663440001,-1.9336399430599998,486.64700000000005,273.336,359.45700000000005
68,629.4162760004838,9,-22.508325069159998,14.520126101320002,0.3756731481999999,491.547,272.062,376.355
69,638.8382510003794,9,-28.768666837539996,14.716816119039999,3.1161728719799995,501.01800000000003,265.818,387.12100000000004
70,647.9982260007091,9,-33.39279651203999,14.7744831437,7.378029204839999,516.915,257.69100000000003,392.07000000000005
71,657.0212010001342,9,-36.285719035439996,14.585689440559998,12.929616919099999,518.938,249.37500000000009,395.0380000000001
72,666.4221750006618,9,-37.794632967,12.780065506599996,17.884195394659997,482.21600000000007,236.86600000000004,388.5420000000001
73,675.6391500002792,9,-38.2564477288,10.069715347579997,20.6057918199,399.014,217.65800000000007,367.6470000000001
74,684.9111240007915,9,-37.356746431199994,7.499584592919999,20.799371168239997,303.55500000000006,192.388,333.0110000000001
75,694.0870990001713,9,-35.137642751959994,5.86887599102,19.212211937659998,218.16900000000004,163.31699999999998,285.13800000000003
76,703.19307400041,9,-30.884161298200002,5.12087964626,17.224015639319997,162.14100000000002,131.579,235.97000000000003
77,712.386049000088,9,-25.813052362020006,4.66624335226,15.885709959139998,121.59700000000002,102.011,191.18400000000003
78,721.5180240000336,9,-20.822820829719994,3.9259040398199994,15.804353990740001,84.49700000000001,82.25700000000002,151.04600000000002
79,730.6999990005352,9,-16.43964839104,3.0096922662799996,15.953187556459998,34.61500000000001,67.69700000000002,112.41300000000001
80,739.889974000107,9,-12.82840052312,2.2846670184799995,14.845310692659998,-25.75300000000002,51.778999999999996,73.017
81,748.9269490006336,9,-10.0570333878,1.8216558453799998,12.053604565239999,-79.09299999999999,32.431,33.684
82,758.0369240004075,9,-8.20451013088,2.6828326991199996,9.249695042559997,-97.048,14.931000000000003,0.18200000000000074
83,767.2138990001258,9,-7.005466726020001,4.20251433238,8.404789382499999,-70.88900000000001,5.229000000000001,-21.504
84,776.4018740008396,9,-6.71234595752,5.232624461679999,9.86010408782,-37.52700000000001,1.2460000000000018,-30.891000000000002
85,785.5988490000527,9,-7.281119889539999,5.18261446934,12.7465659902,-23.05800000000001,0.9310000000000004,-35.609
86,794.6568240004126,9,-8.961120636999999,4.222135477700001,15.384652906699998,-46.613000000000014,1.1060000000000008,-48.237
87,803.742799000247,9,-11.15007475148,3.08267335558,16.861024450899997,-90.14600000000003,-1.497999999999999,-71.14099999999999
88,812.9037740000058,9,-13.41081354396,2.05160609724,16.359010269419993,-139.11800000000002,-9.842000000000002,-97.244
89,822.0897490000425,9,-15.6885413769,1.2617353569799998,14.838132224859999,-176.84100000000004,-21.217000000000002,-127.95300000000002
90,831.2627240002257,9,-17.848542337919998,0.6565905214399997,12.9667056694,-205.78600000000006,-30.772000000000002,-160.52400000000003
91,840.3476990006311,9,-19.98533291972,0.4378865358,11.33527922072,-229.88700000000003,-37.38700000000001,-194.10999999999999
92,849.4416740004453,9,-22.04531389606,0.3984049629000001,9.988120096919998,-255.27600000000007,-40.005,-223.95800000000003
93,858.5756490001586,9,-23.8779767254,0.53934221404,8.820422668119999,-281.34400000000005,-44.8,-249.71100000000007
94,867.6326240001799,9,-25.479253609319997,0.7999205951799999,7.64841815864,-305.19300000000004,-52.41600000000001,-273.238
95,876.8145990006815,9,-26.54047043242,1.2715459296399998,6.751348965899998,-327.61400000000003,-59.822,-295.267
96,885.9335740007737,9,-26.752713797039995,2.01499591146,5.620979569659999,-352.723,-63.504,-315.28700000000003
97,895.1265490004516,9,-25.859233838199998,2.94580390286,4.32167689786,-378.994,-63.784000000000006,-334.53700000000003
98,904.3405240008724,9,-24.014128331339997,3.8854653378799995,2.877369176499999,-404.383,-60.06700000000001,-351.63800000000003
99,913.5354980007833,9,-21.19346905046,4.7413779818999995,1.4014761968199987,-424.662,-53.165000000000006,-361.053
100,922.7984730005119,9,-17.49536172216,5.227360251959999,0.1196411300000002,-437.514,-41.237,-361.92100000000005
101,931.9884480000837,9,-12.981062604999996,5.489613608919999,-0.7295716107399997,-442.918,-29.498,-356.804
102,941.1024230003022,9,-7.729056280259999,5.583412254839999,-1.10285193634,-439.20799999999997,-19.432,-348.586
103,950.2093980008794,9,-1.992981943540001,5.547998480359999,-0.8432306842400001,-431.1510000000001,-12.970999999999998,-341.95700000000005
104,959.350373000234,9,3.8158342002200003,5.558526899799999,0.14787643667999967,-422.884,-7.252000000000004,-339.7800000000001
105,968.5343480005031,9,9.327222494799999,5.681996545959999,1.4072189710599996,-414.526,-6.432999999999998,-340.45200000000006
106,977.6543230000243,9,14.355021341919997,6.044030605339999,2.896272475039999,-404.572,-12.859,-336.91700000000003
107,986.8502980007179,9,18.978193887379994,6.27422013946,4.294638002479999,-388.815,-23.24,-328.74800000000005
108,996.0432720008612,9,23.022781928159993,6.30221616388,5.59705134366,-366.975,-36.015,-317.0300000000001
