,time_ms,delta_ms,aX,aY,aZ,gX,gY,gZ
0,0.0,0,7.047819686039999,-6.17898579998,0.08303094422,0.9450000000000003,-9.723000000000003,-5.824000000000001
1,9.697974000118847,9,7.22177788906,-5.62121885192,0.27110680058,0.791,-10.940999999999999,-4.865000000000001
2,19.18294799997966,9,7.3866433661999995,-5.0591448231800005,0.45702911659999995,0.18900000000000006,-12.390000000000002,-3.6610000000000005
3,28.907920999699854,9,7.55270525464,-4.499224334779999,0.6345765535199999,-0.8539999999999999,-14.063000000000002,-2.2469999999999994
4,38.379894999707176,9,7.731209820599998,-3.9357146124799995,0.7965706435399998,-2.338,-16.002000000000002,-0.5110000000000001
5,48.01186900022003,9,7.90516802362,-3.39589383392,0.9236295236000001,-4.214,-18.256000000000004,1.6940000000000002
6,57.57584200000565,9,8.069315653979999,-2.87880487006,1.02508520184,-6.286000000000001,-20.636000000000003,4.221000000000001
7,67.1918159996494,9,8.151628751419999,-2.38660126124,1.0961520330599996,-8.330000000000002,-23.184000000000005,6.727000000000001
8,76.77478999994491,9,8.27940547826,-1.9101902815800003,1.1542976222399999,-10.136000000000001,-25.788000000000004,8.939
9,86.25276400016446,9,8.4119678503,-1.4232508824799999,1.2059825903999997,-12.026000000000002,-28.49,10.717000000000002
10,95.86773799946968,9,8.403592971199998,-1.4371292535599998,1.0865807426599996,-13.272000000000002,-30.408000000000005,12.250000000000002
11,105.84270999970613,9,8.409575027699999,-1.4455041326599996,0.9580861690399998,-14.294,-32.326,13.818000000000001
12,115.09468500025832,9,8.440681721499999,-1.4450255681399997,0.8276773373399999,-15.316000000000003,-34.083,15.351000000000003
13,124.31766000008793,9,8.48782032672,-1.4316257615799999,0.6814758764799999,-16.366000000000003,-35.665000000000006,16.849
14,133.56363399998372,9,8.54285524652,-1.4191830840599997,0.52091748002,-17.290000000000003,-36.95300000000001,18.207
15,142.76560899998003,9,8.618468440680001,-1.3856835676599997,0.35700913192,-18.067,-37.74400000000001,19.740000000000002
16,152.03958399979456,9,8.716574167280001,-1.32729869622,0.18113667082,-18.704,-38.143,21.490000000000002
17,161.23555899957864,9,8.835736732760001,-1.24402846974,0.005503491979999964,-18.893,-38.031,23.471
18,170.41053399952943,9,8.88431103154,-1.16937240462,-0.14668002538000002,-18.529,-37.443,25.466
19,179.53350900006626,9,8.95083149982,-1.1356336059599998,-0.26249263922,-17.472,-36.196999999999996,27.055
20,188.62948399964807,9,8.98361316944,-1.1310872430199999,-0.33164521236,-15.910999999999998,-34.440000000000005,27.573
21,197.95445799991285,9,9.01352345194,-1.13635145274,-0.37950166435999994,-13.65,-32.277,27.314
22,207.12443299998995,9,9.042237323139998,-1.15884398518,-0.38835510797999995,-11.319000000000003,-30.009000000000004,26.677
23,216.4044080000167,9,9.08770095254,-1.16243321908,-0.37088750299999995,-8.869000000000002,-25.851000000000006,25.907
24,225.56438299943693,9,9.15087146918,-1.14424776732,-0.34695927699999995,-6.545,-23.548000000000002,25.458999999999996
25,234.71035799957463,9,9.2422772925,-1.11074825092,-0.3034099056799999,-4.087999999999999,-21.469,25.052999999999997
26,243.90433200005646,9,9.3475614869,-1.0628917989199997,-0.25292134882,-1.6659999999999997,-19.551000000000002,24.590999999999998
27,252.94830799975898,9,9.469595439499999,-0.9951749193399998,-0.20123638066,0.44100000000000017,-17.801000000000005,24.093999999999998
28,262.1162830000685,9,9.66652473948,-0.8985048862999998,-0.15601203351999998,2.576,-16.338000000000005,23.625000000000004
29,271.20025800013536,9,9.84096150702,-0.7180860622599999,-0.11054840412,5.313000000000001,-15.260000000000002,23.289
30,280.27223299977777,9,10.06014405718,-0.5395814963,-0.06963113766,8.351000000000003,-14.14,23.646000000000004
31,289.3152079996071,9,10.441320697359998,-0.30053851855999997,0.012681959779999996,11.655000000000001,-12.754000000000001,24.430000000000003
32,298.33318300006795,9,10.933045741659999,0.028953153460000026,0.10097711371999998,15.939000000000002,-10.913,25.914000000000005
33,307.325158999447,8,11.633424916679997,0.5012963346999999,0.25531417141999996,20.615000000000002,-10.808,28.413
34,316.4811340002416,9,12.571172093619998,1.14065853342,0.49148576203999994,26.061,-9.191000000000003,32.466
35,325.607108999975,9,13.665409868599998,2.0446669117,0.7477570625,31.143,-7.735000000000001,37.884
36,334.7230839999611,9,14.939827185359997,3.0472595810999996,0.8994620153399999,35.854,-6.202,47.138000000000005
37,343.7100589999318,8,16.287464873679994,4.115894154259999,1.0188638630799998,41.188,-3.752000000000001,57.71500000000001
38,352.8410339995389,9,17.73942962736,5.3800223338399995,1.0317851051199998,47.733000000000004,0.013999999999999702,71.197
39,362.156008999591,9,19.418712528039997,6.6857856266599995,0.9236295235999998,55.20200000000001,4.704000000000001,90.22300000000001
40,371.25098399974377,9,21.37293074546,8.1391860739,0.6735795618999998,64.001,9.947,115.10800000000002
41,380.3639589996237,9,23.52551395642,9.61220766646,0.12011969451999996,72.94,16.191,145.25000000000003
42,389.5039339995492,9,25.67690075608,10.98592712112,-0.6848258281199999,81.98400000000001,23.631999999999998,180.34100000000004
43,398.6509090000254,9,27.385136810219997,12.17731349366,-1.8352949341999998,92.841,34.223,217.763
44,407.916882999416,9,28.609544134639997,13.1940238164,-3.3293733656399995,107.296,44.982000000000006,255.50700000000006
45,417.14185799992265,9,29.11490826776,13.95661637902,-4.874897482979999,129.668,58.59000000000001,292.4320000000001
46,426.3258330001918,9,28.84762998334,14.661781199240002,-6.12777939634,158.543,76.58000000000001,326.1720000000001
47,435.59880799966777,9,27.756502877739997,15.376278027599998,-7.0169522744999995,192.528,96.30600000000001,360.7940000000001
48,444.8357820001547,9,25.936761290439996,15.907963209319997,-7.256952381279999,230.16,116.03900000000002,397.523
49,453.95275699956983,9,22.882562523799997,16.3322106563,-7.042076911799998,266.826,132.54500000000002,432.01900000000006
50,463.1477319999249,9,18.785332385820002,16.334364196639996,-6.640561279519998,300.23,144.179,461.64300000000003
51,472.27670699976443,9,13.055479387860004,15.708641086739997,-5.93826784642,334.047,151.91400000000002,480.08100000000013
52,481.4106819994777,9,6.429753608459999,14.917813217439996,-4.877529587840002,363.88100000000003,160.643,482.4050000000001
53,490.5816569998933,9,-0.14333007374000067,14.608899819779996,-3.4916067379200015,385.14700000000005,167.776,476.62300000000005
54,499.72863199946005,9,-6.656593190939998,14.965191104919999,-1.8675980393000002,401.06500000000005,174.51000000000005,474.5300000000001
55,508.8686069993855,9,-13.439288132899998,16.12331724332,-0.33140593009999997,418.85200000000003,178.185,479.94800000000004
56,517.9535819997909,9,-20.186330018119996,17.25320807504,1.5921841580399998,443.69500000000005,176.596,494.99799999999993
57,527.2535570002219,9,-26.483281972279997,17.96746562114,4.534638109259999,480.6620000000001,172.10199999999998,512.6800000000001
58,536.4265319994956,9,-32.204760091139995,17.592749601979996,8.499784439719999,514.1850000000001,162.911,524.51
59,545.6505060001291,9,-36.6544529981,15.504772601219997,13.755379998360002,534.912,152.85199999999998,526.4770000000001
60,554.922481000176,9,-39.59977833644,11.682956344499997,18.95665848398,522.249,140.00000000000003,507.11500000000007
61,564.1864560002432,9,-40.6157708124,7.612765101899998,22.18194406652,472.0800000000002,123.44500000000001,462.805
62,573.3334309998099,9,-40.04173267066,4.378386793479999,23.103659332040003,391.0480000000001,102.20700000000001,405.825
63,582.3374060000788,9,-38.424423875319995,2.5660629562400006,22.274785583399996,310.52000000000004,78.218,340.942
64,591.3893810002264,9,-35.79016547498,1.504367568620001,20.44882265734,243.88700000000003,51.492000000000004,272.244
65,600.5653559996063,9,-31.474231351360004,0.20697915490000138,19.077017460759997,202.608,24.17100000000001,208.677
66,609.6003309994558,9,-26.466292931820004,-1.2796815264799992,18.059110726719993,168.34999999999997,2.2540000000000058,147.882
67,618.6323069996433,9,-21.354506011439998,-2.8716264022599987,17.043357533019996,119.21000000000001,-16.086,87.03800000000004
68,627.8042809999533,9,-16.455680302459996,-3.899822273479997,15.166666767840002,58.029999999999994,-27.657,25.312
69,636.8942569997671,9,-12.07442212186,-3.399243785559998,11.914581572180001,-4.487000000000002,-33.620999999999995,-34.53099999999999
70,645.993231999455,9,-8.54668376268,-0.8511269988199995,8.495477359039999,-40.98500000000003,-33.900999999999996,-74.732
71,655.0462069999412,9,-5.772445240239999,2.4918854556400003,6.63457922302,-44.499000000000024,-31.282999999999998,-85.183
72,664.275181999983,9,-3.9129827977800007,5.00315277434,6.551069714279999,-13.957999999999998,-29.736,-74.137
73,673.5111560001315,9,-3.22887481644,5.47764949592,8.0590265168,22.589000000000002,-27.181,-53.725
74,682.705131000148,9,-3.63015116646,4.3633120111000006,10.69998482042,43.792000000000016,-19.299,-38.297000000000004
75,691.9651059997705,9,-5.1603612191599995,2.51629224616,13.117692775459997,23.016,-7.5040000000000004,-39.914
76,701.028081000004,9,-6.941339080339999,0.7977670548399993,14.61224977142,-24.059000000000005,0.36400000000000043,-58.00200000000001
77,710.0580559999798,9,-8.761080667639998,-0.48119662485999976,14.63617799742,-78.82000000000001,4.263000000000001,-85.624
78,719.9690289999126,9,-10.62197880366,-1.2820743490799997,13.833386015119999,-128.05100000000002,3.780000000000001,-115.654
79,729.2250039999999,9,-12.467084310519997,-1.9204794187599998,12.675259876719998,-166.96400000000003,-0.014000000000000073,-147.042
80,738.4379790000821,9,-14.478730270339998,-2.6055445291399995,11.5896362631,-200.66900000000004,-2.6320000000000014,-181.083
81,747.7029530000436,9,-16.597335400379997,-3.2977881073199997,10.705966876919998,-237.76900000000006,-0.966,-217.05600000000004
82,756.8489280001813,9,-18.861902709019997,-3.731128280179999,10.06086190396,-281.11300000000006,5.2219999999999995,-254.61800000000002
83,766.1239029994249,9,-20.96974013736,-3.76965272404,9.33751163198,-330.4140000000001,13.111,-290.99
84,775.267877999795,9,-22.81460636196,-3.436332535859999,8.228438356880002,-379.56800000000004,21.392000000000003,-326.47300000000007
85,784.354852999968,9,-24.08088808188,-2.78931330482,6.98082065324,-421.267,29.169000000000004,-360.83600000000007
86,793.6188280000351,9,-24.95522545992,-1.9393827172999998,5.791348538779999,-453.97800000000007,40.24300000000001,-393.12700000000007
87,802.7828019994558,9,-25.03155650086,-1.0317851051199998,4.807180603399998,-476.9870000000001,54.32700000000001,-420.9870000000001
88,811.9937769997705,9,-24.297199244919998,-0.08255237969999998,3.9723247982599985,-489.72700000000003,69.11100000000002,-445.4030000000001
89,822.4277489998713,10,-22.862702096219998,1.0260423308799997,3.193700324219999,-494.03900000000004,80.47900000000001,-464.9960000000001
90,831.5837239997563,9,-20.742421990359997,2.2480568326999997,2.4603001973199996,-489.6920000000001,89.677,-482.61500000000007
91,840.8156979994601,9,-17.95550150814,3.54568452868,1.9738393627399997,-475.9300000000001,95.87200000000001,-498.015
92,850.018672999795,9,-14.504572754420002,4.708596312279999,1.8206987163399997,-456.918,101.68200000000002,-508.40299999999996
93,859.254647999478,9,-10.105129122060001,5.72339237694,2.2155144453399997,-438.10900000000004,110.46700000000001,-512.61
94,868.4776230002171,9,-4.91772900752,6.702774667119999,3.3109486316199996,-421.32300000000004,123.473,-511.55300000000005
95,877.6795969997693,9,0.5606383351800002,7.536194778699999,4.628436755179999,-407.80600000000004,136.311,-501.2840000000002
96,886.7615729996032,9,6.12634370278,8.159046501479999,6.1040904525999995,-392.651,141.232,-484.3860000000001
97,895.7925479999176,9,11.23334497796,8.329654752859998,7.67761059436,-372.946,135.891,-462.4340000000001
98,905.0915219995659,9,15.840724894259997,8.236334671459998,9.483713092839999,-345.919,123.63399999999999,-436.04400000000004
99,914.2574970001078,9,19.889141451199997,7.885068313779999,11.450134705519998,-313.72600000000006,107.05799999999999,-406.56000000000006
100,924.0944699995453,9,23.336241688760005,7.437610487579998,13.40243866486,-276.7660000000001,87.24800000000002,-372.708
101,933.2264449994909,9,26.103780307919997,6.92267506406,15.09224998498,-238.40600000000003,66.72400000000002,-334.495
102,942.2434210000574,9,28.232196010620005,6.4067825115,16.24654760722,-197.89000000000004,45.464999999999996,-294.567
103,951.2093960001948,8,29.16994318756,5.698507021899999,16.64016692492,-152.29900000000004,21.77,-255.34600000000006
104,960.3333710001607,9,28.8371015639,4.694957223459999,16.203955364939997,-105.32200000000003,-6.034000000000003,-217.28700000000003
105,969.3723459995454,9,27.466253496360004,3.5916267225999996,15.038650758740001,-57.50500000000001,-32.92800000000001,-182.455
106,978.4203219996925,9,25.411297447480003,2.5253849720399995,13.394063785759997,-14.888999999999992,-53.711,-153.412
107,988.7292929997784,10,23.067049146259997,1.8434305310399999,11.367343043559998,20.104000000000006,-64.70100000000001,-128.09300000000002
108,998.1072680002399,9,20.661783868739995,1.29427774434,9.004670008319998,46.465999999999994,-68.026,-105.18200000000004
