,time_ms,delta_ms,aX,aY,aZ,gX,gY,gZ
0,0.0,0,7.3375905028999995,-6.617590182559999,0.07585247642000001,-1.3230000000000002,-2.653,-2.4639999999999995
1,9.724974000164366,9,7.48092057664,-6.174918001559998,0.1686939933,-1.7290000000000003,-2.982,-1.547
2,19.316947999868717,9,7.611807972859999,-5.74349208678,0.25890340532,-1.9880000000000002,-3.661,-0.637
3,28.787921999537502,9,7.736713312579999,-5.31637325268,0.34935209959999997,-2.0300000000000002,-4.4799999999999995,0.38500000000000006
4,38.28789599992888,9,7.846304587660001,-4.900500684799999,0.44961136653999995,-1.8410000000000004,-5.558000000000002,1.435
5,47.895869000058156,9,7.938428257759997,-4.4774496491199995,0.5670989562,-1.673,-6.748,2.443
6,57.43884299954516,9,8.02983408108,-4.02640258902,0.67860448936,-1.7360000000000002,-8.218,3.591
7,67.01681699996698,9,8.150910904639998,-3.5617164400999997,0.78939217574,-2.0580000000000003,-10.031,4.760000000000001
8,76.4727910000147,9,8.287780357359999,-3.0687949844999993,0.8080561920199998,-2.478,-12.285000000000002,5.978000000000001
9,86.10576499995659,9,8.446424495739999,-2.5751556821199997,0.8595018779199997,-2.6250000000000004,-15.505,7.364
10,95.56973899998411,9,8.503134391359998,-2.5648665449399997,0.8350950873999997,-2.2470000000000003,-18.529000000000003,8.169
11,104.98171299968817,9,8.55960500472,-2.5636701336399996,0.7939385386799999,-1.5750000000000004,-21.609,9.198000000000002
12,114.67168599938304,9,8.62708260204,-2.5698914723999993,0.7391429011399999,-1.197,-24.115,10.612000000000002
13,123.73466200006078,9,8.69527804614,-2.563909415899999,0.5934200047999999,-1.239,-26.179999999999996,12.110000000000003
14,132.96863599953213,9,8.75342363532,-2.5505096093399993,0.48789652813999995,-1.7149999999999999,-27.937,13.531
15,142.10961099979613,9,8.7912302324,-2.5272992301199992,0.35102707541999995,-2.443,-29.68,14.742
16,151.17958700011513,9,8.82496903106,-2.5100709073999994,0.22037896146000002,-3.4930000000000008,-31.164000000000005,15.666
17,160.28556199944433,9,8.857750700679999,-2.4576680924599996,0.08374879099999993,-4.48,-32.29800000000001,16.492
18,169.39853700023377,9,8.88598600736,-2.3851655676799997,-0.016510475940000005,-5.341000000000001,-32.956,17.647000000000002
19,178.57351200018456,9,8.97763111294,-2.24949252626,-0.09044869428000002,-6.384,-32.592000000000006,19.166000000000004
20,187.62448699999368,9,9.08291530734,-2.03772772616,-0.14979069476,-6.601000000000001,-32.032000000000004,21.091
21,196.67946200024744,9,9.267641212060001,-1.7347963849999999,-0.14787643668,-6.209,-31.584000000000003,23.884
22,205.92643700001645,9,9.583254513,-1.28398860716,-0.09690931530000002,-4.886,-31.773000000000003,27.580000000000002
23,215.09541199975502,9,9.99386287116,-0.78747791766,0.14117653339999997,-2.548000000000001,-32.739000000000004,32.823
24,224.29538599953958,9,10.619346698799998,-0.18831513862,0.30699913957999997,0.6929999999999996,-34.069,40.53000000000001
25,233.381360999374,9,11.301061857539997,0.5297709236400001,0.48622155232,5.054,-35.028000000000006,50.330000000000005
26,242.43433699939487,9,12.093803984919997,1.2437891874800002,0.63840506968,10.99,-34.412,61.229000000000006
27,251.72931099950802,9,13.156695783840002,1.9920248145,0.7288537639599999,17.885,-31.99,72.38000000000001
28,260.8912859996053,9,14.55410418224,2.8785655878,0.7762316514400001,26.243000000000002,-27.874000000000002,83.33500000000001
29,270.0422609996167,9,16.62963850548,3.8342589342399997,0.64390856166,35.77,-22.883,94.37400000000001
30,279.323235999982,9,19.1976157198,4.82704103098,0.24119651808000006,44.604000000000006,-16.660000000000004,106.32300000000001
31,288.48921099961444,9,22.041246097640002,5.887300725039999,-0.7429714172999999,52.65400000000001,-8.267000000000001,118.41900000000001
32,297.7451850001671,9,24.984657177899997,6.966702999899999,-2.2683958248,63.896000000000015,3.2410000000000005,129.801
33,306.9781599997441,9,27.78880598284,8.207381518,-4.3142591478,78.624,21.189,139.02
34,316.0631350001495,9,30.32376224528,9.63637517472,-6.349354769099999,104.32100000000003,43.855000000000004,147.497
35,325.2201099994636,9,32.77592684576,11.36040385802,-8.1535430095,137.22100000000003,68.85900000000001,158.417
36,334.3980849995205,9,34.7270343938,13.406267181020002,-9.545447915919999,175.61600000000004,92.56800000000001,176.64500000000004
37,343.5150599998451,9,35.39056410078,15.540425657959997,-10.58321507754,216.01300000000006,114.744,201.86600000000004
38,352.55603499990684,9,34.621271634879996,17.3647136082,-11.4305135602,254.57600000000002,136.577,232.97400000000002
39,361.63900999963516,9,31.885318274040003,18.83773520076,-12.060304468519998,291.44500000000005,158.767,266.679
40,370.83998500020243,9,26.843162491320005,19.62401670712,-12.214880808479998,330.39300000000003,183.91799999999998,294.504
41,380.04495999939536,9,20.433508592699997,19.946329911339998,-11.25057330068,370.314,208.24300000000002,314.069
42,389.26993499990203,9,13.411292108479998,20.39498414884,-9.419346164899999,401.32399999999996,228.17199999999997,333.68300000000005
43,398.46290900004533,9,6.225885122939995,21.262621623599998,-7.235895542399999,431.47300000000007,237.03399999999996,358.5400000000001
44,407.5688849998187,9,-1.7848063773400014,22.137437566159996,-5.058666258660001,456.97400000000005,244.50300000000001,392.91
45,416.6808599993601,9,-11.003394726100002,22.82824545078,-3.0501309682199986,485.023,254.723,432.985
46,425.8368350001547,9,-21.54162473876,22.97516475842,-0.82695949056,524.7900000000001,262.41600000000005,465.1640000000001
47,434.99780899946927,9,-31.907092959699998,22.28531400284,3.01280293566,581.4060000000002,269.47200000000004,481.71900000000005
48,444.047784999384,9,-40.13864198596,20.856081063859996,9.4707918508,644.427,275.47099999999995,484.10600000000005
49,453.04375999967306,8,-45.52751776341999,17.4891403834,18.08279967046,680.6380000000001,281.83399999999995,473.151
50,462.196734999452,9,-47.64205509503999,12.8829568784,26.47466781092,640.731,273.665,455.826
51,471.30070999992313,9,-48.86191605652,8.58161897264,30.71594586942,547.2250000000001,242.14400000000006,421.19000000000005
52,480.3816849998839,9,-48.81501673356,5.8124053776599975,30.67335362714,430.0310000000001,208.747,355.726
53,489.46366000018315,9,-46.68899385345999,4.671268279719999,28.45831774632,316.015,179.032,278.915
54,498.5786349998307,9,-42.20651927688,4.352065744879999,25.16794738906,233.205,142.38,205.737
55,507.71260999954393,9,-35.94067401651999,3.5935409806800003,22.484636125420003,179.79499999999996,107.373,145.90099999999998
56,516.7375860000902,9,-28.64256508652,2.4000010678000003,20.724236538600003,129.63299999999998,84.42699999999999,93.653
57,525.8465609995255,9,-20.94987970978,1.1389835575999998,18.73867234512,57.001,66.353,50.28100000000002
58,535.051535999628,9,-14.919727475520002,0.16055839646000078,15.12455309008,-31.521000000000026,47.523,9.022999999999993
59,544.1055109995432,9,-10.893324886499999,1.1425727914999997,9.61268623098,-109.16500000000003,24.388000000000005,-28.49
60,553.1374860001961,9,-8.4442709554,3.8711084022799995,3.9996029758999994,-124.08900000000003,7.399000000000004,-59.18499999999999
61,562.2854610001013,9,-5.970331669259999,6.56159813372,1.4971891008199987,-93.15600000000002,9.114000000000006,-71.15499999999999
62,571.4554360001785,9,-4.5602413110799995,7.512027270439999,2.605305246879999,-37.674000000000014,13.65,-57.561000000000014
63,580.6824109995432,9,-5.113940460719999,6.20195689694,5.7549776352599995,6.930000000000012,20.839000000000002,-40.824000000000005
64,589.791385999888,9,-7.198567509839999,3.75768861104,9.913942596319998,7.825999999999988,33.012000000000015,-40.64200000000001
65,598.91836099996,9,-9.935956564239998,1.5754343998399996,13.361999962919999,-34.412000000000006,40.45300000000001,-64.75000000000001
66,608.1193359996178,9,-12.209138034239999,0.04426721809999999,15.296357752759997,-101.129,36.26700000000001,-98.33600000000001
67,617.2893100001602,9,-14.262658389559999,-0.81882389372,15.604074739119998,-167.60100000000003,26.712,-135.758
68,626.3412859998425,9,-15.771333038859998,-1.1782258482399999,14.776875966299997,-228.08100000000005,15.638000000000002,-170.275
69,635.4802609994294,9,-16.930416306299996,-1.33591285758,13.558929262899998,-274.97400000000005,3.332,-201.383
70,644.5492359998752,9,-18.0921316786,-1.4309079147999997,12.371849971039998,-313.95,-7.812,-229.92900000000003
71,653.7792099998114,9,-19.269161115539998,-1.5309278994799997,11.412806672959999,-348.88700000000006,-16.576,-255.60500000000008
72,662.9941849996612,9,-20.366988124419997,-1.7448462399199998,10.601639811559998,-385.168,-23.338,-279.951
73,672.1721599997181,9,-21.41001949576,-1.7386249011599997,9.890732217099998,-419.53100000000006,-28.581000000000007,-302.7990000000001
74,681.3971350002248,9,-22.00942155706,-1.4699109231799998,8.9706919274,-450.80000000000007,-32.424,-325.63300000000004
75,690.4931099998066,9,-21.956061613080003,-0.9485148786399996,7.696274610640001,-479.36,-38.612,-348.60699999999997
76,699.6990850002476,9,-21.099191840019998,-0.21559331625999958,6.122993751139999,-501.151,-43.35799999999999,-371.735
77,708.8340599993899,9,-19.38712726972,0.49100719752000027,4.343690865779999,-513.1700000000001,-47.957,-392.16099999999994
78,717.9620349998004,9,-17.22664774418,1.1985648403400002,2.57395927082,-517.601,-51.016,-409.73100000000005
79,727.1750099998826,9,-14.438291568399995,1.71254313482,1.0375278793600007,-515.7180000000001,-48.733999999999995,-425.047
80,736.2299850001364,9,-10.904571152719999,2.18368990476,-0.1993221225800002,-508.0040000000001,-42.532,-439.1940000000001
81,745.2999600000112,9,-6.86237593454,2.7153750864799995,-1.04949199236,-496.321,-35.063,-449.785
82,754.4399349999367,9,-2.2250857357399996,3.4810783184799994,-1.52805651236,-478.2610000000001,-28.588,-456.21100000000007
83,763.6129100001199,9,2.8728228135599987,4.24462801014,-1.6902898846399999,-454.11800000000005,-24.122000000000003,-458.33200000000005
84,772.7878850000707,9,7.729056280259999,5.089294387939999,-1.4380863825999999,-425.9150000000001,-23.666999999999998,-452.05300000000005
85,781.8508599993947,9,12.340025430459999,5.78919499844,-0.6941578362599998,-394.3380000000001,-26.362000000000005,-439.817
86,790.8738349997293,9,16.56933937596,6.18401072744,0.38452659182,-360.50000000000006,-32.571000000000005,-420.196
87,800.0238099994021,9,20.2014048005,6.633861376239999,1.6393227632599998,-328.05500000000006,-40.649,-394.73
88,809.0407849995245,9,23.3503593421,7.020062943879999,2.8539195150200003,-294.06300000000005,-46.697,-364.32900000000006
89,818.1797600000209,9,25.80037040224,7.447660342500001,3.8471801762799998,-258.384,-48.12500000000001,-331.55500000000006
90,827.2477359996628,9,27.45261440754,7.843193918280001,4.50281356868,-221.921,-46.41000000000001,-297.79400000000004
91,836.232710999866,8,28.189125203820005,8.17101061448,4.925625322099998,-181.38400000000001,-41.664,-263.14400000000006
92,845.254685999862,9,28.101547896659998,8.213842139019999,5.067519702279999,-137.76,-33.32000000000001,-227.04500000000002
93,854.1886619996149,8,27.307609357980006,7.91138936238,4.93376091894,-92.484,-26.53,-188.83900000000003
94,863.2026369996311,9,26.11311231606,7.108118815559999,4.65451852152,-44.38000000000001,-18.41,-156.03700000000003
95,872.2696119993998,9,24.3673089471,5.932046507659999,4.29822723638,3.0240000000000067,-8.61,-126.728
96,881.4075869995577,9,22.244157454119996,4.6248475212799995,3.9067614590199993,43.519000000000005,2.5200000000000005,-103.15900000000002
97,891.1615609995351,9,19.9465691936,3.16905425144,3.4980673589399998,74.10900000000001,14.643999999999997,-85.743
98,900.2705359998799,9,17.697555231859997,1.82428795024,3.0740591942199997,95.15100000000002,24.241,-73.633
99,909.4065109993608,9,15.471990931599995,0.6209374647000001,2.61439797276,106.93900000000004,27.013000000000005,-62.74800000000001
100,918.6254850001205,9,13.438331003859997,-0.45056849558000006,2.16263306588,110.60000000000002,25.193000000000005,-52.318000000000005
101,927.7604600001723,9,11.87868923318,-1.3986048097000001,1.72857504624,107.11400000000003,20.069000000000003,-43.813
102,936.9494349994056,9,10.6145610536,-2.2387248245599998,1.3043275992599999,99.46300000000002,11.193000000000001,-37.05800000000001
103,946.0834100000284,9,9.62249680364,-2.9307291204799997,0.9157332090199999,87.08700000000002,3.5000000000000013,-34.363
104,955.1643849999891,9,8.911589209179999,-3.4576286569999994,0.5326423107599999,71.03600000000002,-3.996999999999999,-32.879000000000005
105,964.382359999945,9,8.4394853102,-3.784727506419999,0.18017954177999992,53.59200000000002,-9.856,-33.243
106,973.5543349997897,9,8.1260255496,-3.893122370199999,-0.15720844481999993,36.89000000000001,-12.712000000000002,-34.21600000000001
107,982.6803099995232,9,7.9424960561799995,-3.7909488451799995,-0.44530428586,23.520000000000003,-13.790000000000003,-34.727000000000004
108,991.8062850001661,9,7.926464144759999,-3.60741935176,-0.6927221427,12.753999999999998,-13.909,-34.279
