,time_ms,delta_ms,aX,aY,aZ,gX,gY,gZ
0,0.0,0,6.5431733997,-7.066962266839998,0.06197410533999999,0.9730000000000002,-1.1830000000000003,-3.843000000000001
1,9.557974000017566,9,6.752066812679999,-6.58002286774,0.23856441322,0.791,0.13999999999999985,-4.501
2,18.99794800010568,9,6.954738886899999,-6.090929928299998,0.4283152454,0.7909999999999998,1.134,-5.383000000000001
3,28.709920999972383,9,7.1564538320799995,-5.601119142079999,0.6307480373599998,0.623,1.9040000000000004,-6.251
4,38.152895999701286,9,7.366304374099999,-5.08498730726,0.83102728898,0.22399999999999992,2.415,-6.846000000000001
5,47.69086899977992,9,7.57112998866,-4.5552163836199995,1.03202438738,-0.20299999999999999,0.8890000000000005,-6.9510000000000005
6,57.160843999554345,9,7.756573740159999,-4.030470387439999,1.2253644534599997,-0.812,0.9520000000000002,-6.44
7,66.69981699997152,9,7.922157064079999,-3.49615310086,1.41846523728,-1.218,0.7000000000000004,-5.782000000000002
8,76.21279100021638,9,8.061419339399999,-2.9802605482999995,1.61898377116,-1.316,-0.0629999999999992,-5.173000000000001
9,85.75476499936485,9,8.17938549358,-2.47513569744,1.8166309179200002,-1.183,-1.3789999999999998,-4.627000000000001
10,95.32073899936222,9,8.077211968559999,-2.4449861326799995,1.8415162729599999,-1.0150000000000001,-4.529000000000001,-3.0310000000000015
11,104.74071299995558,9,7.983891887159999,-2.3978475274599997,1.8486947407599998,-0.7210000000000002,-7.777000000000001,-0.9659999999999999
12,114.38868699951854,9,7.88698257186,-2.3404197850599995,1.83625206324,-0.5250000000000001,-10.976,1.5820000000000005
13,123.54566199974215,9,7.77954483712,-2.26313161508,1.81782732922,-0.19600000000000004,-14.371,4.368
14,132.64363700000104,9,7.736713312579999,-2.1573688561599997,1.80729890978,0.028000000000000025,-17.71,7.364000000000002
15,141.67661200008297,9,7.678567723399999,-2.00590318558,1.80107757102,0.196,-19.110000000000003,10.542000000000002
16,150.72758699989208,9,7.695078199339998,-1.7639888207199999,1.80203470006,0.45500000000000007,-22.316000000000003,15.743
17,159.88056199967104,9,7.829315547199999,-1.4426327455399999,1.84749832946,0.6580000000000001,-25.816000000000003,20.671
18,168.91653799939377,9,8.1308111948,-0.9528219593199999,1.9080367412399997,0.9240000000000002,-31.822000000000003,27.755000000000003
19,178.07351299961738,9,8.538308883579997,-0.25172493752000014,2.00949241948,1.302,-36.792,39.634
20,187.11248799991154,9,8.987202403339998,0.61686966628,2.14707971898,1.477,-41.65700000000001,53.50100000000001
21,196.3424629993824,9,9.531090980319998,1.64291199716,2.2923240508000005,1.477,-45.507000000000005,69.608
22,205.39943799940374,9,10.224530969799998,2.87473707164,2.45886450376,2.1630000000000003,-47.06100000000001,89.57200000000002
23,214.49041300002136,9,11.357293188639998,4.26568484902,2.6847469571999993,7.014000000000001,-45.96900000000001,109.55
24,223.68738800014398,9,12.892767451060001,5.76526677244,2.9515466770999996,15.267000000000001,-42.819,130.80200000000005
25,232.84536299979663,9,15.13149227562,7.31749079306,3.22384988898,29.281,-39.697,155.49100000000004
26,242.05933699977322,9,17.8731884107,8.7972122889,3.4059436888399985,43.75000000000001,-37.10000000000001,181.51700000000002
27,251.20331200014334,9,20.94102626616,10.10225773494,3.22002137282,57.71500000000001,-34.45400000000001,211.05700000000002
28,260.28128799953265,9,23.9844573311,11.198409768000001,2.5210778913599996,70.497,-28.581000000000007,240.88400000000007
29,269.32126300016535,9,26.82904483798,12.011969452,1.2588639698599997,85.071,-21.574,266.29400000000004
30,278.5382379997827,9,29.444639222040003,12.6556387314,-0.5788237869400001,106.35800000000002,-9.394000000000002,289.42900000000003
31,287.6882129994556,9,31.72571700662,13.233266107039999,-2.45455742308,140.651,8.785,309.2320000000001
32,296.8661879995125,9,33.414810479959996,13.74533014344,-3.93595389474,187.59300000000002,27.461000000000002,325.90600000000006
33,305.9201629994277,9,33.99459139594,14.204512800380002,-5.00865626632,240.702,44.28900000000001,347.64099999999996
34,315.0981379994846,9,32.96280629082,14.200205719700003,-5.67075027974,292.775,59.18500000000002,373.87699999999995
35,324.2301129994303,9,30.14238629219999,13.660624223399997,-5.752584812659999,335.139,76.678,401.73
36,333.35208799962857,9,25.613012392659993,12.871471329919999,-5.576233787039999,365.988,94.88500000000002,422.674
37,342.49806299976626,9,19.712790425580003,12.20411310678,-5.31900535754,392.651,110.369,433.4120000000001
38,351.56403800010594,9,12.724552022280001,11.928699225519999,-4.8586262893,423.899,122.549,428.5330000000001
39,360.76101300022856,9,5.220660348680004,12.206027364859999,-3.7775490386199992,461.125,134.757,419.51000000000005
40,369.8819880000883,9,-2.69240398952,13.442638084539999,-1.9168901848600002,499.11400000000003,147.168,422.7090000000001
41,379.0979619998325,9,-11.57551860976,14.9766766534,0.35509487384000016,539.847,156.73,439.4530000000001
42,388.1659379994744,9,-20.826649345879996,16.25420463954,3.4241291406000003,581.7840000000001,167.881,462.77
43,397.1869130000414,9,-29.717899562960003,17.124952783679998,8.608179303499998,621.5020000000002,181.25800000000004,483.91700000000003
44,406.27088800010824,9,-37.0863574774,17.29627888184,15.786647103499998,649.0330000000001,192.675,495.684
45,415.3808629998821,9,-42.59774577198,15.114263952900004,23.254167873579995,645.4560000000001,189.847,489.1390000000001
46,424.3478389998927,8,-45.3655236734,11.418070882680002,28.285795236859997,600.3760000000001,173.69800000000004,458.85
47,433.4358139994947,9,-46.42386910937999,6.952106782040002,29.972974452120003,509.7050000000001,141.98100000000005,406.22400000000005
48,442.4487890000819,9,-46.242253874039996,4.541338012540001,28.93090020982,408.43600000000004,106.81300000000003,341.82400000000007
49,451.46076399942103,9,-44.20189404301999,3.7722848288999984,26.057598831740002,313.222,70.63,271.30600000000004
50,460.62073899975076,9,-40.365003003919995,3.1001409605599974,23.012732073239995,246.099,36.93900000000002,201.56500000000005
51,469.6787149996453,9,-34.99311626692,2.009970983999999,20.534485706419996,185.85700000000003,13.342000000000004,135.90500000000006
52,478.8006899998436,9,-28.943821451859996,0.59318072254,18.374245463139996,118.734,-10.338999999999999,72.037
53,487.87166500005696,9,-22.68300111896,-0.8810372813199987,14.855360547579995,40.06100000000002,-33.992000000000004,4.227999999999982
54,497.55963799998426,9,-17.13165268696,-1.6563118037199982,9.521758972180002,-37.72299999999999,-55.762000000000015,-63.105000000000004
55,506.65261299945996,9,-12.486944738099996,0.34360932536000044,3.2044680259200007,-92.97400000000002,-67.501,-123.29100000000001
56,515.7775879997644,9,-9.559565569259998,4.067080573219999,-1.0750951941799998,-103.53,-67.96300000000001,-159.397
57,524.9465629995029,9,-7.592904674319999,8.37918618068,-1.9704894110999995,-68.201,-50.56099999999999,-166.845
58,534.221537999656,9,-6.179703646759998,10.08837936386,0.04785645200000186,-29.890000000000004,-26.215000000000003,-150.78000000000003
59,543.4315129996321,9,-6.317051663999999,9.303533551060001,3.76678133692,-8.386000000000001,-1.5260000000000011,-127.35100000000003
60,552.5454879998506,9,-8.176753388719998,7.099504654200001,7.430192737519998,-24.913000000000004,15.393,-120.05700000000002
61,561.6644629999428,9,-10.7485591192,4.55067002068,10.171410308079999,-68.66299999999998,17.787,-132.93
62,570.744437999565,9,-13.5134656335,2.2954347201800003,11.409217439059997,-125.06200000000001,14.84,-159.369
63,580.0224129998242,9,-16.524593593340004,0.4649254311800002,11.453484657159997,-185.40900000000002,7.7490000000000006,-191.8
64,589.217386999735,9,-19.2514542283,-0.7802994498599995,10.8203437972,-243.257,-0.7419999999999994,-225.974
65,598.4883619994434,9,-21.54521397266,-1.6560725214599998,10.101779170419999,-297.86400000000003,-8.043000000000001,-257.25700000000006
66,607.6573370000915,9,-23.307288535299996,-2.1171694364799998,9.349954309499998,-348.075,-13.167000000000002,-285.9150000000001
67,616.6963119994762,9,-24.3517556002,-2.3062024218799997,8.486863197679998,-394.31,-16.422000000000004,-312.93500000000006
68,625.820286999442,9,-24.470439601160002,-2.1655044529999996,7.518009326939999,-431.2630000000001,-19.712,-337.26700000000005
69,634.9742619995595,9,-23.6482657558,-1.7144573929000004,6.428317914899997,-459.92800000000005,-24.241000000000003,-358.65900000000005
70,644.1782370002329,9,-21.71677935308,-1.0114461130199999,5.3489156400399995,-477.75700000000006,-28.686,-376.33400000000006
71,653.3652119996987,9,-18.9320124112,-0.19740786450000028,4.400640043659999,-486.55600000000004,-31.626000000000005,-391.314
72,662.4581870000839,9,-15.497354851160003,0.6376872228999998,3.59736949684,-489.09000000000003,-30.989000000000004,-403.2490000000001
73,671.6011620001154,9,-11.260383873339999,1.4177473904999998,2.9429325157399995,-483.77700000000004,-27.349,-410.21400000000006
74,680.7181369995305,9,-6.617590182559999,1.9800607014999994,2.4528824472599995,-471.68100000000004,-20.881,-412.51000000000005
75,689.8681120001129,9,-1.7663816433200001,2.4229721647599995,2.2456640100999996,-452.07400000000007,-12.831,-410.13700000000006
76,698.9420869995229,9,3.291566768559999,2.6629722715399997,2.3877976725399996,-431.25600000000014,-4.536000000000001,-404.51599999999996
77,707.9730619998372,9,8.18680324364,2.9051259186599996,3.0096922662799996,-410.2700000000001,3.5769999999999995,-397.985
78,716.9370379997417,8,12.633146198959999,3.05276307308,4.108954968719999,-388.57700000000006,13.783000000000001,-391.11800000000005
79,726.0620130000461,9,16.562160908159996,3.2207392196,5.74660275616,-360.94800000000004,26.334000000000003,-381.213
80,735.0689879995116,9,19.84798490248,3.5758340934399997,7.69388178804,-331.772,36.967000000000006,-368.718
81,744.0869629999725,9,22.575563384219997,4.178107541859999,9.79214792598,-301.014,43.785,-351.064
82,753.0589389998568,8,24.73317152264,4.70692133646,11.72626643356,-268.107,42.336,-329.749
83,762.1199139994133,9,26.22748923634,5.181178775779999,13.222259123079999,-234.80800000000005,33.32000000000001,-303.90500000000003
84,771.2128889997985,9,27.048705952659997,5.614518948639999,13.9764768066,-202.94400000000005,18.514999999999997,-275.877
85,780.1668649999556,8,26.90824726604,5.72458878824,14.126506783619998,-169.93200000000007,2.261000000000004,-246.76400000000004
86,789.3398400001388,9,25.9298221049,5.47980303626,13.763276312939999,-133.44100000000006,-12.404000000000002,-217.67200000000003
87,798.4618149994276,9,24.35965191478,4.91222551554,12.88702467682,-94.47200000000002,-23.282000000000004,-187.35500000000005
88,807.6297899997371,9,22.348245237220002,4.134318888280001,11.581261383999998,-55.93000000000001,-33.166000000000004,-155.02200000000002
89,816.7067650001627,9,20.033428653980003,3.2729027522800003,9.823972466559997,-25.991000000000003,-42.833000000000006,-124.86600000000001
90,825.7787399998051,9,17.66285930416,2.16885440464,7.775955603219996,-3.0450000000000004,-49.31500000000001,-97.78999999999999
91,834.9807149998014,9,15.342778511199995,0.95856473356,5.5092347542399995,15.841,-52.626,-76.209
92,844.1506899998785,9,13.246905195859998,-0.16941184008,3.3219556155799994,30.947000000000003,-50.155000000000015,-57.540000000000006
93,853.1916649999403,9,11.386724906619998,-1.3311272123799998,1.4725430280400003,43.323,-42.000000000000014,-42.119000000000014
94,862.3516399993605,9,9.848139974819997,-2.5268206656,0.2785245506399997,53.284000000000006,-31.549000000000014,-29.47700000000001
95,871.4076149999528,9,8.775676885499998,-3.6378081987799993,-0.3955335757799999,60.88600000000001,-19.502000000000002,-20.272000000000002
96,880.6395900001007,9,7.876693434679998,-4.562155569159999,-0.6520441585,64.82700000000001,-9.709000000000001,-14.945000000000002
97,889.8215649996928,9,7.189953348479999,-5.260381203839999,-0.5749952707799999,64.155,-4.592000000000001,-13.433000000000002
98,898.9355399999113,9,6.78580561134,-5.7214781188599995,-0.3433700431000001,56.952,-2.996,-15.694000000000003
99,908.0385150000438,9,6.609933150239999,-6.009334677639999,-0.06125625855999996,46.613000000000014,-3.5420000000000003,-18.774
100,917.0464899998478,9,6.587440617799999,-6.1040904525999995,0.18520446924000003,33.628,-5.033,-21.371000000000002
101,926.151464999748,9,6.656114626419999,-6.0808800733799995,0.3744767369,19.523000000000003,-6.174000000000001,-22.575
102,935.2824399993551,9,6.772645087039999,-5.939703539979999,0.5335994397999999,6.433000000000002,-6.734,-23.072000000000003
103,944.3674149997605,9,6.91788941886,-5.7571311756,0.6326622954400001,-4.340000000000002,-7.084000000000001,-22.988
104,953.493389999494,9,7.096633267079999,-5.57790876286,0.72765735266,-10.780000000000001,-5.642000000000001,-22.288000000000004
105,962.6943650000612,9,7.318447922099999,-5.403711277579999,0.8401200148600001,-14.119000000000003,-5.908,-21.006999999999998
106,971.7543400001887,9,7.583811948439999,-5.27043105876,0.9525826770599999,-15.477,-6.293000000000001,-18.844
107,980.942314999993,9,7.8857861605599995,-5.17519671928,1.08370935554,-15.141,-6.461,-15.938999999999998
108,990.0432899994485,9,8.146364541699999,-5.107001275179999,1.2100503888200003,-14.665000000000001,-6.167,-12.572000000000001
109,999.2362650000359,9,8.397371632439999,-5.05818769414,1.32059879294,-14.336000000000002,-5.25,-9.289000000000003
